// General information: 
//  MT Manager version: 2019.2.0 
//  XDA version: 2019.2.0 build 3853 rev 94535 built on 2019-09-09
// Device information: 
//  DeviceId: 00B43FA9
//  ProductCode: MTW2-3A7G6
//  Firmware Version: 4.3.5
//  Hardware Version: 1.1.0
// Device settings: 
//  Filter Profile: human(46.1)
//  Option Flags: Orientation Smoother Disabled, AHS Disabled, ICC Disabled
// Coordinate system: ENU
PacketCounter	Acc_X	Acc_Y	Acc_Z	Gyr_X	Gyr_Y	Gyr_Z	Mat[1][1]	Mat[2][1]	Mat[3][1]	Mat[1][2]	Mat[2][2]	Mat[3][2]	Mat[1][3]	Mat[2][3]	Mat[3][3]
58398	9.413566	0.372965	-2.456246	0.001780	0.004445	-0.000240	0.206907	0.148875	0.966967	0.451938	-0.891130	0.040496	0.867722	0.428631	-0.251663
58399	9.425034	0.385384	-2.438315	0.000665	0.001985	0.000646	0.206924	0.148876	0.966964	0.451942	-0.891128	0.040488	0.867716	0.428634	-0.251679
58400	9.407232	0.401980	-2.438259	-0.003766	0.003630	0.000854	0.206928	0.148868	0.966964	0.451906	-0.891146	0.040489	0.867733	0.428599	-0.251678
58401	9.413791	0.372881	-2.455399	0.004883	0.002338	-0.001101	0.206934	0.148883	0.966960	0.451951	-0.891124	0.040487	0.867709	0.428640	-0.251692
58402	9.413866	0.372946	-2.455098	-0.003317	0.004105	-0.000678	0.206928	0.148887	0.966961	0.451922	-0.891137	0.040502	0.867725	0.428610	-0.251686
58403	9.407504	0.401999	-2.437205	0.001995	0.005955	0.001938	0.206917	0.148860	0.966967	0.451934	-0.891133	0.040478	0.867722	0.428630	-0.251665
58404	9.419751	0.414730	-2.453624	0.000452	0.003983	-0.000894	0.206911	0.148866	0.966968	0.451938	-0.891130	0.040486	0.867721	0.428633	-0.251663
58405	9.396320	0.389553	-2.454064	-0.002654	0.002582	-0.000670	0.206918	0.148877	0.966965	0.451914	-0.891142	0.040500	0.867732	0.428605	-0.251673
58406	9.419905	0.414931	-2.452997	0.000452	0.003983	-0.000894	0.206912	0.148884	0.966965	0.451918	-0.891139	0.040507	0.867731	0.428608	-0.251670
58407	9.407893	0.402203	-2.435670	-0.000211	0.005505	-0.000902	0.206895	0.148884	0.966969	0.451916	-0.891140	0.040516	0.867736	0.428606	-0.251655
58408	9.425883	0.385542	-2.435006	0.001330	0.003970	0.001292	0.206898	0.148871	0.966970	0.451924	-0.891137	0.040500	0.867732	0.428617	-0.251653
58409	9.426001	0.385546	-2.434548	-0.003980	0.005628	-0.000687	0.206877	0.148868	0.966975	0.451889	-0.891153	0.040517	0.867754	0.428584	-0.251631
58410	9.408183	0.402200	-2.434551	0.001991	-0.001060	0.000663	0.206922	0.148883	0.966963	0.451904	-0.891147	0.040506	0.867736	0.428593	-0.251678
58411	9.402473	0.431656	-2.451505	-0.003317	0.004105	-0.000679	0.206915	0.148886	0.966964	0.451875	-0.891160	0.040520	0.867753	0.428563	-0.251672
58412	9.415546	0.373518	-2.486006	0.002442	0.002923	-0.000231	0.206921	0.148891	0.966962	0.451896	-0.891150	0.040516	0.867741	0.428582	-0.251681
58413	9.396269	0.389534	-2.416822	-0.001539	0.005043	-0.001557	0.206900	0.148899	0.966965	0.451884	-0.891155	0.040537	0.867752	0.428569	-0.251665
58414	9.426373	0.385777	-2.433071	0.000002	0.003508	0.000638	0.206905	0.148894	0.966965	0.451881	-0.891157	0.040531	0.867752	0.428567	-0.251667
58415	9.420719	0.415222	-2.449819	0.000452	0.003983	-0.000894	0.206898	0.148902	0.966965	0.451883	-0.891156	0.040540	0.867753	0.428567	-0.251665
58416	9.409414	0.402933	-2.467157	0.000237	0.002473	-0.003072	0.206895	0.148934	0.966961	0.451890	-0.891151	0.040569	0.867750	0.428566	-0.251677
58417	9.408747	0.402741	-2.432279	0.003557	0.005383	-0.001117	0.206875	0.148937	0.966965	0.451921	-0.891135	0.040572	0.867738	0.428599	-0.251661
58418	9.426734	0.386195	-2.431606	-0.003317	0.004105	-0.000680	0.206869	0.148941	0.966965	0.451892	-0.891149	0.040586	0.867755	0.428568	-0.251656
58419	9.427565	0.386572	-2.465830	0.000665	0.001985	0.000646	0.206885	0.148941	0.966962	0.451897	-0.891147	0.040579	0.867749	0.428572	-0.251671
58420	9.397629	0.390320	-2.448926	0.000001	0.003508	0.000638	0.206890	0.148936	0.966962	0.451894	-0.891148	0.040573	0.867749	0.428570	-0.251673
58421	9.426995	0.386164	-2.430598	-0.002653	0.006091	-0.000034	0.206867	0.148925	0.966968	0.451872	-0.891159	0.040579	0.867766	0.428551	-0.251647
58422	9.409266	0.402824	-2.430256	0.001116	0.005968	-0.000248	0.206847	0.148917	0.966974	0.451881	-0.891155	0.040578	0.867766	0.428563	-0.251625
58423	9.421494	0.415708	-2.446756	-0.000213	0.001998	-0.001540	0.206854	0.148938	0.966969	0.451880	-0.891155	0.040595	0.867765	0.428557	-0.251641
58424	9.409423	0.403122	-2.429600	-0.000426	0.003996	-0.003081	0.206838	0.148964	0.966968	0.451881	-0.891153	0.040625	0.867768	0.428552	-0.251638
58425	9.416029	0.374053	-2.446621	0.002656	0.004433	0.001947	0.206839	0.148941	0.966972	0.451902	-0.891143	0.040598	0.867757	0.428580	-0.251630
58426	9.398298	0.390646	-2.446305	-0.004644	0.007151	-0.000698	0.206806	0.148933	0.966980	0.451862	-0.891163	0.040616	0.867786	0.428542	-0.251595
58427	9.397640	0.390353	-2.411351	0.000664	0.001985	0.000646	0.206825	0.148934	0.966976	0.451865	-0.891162	0.040608	0.867780	0.428544	-0.251613
58428	9.428511	0.386821	-2.462174	-0.000662	0.005031	0.000629	0.206817	0.148922	0.966979	0.451856	-0.891166	0.040604	0.867786	0.428538	-0.251600
58429	9.415714	0.373567	-2.410365	0.001329	0.003971	0.001292	0.206820	0.148907	0.966981	0.451868	-0.891161	0.040585	0.867779	0.428554	-0.251596
58430	9.427943	0.386385	-2.426882	-0.000876	0.003521	-0.001549	0.206815	0.148922	0.966980	0.451862	-0.891163	0.040603	0.867784	0.428544	-0.251598
58431	9.416674	0.374027	-2.444144	-0.001990	0.004568	-0.000026	0.206805	0.148918	0.966983	0.451843	-0.891173	0.040609	0.867796	0.428526	-0.251586
58432	9.398895	0.390763	-2.443993	-0.000876	0.003521	-0.001549	0.206800	0.148932	0.966981	0.451837	-0.891175	0.040626	0.867800	0.428517	-0.251588
58433	9.381117	0.407350	-2.443860	0.002656	0.004433	0.001947	0.206802	0.148913	0.966984	0.451851	-0.891169	0.040603	0.867792	0.428536	-0.251582
58434	9.428342	0.386645	-2.425290	-0.002416	0.005057	-0.003745	0.206773	0.148940	0.966986	0.451837	-0.891174	0.040646	0.867807	0.428515	-0.251568
58435	9.411350	0.403679	-2.459638	0.000878	0.003495	0.002824	0.206788	0.148915	0.966986	0.451838	-0.891175	0.040615	0.867802	0.428523	-0.251570
58436	9.422788	0.416030	-2.441712	0.001115	0.002461	-0.000886	0.206796	0.148928	0.966983	0.451848	-0.891169	0.040621	0.867795	0.428529	-0.251583
58437	9.417223	0.374133	-2.442011	0.002442	0.002923	-0.000231	0.206804	0.148934	0.966980	0.451866	-0.891161	0.040618	0.867784	0.428546	-0.251594
58438	9.400218	0.391007	-2.476450	0.001328	0.003971	0.001292	0.206808	0.148921	0.966981	0.451874	-0.891158	0.040602	0.867779	0.428557	-0.251592
58439	9.440132	0.398886	-2.406000	0.001779	0.004446	-0.000240	0.206800	0.148920	0.966983	0.451887	-0.891151	0.040601	0.867774	0.428570	-0.251585
58440	9.410963	0.403090	-2.423634	-0.001991	0.001060	-0.000664	0.206820	0.148937	0.966976	0.451869	-0.891159	0.040613	0.867779	0.428547	-0.251610
58441	9.411829	0.403354	-2.457860	0.000214	0.005019	0.002815	0.206821	0.148907	0.966981	0.451862	-0.891164	0.040586	0.867782	0.428548	-0.251597
58442	9.399795	0.390624	-2.440550	0.000026	0.004472	-0.004613	0.206794	0.148944	0.966981	0.451871	-0.891158	0.040630	0.867784	0.428548	-0.251590
58443	9.417735	0.374042	-2.440047	-0.000237	0.001035	0.003709	0.206833	0.148923	0.966976	0.451859	-0.891165	0.040596	0.867781	0.428540	-0.251614
58444	9.412093	0.403354	-2.456846	-0.000212	0.005507	-0.000904	0.206814	0.148923	0.966980	0.451857	-0.891166	0.040605	0.867786	0.428539	-0.251597
58445	9.430078	0.386741	-2.456176	0.000001	0.003509	0.000637	0.206815	0.148916	0.966981	0.451857	-0.891166	0.040599	0.867786	0.428541	-0.251596
58446	9.400143	0.390498	-2.439229	0.000001	0.003509	0.000637	0.206820	0.148911	0.966980	0.451854	-0.891168	0.040593	0.867786	0.428539	-0.251598
58447	9.430259	0.386688	-2.455492	0.000452	0.003984	-0.000895	0.206814	0.148916	0.966981	0.451861	-0.891164	0.040598	0.867784	0.428545	-0.251595
58448	9.412480	0.403209	-2.455390	0.000877	0.003496	0.002824	0.206829	0.148892	0.966981	0.451861	-0.891165	0.040569	0.867780	0.428551	-0.251597
58449	9.418324	0.373625	-2.437839	0.001116	0.005970	-0.000249	0.206807	0.148883	0.966987	0.451871	-0.891160	0.040568	0.867781	0.428564	-0.251574
58450	9.412728	0.403050	-2.454464	0.001779	0.004447	-0.000240	0.206800	0.148882	0.966989	0.451885	-0.891153	0.040566	0.867775	0.428579	-0.251568
58451	9.429904	0.386143	-2.419292	-0.003317	0.004106	-0.000683	0.206795	0.148887	0.966989	0.451855	-0.891168	0.040582	0.867792	0.428547	-0.251564
58452	9.400776	0.390478	-2.436791	0.000903	0.004460	-0.002427	0.206777	0.148905	0.966990	0.451866	-0.891161	0.040603	0.867790	0.428555	-0.251557
58453	9.418748	0.373990	-2.436145	0.000452	0.003984	-0.000895	0.206768	0.148909	0.966992	0.451875	-0.891157	0.040609	0.867788	0.428562	-0.251551
58454	9.430974	0.386799	-2.452724	0.000664	0.001986	0.000646	0.206786	0.148911	0.966988	0.451878	-0.891156	0.040601	0.867782	0.428564	-0.251568
58455	9.418896	0.373873	-2.435589	0.001328	0.003972	0.001292	0.206827	0.148890	0.966982	0.452004	-0.891095	0.040526	0.867707	0.428698	-0.251601
58456	9.413263	0.403431	-2.452346	-0.001752	0.003534	-0.003737	0.206812	0.148923	0.966980	0.451996	-0.891097	0.040567	0.867715	0.428681	-0.251602
58457	9.414129	0.403829	-2.486635	0.003981	0.001388	0.001966	0.206841	0.148915	0.966975	0.452025	-0.891084	0.040537	0.867692	0.428712	-0.251626
58458	9.407762	0.361512	-2.452408	-0.003317	0.004107	-0.000684	0.206835	0.148919	0.966976	0.451997	-0.891097	0.040552	0.867709	0.428682	-0.251621
58459	9.424848	0.415939	-2.433764	-0.000663	0.005032	0.000627	0.206825	0.148906	0.966980	0.451991	-0.891101	0.040547	0.867714	0.428680	-0.251606
58460	9.413609	0.403419	-2.451020	0.000000	0.003509	0.000636	0.206829	0.148901	0.966980	0.451988	-0.891102	0.040540	0.867714	0.428679	-0.251608
58461	9.442899	0.399191	-2.432846	0.000664	0.001986	0.000646	0.206847	0.148903	0.966976	0.451991	-0.891101	0.040533	0.867709	0.428680	-0.251624
58462	9.395069	0.419587	-2.416207	0.001779	0.004447	-0.000240	0.206840	0.148901	0.966978	0.452005	-0.891094	0.040531	0.867703	0.428696	-0.251618
58463	9.420369	0.374156	-2.467570	0.000664	0.001986	0.000646	0.206857	0.148902	0.966974	0.452009	-0.891092	0.040523	0.867697	0.428699	-0.251633
58464	9.401786	0.390421	-2.432901	0.002894	0.006909	-0.001126	0.206824	0.148898	0.966981	0.452036	-0.891079	0.040526	0.867691	0.428728	-0.251604
58465	9.431934	0.386686	-2.449049	-0.002654	0.002584	-0.000675	0.206829	0.148908	0.966979	0.452013	-0.891090	0.040539	0.867701	0.428702	-0.251612
58466	9.396254	0.419872	-2.449313	0.003318	0.002912	0.001957	0.206845	0.148894	0.966978	0.452037	-0.891079	0.040512	0.867685	0.428730	-0.251621
58467	9.402092	0.390392	-2.431723	-0.004644	0.007153	-0.000704	0.206812	0.148886	0.966986	0.451995	-0.891099	0.040532	0.867715	0.428690	-0.251585
58468	9.425712	0.415856	-2.430432	0.001566	0.002937	-0.002417	0.206808	0.148910	0.966983	0.452012	-0.891090	0.040552	0.867707	0.428701	-0.251593
58469	9.420140	0.374005	-2.430752	0.000664	0.001986	0.000646	0.206827	0.148911	0.966979	0.452015	-0.891088	0.040543	0.867701	0.428704	-0.251612
58470	9.421019	0.374336	-2.465061	0.001115	0.002461	-0.000886	0.206834	0.148924	0.966975	0.452025	-0.891083	0.040549	0.867694	0.428710	-0.251624
58471	9.385335	0.407635	-2.465329	-0.001327	0.003046	-0.000020	0.206842	0.148927	0.966973	0.452014	-0.891089	0.040551	0.867698	0.428697	-0.251631
58472	9.431669	0.386724	-2.412307	-0.001751	0.003535	-0.003738	0.206827	0.148960	0.966971	0.452005	-0.891091	0.040591	0.867706	0.428680	-0.251632
58473	9.402559	0.390943	-2.429830	0.000212	0.005020	0.002813	0.206829	0.148929	0.966976	0.452000	-0.891095	0.040563	0.867708	0.428684	-0.251620
58474	9.433499	0.387400	-2.480672	0.000452	0.000475	-0.001532	0.206850	0.148956	0.966967	0.452006	-0.891091	0.040576	0.867700	0.428682	-0.251651
58475	9.414859	0.403731	-2.446163	-0.000664	0.005033	0.000626	0.206841	0.148944	0.966971	0.451998	-0.891096	0.040572	0.867707	0.428677	-0.251637
58476	9.415003	0.403697	-2.445613	-0.001327	0.006556	0.000616	0.206819	0.148926	0.966978	0.451984	-0.891103	0.040569	0.867719	0.428668	-0.251609
58477	9.420817	0.374388	-2.428070	0.000240	0.002474	-0.003073	0.206811	0.148958	0.966975	0.451992	-0.891098	0.040600	0.867717	0.428668	-0.251617
58478	9.385987	0.408103	-2.462767	-0.000664	0.005033	0.000626	0.206803	0.148946	0.966979	0.451983	-0.891102	0.040596	0.867723	0.428663	-0.251604
58479	9.444485	0.399776	-2.426585	-0.000664	0.001523	-0.000010	0.206822	0.148956	0.966973	0.451975	-0.891106	0.040598	0.867723	0.428651	-0.251625
58480	9.415344	0.403798	-2.444285	0.000875	0.003497	0.002823	0.206837	0.148931	0.966974	0.451976	-0.891107	0.040568	0.867719	0.428658	-0.251627
58481	9.415465	0.403869	-2.443806	-0.003077	0.006582	-0.003759	0.206796	0.148952	0.966979	0.451955	-0.891116	0.040612	0.867740	0.428633	-0.251599
58482	9.421246	0.374496	-2.426389	0.004644	-0.000135	0.001978	0.206838	0.148951	0.966970	0.451990	-0.891099	0.040581	0.867711	0.428667	-0.251638
58483	9.415588	0.404001	-2.443311	0.000028	0.004473	-0.004615	0.206812	0.148989	0.966970	0.451997	-0.891094	0.040627	0.867714	0.428665	-0.251632
58484	9.433551	0.387496	-2.442685	-0.000452	0.003034	0.002167	0.206828	0.148972	0.966969	0.451987	-0.891100	0.040607	0.867715	0.428659	-0.251638
58485	9.403586	0.391117	-2.425824	-0.000452	0.003034	0.002167	0.206848	0.148957	0.966967	0.451975	-0.891107	0.040587	0.867717	0.428650	-0.251648
58486	9.415844	0.403802	-2.442360	-0.000000	0.003510	0.000636	0.206852	0.148952	0.966967	0.451973	-0.891108	0.040581	0.867717	0.428648	-0.251650
58487	9.415935	0.403809	-2.442008	0.000452	0.003985	-0.000896	0.206844	0.148957	0.966968	0.451978	-0.891105	0.040588	0.867716	0.428653	-0.251645
58488	9.404650	0.391490	-2.459489	-0.000875	0.000013	-0.002187	0.206867	0.148992	0.966958	0.451974	-0.891106	0.040612	0.867713	0.428638	-0.251681
58489	9.403851	0.391005	-2.424812	0.001749	0.003484	0.005010	0.206890	0.148948	0.966960	0.451978	-0.891107	0.040559	0.867706	0.428653	-0.251682
58490	9.416132	0.403548	-2.441290	0.001778	0.004448	-0.000240	0.206882	0.148947	0.966962	0.451992	-0.891099	0.040557	0.867700	0.428669	-0.251675
58491	9.415339	0.403264	-2.406548	0.000452	0.000476	-0.001532	0.206903	0.148974	0.966953	0.451997	-0.891096	0.040572	0.867693	0.428665	-0.251706
58492	9.404921	0.391227	-2.458493	-0.001991	0.004570	-0.000031	0.206895	0.148970	0.966955	0.451978	-0.891106	0.040577	0.867704	0.428647	-0.251697
58493	9.422071	0.374217	-2.423226	0.000663	0.005496	0.001281	0.206887	0.148952	0.966960	0.451979	-0.891106	0.040563	0.867706	0.428653	-0.251681
58494	9.434323	0.387092	-2.439767	0.000904	0.000951	-0.003063	0.206897	0.148990	0.966952	0.451992	-0.891098	0.040591	0.867696	0.428656	-0.251708
58495	9.386444	0.407637	-2.423273	-0.000001	0.003510	0.000635	0.206903	0.148984	0.966951	0.451991	-0.891099	0.040583	0.867696	0.428656	-0.251711
58496	9.435277	0.387640	-2.473864	0.000904	0.000951	-0.003063	0.206913	0.149023	0.966943	0.452004	-0.891091	0.040610	0.867686	0.428659	-0.251738
58497	9.416636	0.403901	-2.439284	-0.004674	0.006191	0.004543	0.206914	0.148972	0.966951	0.451952	-0.891119	0.040578	0.867713	0.428619	-0.251713
58498	9.428102	0.416337	-2.421060	0.002682	0.005400	-0.003303	0.206885	0.148994	0.966954	0.451981	-0.891103	0.040603	0.867705	0.428644	-0.251698
58499	9.394224	0.379012	-2.473742	0.000663	0.001986	0.000646	0.206901	0.148995	0.966950	0.451984	-0.891102	0.040595	0.867699	0.428647	-0.251713
58500	9.416937	0.403950	-2.438115	0.000452	0.003986	-0.000896	0.206895	0.149001	0.966950	0.451989	-0.891099	0.040603	0.867698	0.428650	-0.251711
58501	9.447073	0.400086	-2.454374	0.001990	0.002449	0.001302	0.206911	0.148994	0.966948	0.452003	-0.891093	0.040585	0.867687	0.428666	-0.251723
58502	9.404905	0.391022	-2.420720	-0.001327	0.003047	-0.000021	0.206917	0.148997	0.966946	0.451990	-0.891099	0.040588	0.867693	0.428651	-0.251728
58503	9.416307	0.403546	-2.402712	0.000452	0.003986	-0.000896	0.206912	0.149004	0.966946	0.451993	-0.891097	0.040596	0.867692	0.428653	-0.251727
58504	9.418093	0.404319	-2.471500	-0.001990	0.001061	-0.000667	0.206932	0.149021	0.966939	0.451976	-0.891105	0.040607	0.867696	0.428630	-0.251752
58505	9.435174	0.387501	-2.436407	-0.001539	0.005046	-0.001563	0.206914	0.149029	0.966942	0.451965	-0.891110	0.040626	0.867706	0.428617	-0.251739
58506	9.406080	0.391833	-2.453960	-0.000875	0.003523	-0.001553	0.206909	0.149043	0.966941	0.451959	-0.891112	0.040643	0.867711	0.428608	-0.251741
58507	9.429668	0.417055	-2.452788	0.000873	0.003498	0.002823	0.206925	0.149019	0.966941	0.451957	-0.891115	0.040615	0.867708	0.428612	-0.251745
58508	9.388379	0.408273	-2.453606	-0.001327	0.003047	-0.000021	0.206931	0.149022	0.966939	0.451944	-0.891121	0.040618	0.867713	0.428598	-0.251750
58509	9.417635	0.404162	-2.435383	0.001115	0.002462	-0.000886	0.206937	0.149035	0.966936	0.451955	-0.891115	0.040624	0.867706	0.428605	-0.251761
58510	9.423419	0.374798	-2.417887	-0.000212	0.005510	-0.000907	0.206917	0.149035	0.966941	0.451954	-0.891115	0.040633	0.867711	0.428605	-0.251744
58511	9.400835	0.421218	-2.469386	-0.000001	0.003510	0.000635	0.206922	0.149031	0.966940	0.451947	-0.891119	0.040630	0.867714	0.428599	-0.251746
58512	9.406652	0.391558	-2.451811	-0.000907	0.006069	0.004333	0.206921	0.148982	0.966948	0.451929	-0.891130	0.040591	0.867723	0.428593	-0.251723
58513	9.430265	0.416711	-2.450550	-0.002654	0.002584	-0.000678	0.206926	0.148992	0.966945	0.451908	-0.891140	0.040603	0.867733	0.428568	-0.251731
58514	9.418161	0.403953	-2.433383	0.001778	0.004449	-0.000240	0.206919	0.148990	0.966947	0.451923	-0.891133	0.040601	0.867727	0.428584	-0.251724
58515	9.395632	0.378871	-2.468409	0.003315	0.002913	0.001959	0.206936	0.148975	0.966946	0.451949	-0.891121	0.040571	0.867709	0.428614	-0.251734
58516	9.435335	0.386747	-2.397925	0.000452	0.003986	-0.000897	0.206930	0.148981	0.966946	0.451953	-0.891118	0.040578	0.867709	0.428618	-0.251731
58517	9.401439	0.420755	-2.467162	0.000452	0.003986	-0.000897	0.206924	0.148988	0.966946	0.451956	-0.891116	0.040587	0.867708	0.428619	-0.251729
58518	9.412887	0.361832	-2.432615	0.001989	0.002450	0.001302	0.206941	0.148982	0.966944	0.451970	-0.891110	0.040569	0.867697	0.428634	-0.251742
58519	9.436467	0.387064	-2.431466	0.000452	0.003986	-0.000897	0.206935	0.148989	0.966944	0.451972	-0.891109	0.040578	0.867698	0.428634	-0.251740
58520	9.377344	0.395060	-2.432408	-0.001328	0.006558	0.000613	0.206913	0.148971	0.966951	0.451958	-0.891116	0.040576	0.867710	0.428625	-0.251712
58521	9.448918	0.399989	-2.447276	0.000904	0.004462	-0.002428	0.206895	0.148989	0.966952	0.451968	-0.891110	0.040598	0.867709	0.428632	-0.251705
58522	9.407633	0.391522	-2.448050	-0.000875	0.003523	-0.001553	0.206890	0.149004	0.966951	0.451963	-0.891112	0.040615	0.867713	0.428623	-0.251706
58523	9.419012	0.404026	-2.430073	-0.001780	0.002572	0.001509	0.206906	0.148995	0.966949	0.451943	-0.891122	0.040605	0.867720	0.428604	-0.251716
58524	9.419984	0.404355	-2.464275	0.000452	0.003986	-0.000897	0.206900	0.149001	0.966949	0.451947	-0.891120	0.040612	0.867719	0.428608	-0.251713
58525	9.390023	0.408185	-2.447320	-0.000665	0.005035	0.000623	0.206891	0.148990	0.966953	0.451939	-0.891124	0.040608	0.867725	0.428602	-0.251700
58526	9.425903	0.374957	-2.446225	-0.000212	0.005510	-0.000908	0.206872	0.148990	0.966957	0.451937	-0.891124	0.040617	0.867731	0.428602	-0.251682
58527	9.390261	0.408225	-2.446399	-0.000001	0.003511	0.000634	0.206877	0.148985	0.966957	0.451933	-0.891127	0.040612	0.867732	0.428598	-0.251685
58528	9.408220	0.391406	-2.445812	-0.000907	0.002559	0.003697	0.206904	0.148957	0.966955	0.451917	-0.891137	0.040578	0.867734	0.428587	-0.251695
58529	9.400859	0.419996	-2.393511	0.001114	0.005973	-0.000251	0.206881	0.148948	0.966962	0.451926	-0.891132	0.040578	0.867734	0.428601	-0.251672
58530	9.408434	0.391334	-2.444997	0.001568	0.002938	-0.002417	0.206877	0.148973	0.966959	0.451944	-0.891122	0.040598	0.867726	0.428612	-0.251680
58531	9.432000	0.416660	-2.443874	-0.001781	0.002572	0.001509	0.206895	0.148964	0.966956	0.451924	-0.891133	0.040587	0.867732	0.428593	-0.251691
58532	9.408574	0.391198	-2.444482	0.003315	0.002913	0.001959	0.206911	0.148949	0.966955	0.451947	-0.891122	0.040560	0.867716	0.428621	-0.251700
58533	9.450033	0.399688	-2.443019	-0.000001	0.003511	0.000634	0.206914	0.148945	0.966955	0.451943	-0.891124	0.040555	0.867718	0.428617	-0.251701
58534	9.390876	0.407705	-2.444126	-0.003317	0.004109	-0.000691	0.206908	0.148949	0.966956	0.451914	-0.891138	0.040570	0.867734	0.428587	-0.251696
58535	9.420141	0.403591	-2.425767	-0.000001	0.003511	0.000634	0.206909	0.148945	0.966956	0.451908	-0.891141	0.040568	0.867737	0.428582	-0.251695
58536	9.409815	0.391508	-2.477710	-0.000211	0.002000	-0.001543	0.206918	0.148966	0.966951	0.451909	-0.891141	0.040583	0.867735	0.428576	-0.251712
58537	9.409905	0.391448	-2.477380	0.000208	0.005022	0.002811	0.206917	0.148935	0.966956	0.451902	-0.891145	0.040557	0.867738	0.428578	-0.251697
58538	9.426979	0.374429	-2.442157	-0.000874	0.003524	-0.001554	0.206911	0.148949	0.966955	0.451897	-0.891147	0.040574	0.867742	0.428569	-0.251698
58539	9.402641	0.420121	-2.424635	0.001987	0.005961	0.001937	0.206903	0.148921	0.966961	0.451912	-0.891141	0.040547	0.867737	0.428592	-0.251678
58540	9.409330	0.391040	-2.441594	-0.002200	0.003061	-0.002211	0.206898	0.148943	0.966959	0.451896	-0.891147	0.040574	0.867746	0.428570	-0.251684
58541	9.439485	0.387439	-2.457791	-0.000874	0.003524	-0.001554	0.206894	0.148957	0.966958	0.451891	-0.891149	0.040590	0.867750	0.428562	-0.251686
58542	9.379405	0.395124	-2.424435	-0.000002	0.003511	0.000634	0.206899	0.148951	0.966957	0.451889	-0.891151	0.040584	0.867750	0.428560	-0.251687
58543	9.450930	0.400075	-2.439481	0.000243	0.002476	-0.003074	0.206895	0.148982	0.966953	0.451898	-0.891145	0.040611	0.867746	0.428562	-0.251699
58544	9.379545	0.395234	-2.423877	0.000871	0.003499	0.002822	0.206910	0.148958	0.966954	0.451899	-0.891146	0.040582	0.867742	0.428568	-0.251701
58545	9.439801	0.387574	-2.456555	0.003348	0.003878	-0.003291	0.206892	0.148986	0.966953	0.451933	-0.891127	0.040606	0.867728	0.428597	-0.251699
58546	9.422030	0.404293	-2.456452	-0.000666	0.005035	0.000622	0.206884	0.148975	0.966957	0.451925	-0.891132	0.040602	0.867735	0.428592	-0.251686
58547	9.398628	0.378942	-2.456965	-0.001781	0.002572	0.001508	0.206902	0.148966	0.966954	0.451903	-0.891143	0.040592	0.867741	0.428571	-0.251698
58548	9.409980	0.391391	-2.439032	0.001116	0.002463	-0.000886	0.206909	0.148979	0.966951	0.451913	-0.891138	0.040598	0.867734	0.428578	-0.251710
58549	9.416642	0.362359	-2.456113	0.000452	0.003987	-0.000897	0.206901	0.148985	0.966952	0.451918	-0.891135	0.040606	0.867734	0.428582	-0.251706
58550	9.392271	0.408088	-2.438694	-0.000002	0.003511	0.000634	0.206906	0.148980	0.966951	0.451916	-0.891136	0.040599	0.867734	0.428580	-0.251708
58551	9.422442	0.404327	-2.454863	-0.000874	0.003524	-0.001555	0.206900	0.148995	0.966950	0.451909	-0.891139	0.040617	0.867739	0.428570	-0.251709
58552	9.416910	0.362607	-2.455052	0.000905	0.004463	-0.002429	0.206883	0.149013	0.966951	0.451921	-0.891132	0.040638	0.867737	0.428578	-0.251702
58553	9.421699	0.404247	-2.419601	-0.000002	0.003512	0.000634	0.206889	0.149009	0.966951	0.451916	-0.891135	0.040634	0.867738	0.428573	-0.251705
58554	9.410526	0.391859	-2.436851	0.000241	0.005987	-0.002441	0.206858	0.149021	0.966955	0.451921	-0.891131	0.040657	0.867742	0.428578	-0.251683
58555	9.422848	0.404649	-2.453254	0.003313	0.002914	0.001960	0.206875	0.149006	0.966954	0.451945	-0.891120	0.040629	0.867726	0.428605	-0.251693
58556	9.410747	0.391740	-2.436017	-0.002656	0.006097	-0.000047	0.206854	0.148996	0.966960	0.451921	-0.891132	0.040636	0.867743	0.428584	-0.251669
58557	9.392971	0.408362	-2.435952	0.000662	0.001987	0.000645	0.206873	0.148997	0.966956	0.451923	-0.891131	0.040628	0.867738	0.428585	-0.251686
58558	9.441036	0.387882	-2.451754	0.001114	0.005975	-0.000252	0.206852	0.148990	0.966961	0.451932	-0.891127	0.040628	0.867738	0.428597	-0.251665
58559	9.393188	0.408357	-2.435117	0.000452	0.003988	-0.000898	0.206847	0.148996	0.966962	0.451938	-0.891124	0.040634	0.867736	0.428601	-0.251663
58560	9.422456	0.404104	-2.416673	0.000206	0.005023	0.002810	0.206849	0.148965	0.966966	0.451932	-0.891128	0.040606	0.867739	0.428604	-0.251651
58561	9.412218	0.391819	-2.468516	0.002441	0.002926	-0.000228	0.206854	0.148970	0.966964	0.451952	-0.891118	0.040603	0.867727	0.428623	-0.251659
58562	9.411385	0.391429	-2.433600	-0.003110	0.005621	0.001483	0.206845	0.148948	0.966969	0.451921	-0.891134	0.040596	0.867746	0.428597	-0.251639
58563	9.435008	0.416667	-2.432233	0.001777	0.004451	-0.000240	0.206840	0.148947	0.966971	0.451934	-0.891127	0.040594	0.867740	0.428610	-0.251635
58564	9.400314	0.378903	-2.450514	-0.003107	0.002110	0.000849	0.206857	0.148946	0.966967	0.451904	-0.891143	0.040594	0.867752	0.428579	-0.251649
58565	9.422953	0.403935	-2.414764	-0.001538	0.005049	-0.001567	0.206841	0.148956	0.966969	0.451888	-0.891149	0.040615	0.867764	0.428561	-0.251637
58566	9.411786	0.391480	-2.432041	0.001323	0.003975	0.001291	0.206844	0.148943	0.966970	0.451896	-0.891146	0.040599	0.867759	0.428572	-0.251635
58567	9.400583	0.379008	-2.449466	-0.000210	0.002000	-0.001543	0.206853	0.148963	0.966965	0.451896	-0.891145	0.040613	0.867756	0.428567	-0.251653
58568	9.454241	0.400633	-2.464789	-0.000874	0.003525	-0.001556	0.206848	0.148978	0.966964	0.451891	-0.891147	0.040631	0.867761	0.428558	-0.251654
58569	9.370658	0.383063	-2.432279	0.001113	0.005976	-0.000253	0.206828	0.148968	0.966970	0.451903	-0.891142	0.040628	0.867759	0.428573	-0.251632
58570	9.454491	0.400693	-2.463821	-0.000666	0.005036	0.000621	0.206820	0.148957	0.966973	0.451894	-0.891146	0.040623	0.867766	0.428568	-0.251619
58571	9.394406	0.408291	-2.430422	0.001777	0.004451	-0.000240	0.206814	0.148956	0.966975	0.451909	-0.891139	0.040621	0.867759	0.428584	-0.251614
58572	9.423636	0.404190	-2.412053	-0.002654	0.002586	-0.000682	0.206821	0.148966	0.966972	0.451886	-0.891150	0.040634	0.867770	0.428557	-0.251624
58573	9.394589	0.408341	-2.429706	0.000659	0.005500	0.001279	0.206811	0.148946	0.966977	0.451888	-0.891149	0.040619	0.867771	0.428565	-0.251607
58574	9.394705	0.408310	-2.429263	0.000452	0.003988	-0.000898	0.206805	0.148953	0.966977	0.451893	-0.891147	0.040627	0.867770	0.428568	-0.251604
58575	9.413638	0.391984	-2.463071	0.001323	0.003975	0.001291	0.206809	0.148938	0.966978	0.451903	-0.891142	0.040609	0.867764	0.428582	-0.251602
58576	9.424995	0.404395	-2.445032	-0.001328	0.003049	-0.000025	0.206815	0.148941	0.966977	0.451890	-0.891149	0.040612	0.867769	0.428568	-0.251608
58577	9.413786	0.392017	-2.462499	-0.000210	0.002000	-0.001544	0.206821	0.148961	0.966972	0.451891	-0.891148	0.040628	0.867767	0.428563	-0.251623
58578	9.383757	0.395897	-2.445730	0.001777	0.004451	-0.000240	0.206814	0.148960	0.966974	0.451905	-0.891140	0.040626	0.867761	0.428579	-0.251616
58579	9.425237	0.404532	-2.444078	0.001777	0.004452	-0.000240	0.206806	0.148958	0.966976	0.451922	-0.891132	0.040622	0.867754	0.428597	-0.251609
58580	9.383953	0.395816	-2.444990	-0.001782	0.002573	0.001506	0.206823	0.148949	0.966974	0.451902	-0.891143	0.040612	0.867761	0.428578	-0.251619
58581	9.443300	0.387843	-2.443025	-0.000212	0.005513	-0.000911	0.206804	0.148948	0.966978	0.451903	-0.891142	0.040620	0.867765	0.428580	-0.251601
58582	9.384144	0.395820	-2.444256	0.000661	0.001988	0.000645	0.206822	0.148949	0.966974	0.451906	-0.891141	0.040612	0.867759	0.428582	-0.251618
58583	9.437848	0.417246	-2.459439	0.001113	0.005976	-0.000253	0.206800	0.148942	0.966980	0.451914	-0.891137	0.040612	0.867760	0.428593	-0.251596
58584	9.384343	0.395806	-2.443494	0.001116	0.002464	-0.000886	0.206808	0.148954	0.966976	0.451924	-0.891131	0.040618	0.867753	0.428600	-0.251609
58585	9.402291	0.379179	-2.442875	-0.000003	0.003513	0.000633	0.206811	0.148949	0.966976	0.451922	-0.891132	0.040612	0.867753	0.428599	-0.251610
58586	9.372287	0.382943	-2.426013	-0.000667	0.005037	0.000620	0.206803	0.148937	0.966980	0.451914	-0.891137	0.040607	0.867759	0.428594	-0.251596
58587	9.414774	0.392019	-2.458720	-0.002202	0.006574	-0.001582	0.206772	0.148939	0.966986	0.451897	-0.891145	0.040627	0.867776	0.428578	-0.251569
58588	9.425148	0.404158	-2.406144	0.002651	0.000927	0.001316	0.206802	0.148938	0.966980	0.451916	-0.891136	0.040608	0.867758	0.428596	-0.251597
58589	9.402687	0.379091	-2.441365	-0.000003	0.003513	0.000633	0.206807	0.148934	0.966980	0.451912	-0.891138	0.040603	0.867759	0.428593	-0.251599
58590	9.427254	0.404719	-2.474609	0.000452	0.003989	-0.000899	0.206801	0.148940	0.966980	0.451917	-0.891135	0.040610	0.867759	0.428596	-0.251596
58591	9.397230	0.408475	-2.457825	-0.000458	0.003037	0.002164	0.206818	0.148925	0.966979	0.451903	-0.891143	0.040592	0.867761	0.428585	-0.251604
58592	9.414202	0.391431	-2.422680	-0.001328	0.003049	-0.000026	0.206824	0.148928	0.966977	0.451890	-0.891149	0.040596	0.867767	0.428571	-0.251610
58593	9.426500	0.404334	-2.439236	-0.000209	0.002001	-0.001544	0.206832	0.148948	0.966972	0.451891	-0.891148	0.040611	0.867764	0.428566	-0.251626
58594	9.372972	0.382922	-2.423370	-0.000667	0.005037	0.000620	0.206823	0.148937	0.966976	0.451883	-0.891153	0.040607	0.867771	0.428561	-0.251613
58595	9.456750	0.400496	-2.455167	0.001989	-0.001061	0.000671	0.206867	0.148950	0.966964	0.451899	-0.891145	0.040594	0.867752	0.428572	-0.251659
58596	9.397570	0.408512	-2.456519	-0.002202	0.006575	-0.001583	0.206835	0.148952	0.966971	0.451882	-0.891153	0.040615	0.867769	0.428556	-0.251630
58597	9.414561	0.391609	-2.421255	0.000661	0.001988	0.000645	0.206851	0.148954	0.966967	0.451883	-0.891152	0.040609	0.867764	0.428556	-0.251645
58598	9.426872	0.404352	-2.437792	-0.000003	0.003513	0.000632	0.206855	0.148948	0.966967	0.451880	-0.891154	0.040603	0.867764	0.428554	-0.251647
58599	9.396843	0.408108	-2.421016	-0.000003	0.003513	0.000632	0.206862	0.148943	0.966966	0.451877	-0.891156	0.040597	0.867765	0.428552	-0.251650
58600	9.414842	0.391440	-2.420190	-0.001331	0.006562	0.000606	0.206840	0.148925	0.966974	0.451863	-0.891163	0.040594	0.867777	0.428543	-0.251622
58601	9.428166	0.404530	-2.471163	0.001325	0.000463	0.000658	0.206871	0.148934	0.966966	0.451870	-0.891160	0.040586	0.867766	0.428547	-0.251654
58602	9.398080	0.408261	-2.454609	0.000661	0.001988	0.000645	0.206889	0.148935	0.966962	0.451873	-0.891159	0.040578	0.867760	0.428549	-0.251671
58603	9.416029	0.391669	-2.453966	-0.003317	0.004111	-0.000697	0.206883	0.148938	0.966963	0.451848	-0.891171	0.040590	0.867775	0.428523	-0.251665
58604	9.397260	0.407952	-2.419422	0.001322	0.003976	0.001291	0.206887	0.148925	0.966964	0.451856	-0.891168	0.040574	0.867770	0.428534	-0.251663
58605	9.433103	0.374593	-2.418369	-0.000003	0.003513	0.000632	0.206892	0.148919	0.966964	0.451853	-0.891170	0.040568	0.867770	0.428532	-0.251665
58606	9.369337	0.412358	-2.471231	-0.000212	0.005514	-0.000912	0.206872	0.148920	0.966968	0.451852	-0.891170	0.040577	0.867775	0.428532	-0.251648
58607	9.405199	0.379187	-2.470079	0.000452	0.003989	-0.000899	0.206866	0.148928	0.966968	0.451853	-0.891169	0.040587	0.867776	0.428531	-0.251646
58608	9.434425	0.375094	-2.451598	-0.001992	0.004575	-0.000040	0.206859	0.148924	0.966970	0.451834	-0.891178	0.040592	0.867787	0.428513	-0.251637
58609	9.387530	0.395873	-2.469644	-0.000003	0.003513	0.000632	0.206865	0.148919	0.966970	0.451832	-0.891179	0.040586	0.867787	0.428512	-0.251640
58610	9.445848	0.387626	-2.433190	0.001571	0.002940	-0.002417	0.206861	0.148943	0.966967	0.451849	-0.891170	0.040605	0.867779	0.428523	-0.251648
58611	9.386719	0.395782	-2.434354	-0.004646	0.007161	-0.000725	0.206827	0.148936	0.966975	0.451807	-0.891190	0.040626	0.867810	0.428483	-0.251612
58612	9.404693	0.379153	-2.433613	0.002650	0.000927	0.001317	0.206857	0.148935	0.966969	0.451826	-0.891182	0.040607	0.867793	0.428501	-0.251640
58613	9.429274	0.404659	-2.466911	-0.000668	0.005038	0.000619	0.206848	0.148922	0.966973	0.451820	-0.891185	0.040600	0.867798	0.428499	-0.251626
58614	9.404860	0.379045	-2.432985	0.001116	0.002464	-0.000886	0.206855	0.148935	0.966969	0.451830	-0.891179	0.040606	0.867791	0.428506	-0.251639
58615	9.417186	0.391854	-2.449492	-0.000003	0.003513	0.000632	0.206862	0.148930	0.966968	0.451828	-0.891181	0.040599	0.867790	0.428505	-0.251642
58616	9.380505	0.424687	-2.415411	-0.001784	0.002574	0.001504	0.206879	0.148921	0.966966	0.451808	-0.891192	0.040589	0.867797	0.428486	-0.251653
58617	9.405095	0.379019	-2.432083	0.000907	0.004465	-0.002430	0.206861	0.148938	0.966967	0.451821	-0.891184	0.040609	0.867794	0.428496	-0.251644
58618	9.428666	0.404364	-2.430843	0.000661	0.001988	0.000645	0.206879	0.148940	0.966963	0.451824	-0.891183	0.040601	0.867788	0.428498	-0.251661
58619	9.428745	0.404316	-2.430545	0.001777	0.004453	-0.000240	0.206872	0.148940	0.966965	0.451835	-0.891177	0.040601	0.867784	0.428510	-0.251656
58620	9.406367	0.379438	-2.465589	-0.003318	0.004112	-0.000699	0.206866	0.148944	0.966966	0.451807	-0.891191	0.040616	0.867800	0.428479	-0.251651
58621	9.417716	0.391895	-2.447446	-0.001123	0.004562	0.002149	0.206867	0.148921	0.966969	0.451790	-0.891200	0.040599	0.867808	0.428469	-0.251641
58622	9.399930	0.408461	-2.447478	0.001116	0.002465	-0.000886	0.206874	0.148934	0.966965	0.451801	-0.891194	0.040605	0.867801	0.428476	-0.251653
58623	9.388746	0.395981	-2.465000	0.000661	0.001988	0.000645	0.206891	0.148935	0.966962	0.451805	-0.891193	0.040596	0.867795	0.428479	-0.251669
58624	9.429195	0.404255	-2.428810	0.001113	0.005978	-0.000254	0.206870	0.148927	0.966967	0.451814	-0.891188	0.040596	0.867795	0.428491	-0.251648
58625	9.400199	0.408379	-2.446458	-0.000004	0.003514	0.000632	0.206875	0.148922	0.966967	0.451811	-0.891190	0.040590	0.867796	0.428490	-0.251649
58626	9.418164	0.391941	-2.445716	0.000038	0.004478	-0.004620	0.206848	0.148959	0.966967	0.451820	-0.891183	0.040634	0.867798	0.428490	-0.251642
58627	9.400369	0.408518	-2.445785	0.002399	0.001963	0.005025	0.206885	0.148920	0.966965	0.451831	-0.891180	0.040578	0.867783	0.428510	-0.251659
58628	9.430590	0.404577	-2.461889	-0.002862	0.004588	-0.002231	0.206868	0.148936	0.966966	0.451809	-0.891190	0.040607	0.867798	0.428484	-0.251649
58629	9.418416	0.391887	-2.444754	0.002441	0.002928	-0.000227	0.206875	0.148941	0.966964	0.451829	-0.891180	0.040602	0.867786	0.428503	-0.251659
58630	9.406245	0.379083	-2.427621	-0.001993	0.004575	-0.000041	0.206868	0.148938	0.966966	0.451811	-0.891189	0.040608	0.867798	0.428485	-0.251650
58631	9.430863	0.404749	-2.460815	-0.001329	0.003050	-0.000027	0.206874	0.148940	0.966964	0.451798	-0.891195	0.040611	0.867803	0.428471	-0.251656
58632	9.429916	0.404462	-2.425972	0.000452	0.003990	-0.000899	0.206867	0.148947	0.966965	0.451803	-0.891193	0.040619	0.867802	0.428475	-0.251653
58633	9.418753	0.392104	-2.443421	-0.000209	0.002001	-0.001545	0.206875	0.148966	0.966960	0.451805	-0.891191	0.040632	0.867799	0.428472	-0.251668
58634	9.401958	0.409107	-2.478114	0.000660	0.001989	0.000645	0.206893	0.148967	0.966956	0.451808	-0.891190	0.040624	0.867793	0.428474	-0.251685
58635	9.418865	0.392187	-2.442973	-0.000873	0.003527	-0.001558	0.206887	0.148982	0.966955	0.451801	-0.891192	0.040643	0.867798	0.428463	-0.251687
58636	9.401075	0.408866	-2.443012	-0.000004	0.003514	0.000631	0.206892	0.148977	0.966955	0.451799	-0.891194	0.040637	0.867798	0.428462	-0.251689
58637	9.431325	0.405069	-2.458991	-0.000212	0.005515	-0.000913	0.206872	0.148977	0.966959	0.451798	-0.891194	0.040646	0.867804	0.428461	-0.251670
58638	9.413551	0.421720	-2.458971	0.002441	0.002928	-0.000227	0.206878	0.148982	0.966957	0.451818	-0.891184	0.040642	0.867791	0.428481	-0.251679
58639	9.408027	0.379706	-2.459204	-0.001124	0.004563	0.002148	0.206880	0.148960	0.966960	0.451800	-0.891194	0.040626	0.867800	0.428468	-0.251670
58640	9.419365	0.392193	-2.441045	0.000908	0.004466	-0.002430	0.206862	0.148978	0.966961	0.451812	-0.891187	0.040647	0.867798	0.428476	-0.251663
58641	9.419416	0.392116	-2.440861	0.000413	-0.000489	0.003721	0.206917	0.148964	0.966952	0.451804	-0.891192	0.040612	0.867789	0.428469	-0.251705
58642	9.401648	0.408691	-2.440833	-0.001085	0.009042	-0.002472	0.206860	0.148962	0.966964	0.451798	-0.891194	0.040638	0.867806	0.428466	-0.251653
58643	9.419657	0.392013	-2.439947	-0.002697	0.001622	0.004564	0.206898	0.148931	0.966961	0.451763	-0.891213	0.040601	0.867815	0.428437	-0.251672
58644	9.407450	0.379001	-2.422958	0.002441	0.002928	-0.000226	0.206904	0.148936	0.966959	0.451784	-0.891203	0.040597	0.867803	0.428456	-0.251681
58645	9.401936	0.408408	-2.439771	0.001777	0.004454	-0.000241	0.206897	0.148934	0.966960	0.451798	-0.891196	0.040595	0.867797	0.428472	-0.251674
58646	9.408687	0.379338	-2.456735	0.000452	0.003990	-0.000900	0.206891	0.148941	0.966961	0.451803	-0.891193	0.040603	0.867796	0.428475	-0.251671
58647	9.389855	0.395631	-2.422254	-0.000004	0.003514	0.000631	0.206894	0.148936	0.966961	0.451800	-0.891195	0.040598	0.867797	0.428473	-0.251672
58648	9.402209	0.408430	-2.438715	-0.001329	0.003051	-0.000028	0.206899	0.148939	0.966959	0.451787	-0.891202	0.040601	0.867803	0.428459	-0.251678
58649	9.420133	0.391907	-2.438126	0.002237	0.001416	-0.002402	0.206908	0.148969	0.966953	0.451810	-0.891189	0.040619	0.867788	0.428475	-0.251700
58650	9.391084	0.396099	-2.456057	-0.001785	0.002575	0.001502	0.206925	0.148960	0.966950	0.451790	-0.891199	0.040609	0.867795	0.428456	-0.251710
58651	9.431489	0.404572	-2.419833	-0.002405	0.005065	-0.003763	0.206893	0.148987	0.966953	0.451777	-0.891204	0.040652	0.867809	0.428436	-0.251693
58652	9.420392	0.392240	-2.437070	0.000656	0.005503	0.001276	0.206884	0.148968	0.966958	0.451778	-0.891204	0.040638	0.867811	0.428443	-0.251676
58653	9.421547	0.392541	-2.471207	0.001116	0.002465	-0.000886	0.206892	0.148982	0.966954	0.451787	-0.891200	0.040645	0.867804	0.428448	-0.251690
58654	9.390393	0.396004	-2.420106	0.000660	0.001989	0.000645	0.206910	0.148983	0.966950	0.451790	-0.891198	0.040637	0.867798	0.428450	-0.251707
58655	9.402732	0.408794	-2.436637	-0.001329	0.003051	-0.000029	0.206861	0.148956	0.966965	0.452089	-0.891051	0.040548	0.867655	0.428766	-0.251665
58656	9.409463	0.379734	-2.453700	-0.001329	0.003051	-0.000029	0.206867	0.148959	0.966963	0.452076	-0.891057	0.040551	0.867660	0.428752	-0.251671
58657	9.403967	0.409197	-2.470461	0.003557	0.005394	-0.001112	0.206846	0.148960	0.966967	0.452110	-0.891040	0.040552	0.867647	0.428788	-0.251654
58658	9.420907	0.392219	-2.435081	-0.000669	0.005040	0.000616	0.206837	0.148949	0.966971	0.452102	-0.891044	0.040547	0.867653	0.428783	-0.251641
58659	9.422068	0.392489	-2.469226	-0.001785	0.002575	0.001502	0.206851	0.148939	0.966969	0.452083	-0.891054	0.040538	0.867660	0.428765	-0.251649
58660	9.421078	0.392184	-2.434425	-0.000872	0.003527	-0.001560	0.206846	0.148953	0.966968	0.452077	-0.891056	0.040555	0.867664	0.428756	-0.251650
58661	9.403304	0.408806	-2.434428	-0.001125	0.004564	0.002147	0.206849	0.148930	0.966971	0.452063	-0.891064	0.040536	0.867671	0.428747	-0.251641
58662	9.434621	0.405198	-2.484972	-0.001785	0.002575	0.001502	0.206865	0.148921	0.966969	0.452043	-0.891075	0.040526	0.867677	0.428729	-0.251651
58663	9.410153	0.379438	-2.451099	-0.001125	0.004564	0.002147	0.206868	0.148898	0.966972	0.452030	-0.891082	0.040507	0.867683	0.428721	-0.251642
58664	9.433767	0.404725	-2.449662	-0.001537	0.005053	-0.001574	0.206849	0.148905	0.966975	0.452019	-0.891087	0.040526	0.867694	0.428708	-0.251629
58665	9.433889	0.404827	-2.449173	0.003557	0.005394	-0.001112	0.206827	0.148907	0.966979	0.452050	-0.891072	0.040530	0.867683	0.428740	-0.251611
58666	9.421704	0.391975	-2.432038	-0.001785	0.002575	0.001502	0.206844	0.148899	0.966977	0.452030	-0.891082	0.040519	0.867689	0.428722	-0.251621
58667	9.392760	0.396213	-2.449622	-0.001085	0.009044	-0.002475	0.206786	0.148897	0.966990	0.452026	-0.891083	0.040545	0.867705	0.428720	-0.251568
58668	9.409681	0.379382	-2.414222	-0.000664	0.001526	-0.000015	0.206805	0.148906	0.966984	0.452019	-0.891086	0.040547	0.867704	0.428710	-0.251589
58669	9.405233	0.409142	-2.465646	-0.000005	0.003515	0.000630	0.206809	0.148901	0.966984	0.452015	-0.891088	0.040541	0.867705	0.428707	-0.251590
58670	9.422127	0.392134	-2.430372	0.001776	0.004455	-0.000240	0.206801	0.148899	0.966986	0.452030	-0.891081	0.040539	0.867699	0.428723	-0.251584
58671	9.393144	0.396250	-2.448143	-0.000005	0.003515	0.000630	0.206808	0.148895	0.966985	0.452025	-0.891084	0.040534	0.867700	0.428719	-0.251587
58672	9.411105	0.379745	-2.447393	-0.000415	0.004004	-0.003091	0.206791	0.148921	0.966985	0.452027	-0.891082	0.040565	0.867703	0.428715	-0.251584
58673	9.417910	0.422021	-2.480916	0.002644	0.004442	0.001950	0.206793	0.148900	0.966988	0.452043	-0.891074	0.040541	0.867695	0.428737	-0.251577
58674	9.410228	0.379379	-2.412088	-0.003318	0.004114	-0.000704	0.206786	0.148905	0.966989	0.452015	-0.891088	0.040556	0.867711	0.428707	-0.251572
58675	9.393514	0.396382	-2.446702	0.000660	0.001989	0.000645	0.206804	0.148905	0.966985	0.452019	-0.891086	0.040546	0.867704	0.428711	-0.251588
58676	9.422657	0.392272	-2.428294	-0.000872	0.003528	-0.001560	0.206799	0.148919	0.966984	0.452014	-0.891088	0.040563	0.867708	0.428702	-0.251590
58677	9.404859	0.408999	-2.428379	-0.001329	0.003051	-0.000030	0.206803	0.148922	0.966982	0.452000	-0.891095	0.040568	0.867715	0.428686	-0.251593
58678	9.423914	0.392724	-2.462135	0.001776	0.004455	-0.000240	0.206795	0.148920	0.966984	0.452015	-0.891088	0.040566	0.867709	0.428702	-0.251587
58679	9.382645	0.384027	-2.463157	-0.000005	0.003515	0.000630	0.206798	0.148915	0.966984	0.452013	-0.891089	0.040560	0.867709	0.428702	-0.251587
58680	9.435338	0.405075	-2.443547	0.002436	0.006444	0.000404	0.206777	0.148899	0.966991	0.452032	-0.891080	0.040550	0.867704	0.428726	-0.251562
58681	9.411954	0.379809	-2.444117	-0.002653	0.002588	-0.000690	0.206782	0.148910	0.966989	0.452010	-0.891090	0.040564	0.867715	0.428700	-0.251570
58682	9.435523	0.405156	-2.442819	0.004222	0.003869	-0.001096	0.206776	0.148918	0.966989	0.452048	-0.891071	0.040563	0.867696	0.428737	-0.251570
58683	9.412115	0.379958	-2.443474	-0.000872	0.003528	-0.001561	0.206770	0.148932	0.966988	0.452043	-0.891073	0.040580	0.867700	0.428729	-0.251571
58684	9.412195	0.380126	-2.443139	-0.000872	0.003528	-0.001561	0.206765	0.148946	0.966987	0.452038	-0.891075	0.040597	0.867704	0.428720	-0.251572
58685	9.424575	0.392993	-2.459560	-0.000005	0.003515	0.000630	0.206767	0.148940	0.966987	0.452034	-0.891076	0.040591	0.867705	0.428719	-0.251571
58686	9.423566	0.392658	-2.424699	0.000452	0.003992	-0.000901	0.206760	0.148947	0.966988	0.452039	-0.891074	0.040599	0.867704	0.428722	-0.251568
58687	9.437030	0.405858	-2.475700	-0.000665	0.001526	-0.000015	0.206777	0.148955	0.966983	0.452033	-0.891077	0.040601	0.867704	0.428713	-0.251587
58688	9.412510	0.380449	-2.441877	-0.002403	0.005067	-0.003767	0.206749	0.148983	0.966985	0.452019	-0.891082	0.040643	0.867718	0.428692	-0.251573
58689	9.408149	0.410311	-2.493096	0.002643	0.004443	0.001950	0.206753	0.148963	0.966987	0.452036	-0.891074	0.040618	0.867708	0.428715	-0.251569
58690	9.423921	0.392735	-2.423307	0.000861	0.003503	0.002821	0.206768	0.148938	0.966987	0.452037	-0.891075	0.040588	0.867704	0.428721	-0.251571
58691	9.401630	0.367867	-2.458444	0.000043	0.004481	-0.004622	0.206739	0.148974	0.966988	0.452048	-0.891068	0.040632	0.867705	0.428724	-0.251562
58692	9.383820	0.384717	-2.458570	-0.000665	0.001526	-0.000015	0.206758	0.148983	0.966982	0.452041	-0.891071	0.040633	0.867704	0.428714	-0.251583
58693	9.418565	0.422451	-2.439570	-0.000005	0.003515	0.000630	0.206762	0.148978	0.966982	0.452039	-0.891072	0.040626	0.867704	0.428714	-0.251584
58694	9.413044	0.380437	-2.439816	0.001318	0.003979	0.001290	0.206766	0.148965	0.966984	0.452047	-0.891069	0.040611	0.867699	0.428725	-0.251582
58695	9.424307	0.392906	-2.421779	-0.000207	0.002002	-0.001546	0.206772	0.148985	0.966979	0.452048	-0.891068	0.040626	0.867697	0.428721	-0.251596
58696	9.406492	0.409690	-2.421928	-0.000872	0.003528	-0.001561	0.206767	0.148999	0.966978	0.452042	-0.891070	0.040643	0.867701	0.428712	-0.251597
58697	9.425556	0.393472	-2.455723	0.002440	0.002930	-0.000225	0.206771	0.149003	0.966977	0.452063	-0.891060	0.040639	0.867689	0.428732	-0.251604
58698	9.407788	0.410046	-2.455731	-0.003116	0.005627	0.001469	0.206761	0.148981	0.966982	0.452032	-0.891076	0.040633	0.867708	0.428706	-0.251584
58699	9.424608	0.392993	-2.420594	0.001988	-0.001062	0.000676	0.206804	0.148995	0.966971	0.452048	-0.891068	0.040621	0.867689	0.428717	-0.251629
58700	9.407914	0.410005	-2.455254	-0.002201	0.006580	-0.001592	0.206772	0.148996	0.966978	0.452031	-0.891076	0.040642	0.867706	0.428701	-0.251600
58701	9.425914	0.393520	-2.454338	0.000452	0.003992	-0.000901	0.206766	0.149004	0.966978	0.452035	-0.891073	0.040650	0.867705	0.428703	-0.251599
58702	9.395847	0.397413	-2.437559	-0.000213	0.005518	-0.000917	0.206747	0.149004	0.966982	0.452034	-0.891074	0.040659	0.867710	0.428703	-0.251581
58703	9.401522	0.368106	-2.419970	-0.000872	0.003528	-0.001562	0.206739	0.149016	0.966981	0.452032	-0.891074	0.040675	0.867713	0.428697	-0.251580
58704	9.408329	0.410534	-2.453575	0.001574	0.002943	-0.002416	0.206735	0.149041	0.966979	0.452049	-0.891064	0.040694	0.867705	0.428709	-0.251588
58705	9.425171	0.393540	-2.418312	0.002642	0.004443	0.001950	0.206736	0.149019	0.966982	0.452069	-0.891056	0.040668	0.867695	0.428735	-0.251580
58706	9.414064	0.381133	-2.435772	-0.001073	0.002015	-0.003737	0.206734	0.149059	0.966976	0.452066	-0.891055	0.040707	0.867697	0.428722	-0.251596
58707	9.426436	0.393992	-2.452257	0.000860	0.003503	0.002820	0.206749	0.149035	0.966977	0.452067	-0.891056	0.040677	0.867693	0.428728	-0.251598
58708	9.396355	0.397648	-2.435562	0.001776	0.004456	-0.000241	0.206741	0.149033	0.966978	0.452081	-0.891049	0.040675	0.867687	0.428744	-0.251592
58709	9.426637	0.393798	-2.451515	-0.000006	0.003516	0.000629	0.206745	0.149028	0.966978	0.452078	-0.891051	0.040670	0.867687	0.428742	-0.251593
58710	9.396534	0.397597	-2.434880	-0.001330	0.003052	-0.000031	0.206751	0.149031	0.966977	0.452066	-0.891057	0.040673	0.867693	0.428728	-0.251599
58711	9.415616	0.381379	-2.468664	0.002898	0.003407	-0.001756	0.206743	0.149047	0.966976	0.452094	-0.891042	0.040683	0.867680	0.428753	-0.251601
58712	9.426863	0.393964	-2.450619	-0.002653	0.002588	-0.000692	0.206750	0.149058	0.966973	0.452072	-0.891053	0.040697	0.867690	0.428727	-0.251610
58713	9.443695	0.376942	-2.415358	0.002641	0.004444	0.001950	0.206752	0.149037	0.966976	0.452091	-0.891044	0.040671	0.867680	0.428752	-0.251603
58714	9.415868	0.381259	-2.467722	-0.001787	0.002576	0.001499	0.206769	0.149028	0.966973	0.452071	-0.891055	0.040661	0.867686	0.428733	-0.251613
58715	9.428261	0.394241	-2.484129	0.000044	0.004482	-0.004623	0.206741	0.149064	0.966974	0.452080	-0.891048	0.040704	0.867687	0.428735	-0.251605
58716	9.408192	0.410351	-2.415205	-0.001788	0.002576	0.001499	0.206758	0.149055	0.966971	0.452061	-0.891058	0.040694	0.867694	0.428716	-0.251615
58717	9.421742	0.423502	-2.466067	-0.000213	0.005519	-0.000917	0.206739	0.149055	0.966976	0.452060	-0.891058	0.040703	0.867698	0.428717	-0.251598
58718	9.416246	0.381496	-2.466243	0.000859	0.003503	0.002820	0.206753	0.149031	0.966976	0.452061	-0.891059	0.040673	0.867695	0.428723	-0.251600
58719	9.398452	0.398107	-2.466358	-0.002195	0.003065	-0.002223	0.206750	0.149052	0.966974	0.452047	-0.891065	0.040699	0.867703	0.428703	-0.251606
58720	9.433121	0.364614	-2.430757	0.000659	0.001990	0.000645	0.206768	0.149053	0.966969	0.452050	-0.891064	0.040690	0.867697	0.428705	-0.251623
58721	9.408630	0.410302	-2.413505	0.003557	0.005397	-0.001111	0.206744	0.149053	0.966975	0.452086	-0.891046	0.040691	0.867684	0.428743	-0.251604
58722	9.427748	0.393980	-2.447211	-0.001788	0.002576	0.001499	0.206761	0.149044	0.966972	0.452066	-0.891056	0.040681	0.867690	0.428725	-0.251614
58723	9.427845	0.393911	-2.446847	-0.000671	0.005043	0.000613	0.206753	0.149033	0.966976	0.452056	-0.891062	0.040677	0.867697	0.428717	-0.251601
58724	9.404470	0.368708	-2.447430	0.000910	0.004469	-0.002432	0.206735	0.149051	0.966977	0.452068	-0.891055	0.040698	0.867695	0.428725	-0.251594
58725	9.439243	0.406616	-2.428161	-0.000213	0.005519	-0.000918	0.206716	0.149052	0.966981	0.452067	-0.891055	0.040708	0.867700	0.428725	-0.251576
58726	9.387952	0.385828	-2.481547	0.000659	0.001990	0.000645	0.206734	0.149053	0.966977	0.452070	-0.891053	0.040700	0.867694	0.428727	-0.251593
58727	9.428259	0.394224	-2.445202	0.000245	0.005996	-0.002448	0.206702	0.149065	0.966982	0.452075	-0.891050	0.040724	0.867700	0.428730	-0.251570
58728	9.399322	0.398504	-2.462977	-0.001330	0.003053	-0.000032	0.206708	0.149067	0.966980	0.452062	-0.891056	0.040728	0.867705	0.428716	-0.251576
58729	9.398263	0.398273	-2.428084	-0.001536	0.005055	-0.001579	0.206688	0.149075	0.966983	0.452053	-0.891060	0.040746	0.867714	0.428706	-0.251561
58730	9.387173	0.385865	-2.445555	0.003105	0.001404	-0.000209	0.206707	0.149086	0.966978	0.452080	-0.891047	0.040740	0.867696	0.428730	-0.251584
58731	9.428541	0.394446	-2.444078	0.001988	-0.001062	0.000677	0.206751	0.149100	0.966966	0.452095	-0.891040	0.040729	0.867678	0.428739	-0.251631
58732	9.410718	0.411058	-2.444307	-0.000213	0.005519	-0.000918	0.206731	0.149100	0.966970	0.452094	-0.891040	0.040738	0.867683	0.428739	-0.251613
58733	9.398506	0.398261	-2.427147	-0.000007	0.003517	0.000629	0.206736	0.149095	0.966970	0.452093	-0.891040	0.040731	0.867682	0.428740	-0.251615
58734	9.405292	0.369164	-2.444203	0.001117	0.002467	-0.000886	0.206743	0.149108	0.966967	0.452103	-0.891035	0.040736	0.867675	0.428747	-0.251627
58735	9.428857	0.394402	-2.442866	0.001317	0.003981	0.001290	0.206748	0.149095	0.966968	0.452112	-0.891031	0.040720	0.867669	0.428759	-0.251626
58736	9.386427	0.385471	-2.409463	-0.000413	0.004006	-0.003094	0.206731	0.149121	0.966967	0.452114	-0.891029	0.040751	0.867672	0.428754	-0.251623
58737	9.441385	0.407306	-2.458797	0.000193	0.005030	0.002804	0.206732	0.149090	0.966972	0.452108	-0.891033	0.040724	0.867675	0.428756	-0.251610
58738	9.369928	0.402182	-2.443618	0.003305	0.002918	0.001967	0.206748	0.149075	0.966970	0.452131	-0.891023	0.040696	0.867659	0.428784	-0.251619
58739	9.447123	0.377554	-2.440956	-0.000871	0.003529	-0.001563	0.206743	0.149090	0.966969	0.452125	-0.891025	0.040714	0.867664	0.428773	-0.251621
58740	9.410295	0.410684	-2.406943	-0.002860	0.004592	-0.002241	0.206725	0.149106	0.966971	0.452103	-0.891035	0.040743	0.867679	0.428748	-0.251611
58741	9.411576	0.411142	-2.440988	-0.000672	0.005043	0.000612	0.206716	0.149094	0.966974	0.452094	-0.891039	0.040739	0.867686	0.428742	-0.251596
58742	9.399381	0.398241	-2.423762	0.000651	0.005507	0.001273	0.206706	0.149075	0.966980	0.452096	-0.891039	0.040725	0.867687	0.428750	-0.251579
58743	9.411816	0.411004	-2.440087	-0.001330	0.003053	-0.000033	0.206709	0.149077	0.966979	0.452084	-0.891045	0.040729	0.867693	0.428737	-0.251582
58744	9.411867	0.411144	-2.439865	-0.001530	0.001539	-0.002208	0.206718	0.149105	0.966972	0.452075	-0.891049	0.040754	0.867696	0.428719	-0.251603
58745	9.411977	0.411161	-2.439439	0.001309	0.007498	0.001918	0.206696	0.149072	0.966982	0.452081	-0.891047	0.040732	0.867698	0.428735	-0.251568
58746	9.417629	0.381459	-2.421899	0.002188	0.000451	0.002853	0.206737	0.149060	0.966975	0.452093	-0.891042	0.040699	0.867682	0.428748	-0.251600
58747	9.399840	0.398022	-2.422014	-0.002201	0.006583	-0.001597	0.206704	0.149061	0.966982	0.452077	-0.891049	0.040719	0.867698	0.428733	-0.251571
58748	9.430179	0.394304	-2.437774	0.001775	0.004458	-0.000241	0.206697	0.149060	0.966984	0.452092	-0.891042	0.040717	0.867692	0.428749	-0.251564
58749	9.394524	0.427508	-2.438297	-0.000007	0.003517	0.000628	0.206699	0.149055	0.966984	0.452090	-0.891043	0.040711	0.867692	0.428749	-0.251564
58750	9.418053	0.381468	-2.420249	-0.000213	0.005520	-0.000919	0.206680	0.149055	0.966988	0.452089	-0.891043	0.040721	0.867697	0.428749	-0.251546
58751	9.412620	0.410919	-2.436998	-0.000007	0.003517	0.000628	0.206685	0.149050	0.966988	0.452086	-0.891044	0.040714	0.867698	0.428747	-0.251549
58752	9.401538	0.398558	-2.454496	0.000253	0.002480	-0.003078	0.206682	0.149082	0.966983	0.452094	-0.891039	0.040743	0.867694	0.428746	-0.251561
58753	9.419492	0.382038	-2.453731	-0.002454	0.004103	0.001480	0.206684	0.149066	0.966985	0.452067	-0.891053	0.040736	0.867708	0.428723	-0.251555
58754	9.400516	0.398015	-2.419392	0.002386	0.001965	0.005028	0.206722	0.149029	0.966983	0.452077	-0.891051	0.040681	0.867694	0.428741	-0.251572
58755	9.412926	0.410646	-2.435860	-0.000871	0.003530	-0.001564	0.206717	0.149043	0.966982	0.452072	-0.891052	0.040698	0.867697	0.428733	-0.251574
58756	9.400666	0.397936	-2.418823	-0.001330	0.003053	-0.000034	0.206723	0.149046	0.966980	0.452060	-0.891059	0.040701	0.867703	0.428719	-0.251579
58757	9.419812	0.381642	-2.452563	-0.000007	0.003517	0.000628	0.206726	0.149039	0.966981	0.452060	-0.891059	0.040693	0.867701	0.428721	-0.251580
58758	9.419904	0.381649	-2.452210	0.000452	0.003994	-0.000903	0.206720	0.149045	0.966981	0.452065	-0.891056	0.040701	0.867700	0.428725	-0.251577
58759	9.390954	0.385797	-2.470167	0.000658	0.001991	0.000645	0.206740	0.149047	0.966976	0.452067	-0.891055	0.040692	0.867694	0.428726	-0.251596
58760	9.414525	0.411138	-2.468773	-0.001536	0.005057	-0.001581	0.206722	0.149055	0.966979	0.452056	-0.891060	0.040711	0.867705	0.428713	-0.251582
58761	9.389925	0.385463	-2.435032	0.003969	0.001392	0.001985	0.206752	0.149047	0.966974	0.452085	-0.891047	0.040682	0.867682	0.428744	-0.251608
58762	9.432589	0.394416	-2.467614	-0.004648	0.007169	-0.000746	0.206719	0.149039	0.966982	0.452045	-0.891066	0.040701	0.867711	0.428706	-0.251573
58763	9.390165	0.385362	-2.434120	0.000857	0.003505	0.002820	0.206733	0.149013	0.966983	0.452048	-0.891066	0.040670	0.867706	0.428715	-0.251574
58764	9.443946	0.406723	-2.449041	0.001117	0.002467	-0.000886	0.206740	0.149026	0.966980	0.452058	-0.891060	0.040676	0.867699	0.428722	-0.251586
58765	9.397024	0.356255	-2.450962	-0.000206	0.002003	-0.001547	0.206747	0.149047	0.966975	0.452060	-0.891059	0.040691	0.867697	0.428718	-0.251602
58766	9.390345	0.385340	-2.433430	0.001981	0.002455	0.001306	0.206764	0.149040	0.966972	0.452073	-0.891053	0.040673	0.867686	0.428733	-0.251615
58767	9.442946	0.406437	-2.413747	-0.000213	0.005521	-0.000920	0.206743	0.149040	0.966977	0.452072	-0.891053	0.040684	0.867691	0.428732	-0.251596
58768	9.402871	0.398168	-2.449444	-0.000665	0.001527	-0.000017	0.206762	0.149049	0.966971	0.452065	-0.891057	0.040685	0.867690	0.428722	-0.251617
58769	9.426434	0.423556	-2.448062	-0.001536	0.005057	-0.001582	0.206742	0.149058	0.966974	0.452052	-0.891062	0.040706	0.867702	0.428707	-0.251603
58770	9.420938	0.381730	-2.448222	0.001775	0.004458	-0.000241	0.206735	0.149057	0.966976	0.452067	-0.891055	0.040704	0.867696	0.428723	-0.251596
58771	9.385294	0.414954	-2.448733	0.001775	0.004459	-0.000241	0.206728	0.149056	0.966978	0.452082	-0.891047	0.040702	0.867690	0.428739	-0.251589
58772	9.432294	0.394200	-2.429595	-0.001995	0.004580	-0.000052	0.206720	0.149052	0.966980	0.452064	-0.891056	0.040707	0.867701	0.428722	-0.251580
58773	9.402170	0.398006	-2.412957	-0.000007	0.003518	0.000627	0.206722	0.149047	0.966980	0.452060	-0.891058	0.040703	0.867702	0.428719	-0.251580
58774	9.433679	0.394572	-2.463420	-0.002653	0.002590	-0.000696	0.206729	0.149058	0.966977	0.452037	-0.891069	0.040716	0.867713	0.428693	-0.251590
58775	9.391188	0.385557	-2.430142	0.001315	0.003982	0.001289	0.206732	0.149044	0.966979	0.452048	-0.891065	0.040699	0.867706	0.428707	-0.251587
58776	9.403619	0.398387	-2.446537	0.001577	0.002944	-0.002416	0.206728	0.149068	0.966976	0.452066	-0.891055	0.040718	0.867698	0.428719	-0.251595
58777	9.414815	0.411020	-2.428485	-0.002653	0.002590	-0.000697	0.206737	0.149078	0.966972	0.452045	-0.891065	0.040729	0.867707	0.428695	-0.251606
58778	9.391415	0.385788	-2.429228	0.001775	0.004459	-0.000241	0.206729	0.149077	0.966974	0.452060	-0.891057	0.040727	0.867701	0.428711	-0.251599
58779	9.445233	0.407247	-2.443985	0.001775	0.004459	-0.000241	0.206723	0.149076	0.966976	0.452076	-0.891049	0.040725	0.867694	0.428728	-0.251594
58780	9.374941	0.402614	-2.463511	0.000198	0.001514	0.002175	0.206752	0.149066	0.966971	0.452072	-0.891052	0.040703	0.867689	0.428726	-0.251615
58781	9.404038	0.398407	-2.444921	-0.000213	0.005522	-0.000921	0.206731	0.149065	0.966976	0.452073	-0.891052	0.040712	0.867694	0.428727	-0.251596
58782	9.433156	0.394276	-2.426235	-0.000008	0.003518	0.000627	0.206736	0.149060	0.966975	0.452070	-0.891053	0.040706	0.867694	0.428725	-0.251598
58783	9.393124	0.385900	-2.461884	-0.000673	0.005045	0.000610	0.206724	0.149047	0.966980	0.452063	-0.891057	0.040701	0.867700	0.428722	-0.251582
58784	9.404358	0.398221	-2.443723	0.003303	0.002919	0.001969	0.206740	0.149032	0.966979	0.452087	-0.891046	0.040673	0.867684	0.428749	-0.251591
58785	9.440184	0.365042	-2.442478	-0.001733	0.003543	-0.003758	0.206725	0.149066	0.966977	0.452080	-0.891048	0.040713	0.867691	0.428735	-0.251592
58786	9.404509	0.398350	-2.443121	0.003303	0.002920	0.001969	0.206741	0.149052	0.966975	0.452104	-0.891037	0.040686	0.867675	0.428762	-0.251601
58787	9.404611	0.398197	-2.442752	-0.000673	0.005045	0.000609	0.206732	0.149040	0.966979	0.452096	-0.891041	0.040681	0.867682	0.428757	-0.251587
58788	9.423841	0.381872	-2.476304	-0.000673	0.005045	0.000609	0.206723	0.149028	0.966983	0.452088	-0.891046	0.040677	0.867688	0.428752	-0.251574
58789	9.417201	0.410918	-2.458579	-0.000008	0.003518	0.000627	0.206725	0.149023	0.966983	0.452086	-0.891047	0.040672	0.867688	0.428752	-0.251573
58790	9.404923	0.398058	-2.441572	0.002440	0.002932	-0.000224	0.206731	0.149028	0.966981	0.452106	-0.891036	0.040668	0.867676	0.428771	-0.251581
58791	9.422871	0.381434	-2.440817	-0.001330	0.003054	-0.000035	0.206737	0.149031	0.966980	0.452092	-0.891044	0.040672	0.867683	0.428755	-0.251587
58792	9.417491	0.410846	-2.457483	0.001767	0.007978	0.000385	0.206701	0.149009	0.966991	0.452105	-0.891037	0.040664	0.867684	0.428776	-0.251546
58793	9.406496	0.398398	-2.474779	-0.002653	0.002590	-0.000698	0.206708	0.149019	0.966988	0.452083	-0.891048	0.040677	0.867694	0.428751	-0.251556
58794	9.423219	0.381493	-2.439464	0.001775	0.004459	-0.000241	0.206701	0.149018	0.966989	0.452098	-0.891040	0.040675	0.867688	0.428767	-0.251549
58795	9.416555	0.410530	-2.421815	-0.001790	0.002577	0.001495	0.206717	0.149009	0.966987	0.452080	-0.891050	0.040664	0.867694	0.428749	-0.251559
58796	9.407982	0.398664	-2.508360	0.002440	0.002932	-0.000223	0.206723	0.149013	0.966985	0.452100	-0.891040	0.040660	0.867681	0.428769	-0.251567
58797	9.434569	0.393802	-2.420810	0.002440	0.002932	-0.000224	0.206728	0.149018	0.966984	0.452123	-0.891029	0.040655	0.867668	0.428791	-0.251575
58798	9.364288	0.389351	-2.440361	-0.000870	0.003531	-0.001566	0.206722	0.149032	0.966983	0.452118	-0.891031	0.040672	0.867673	0.428782	-0.251576
58799	9.463723	0.389776	-2.401894	-0.000008	0.003519	0.000626	0.206724	0.149027	0.966983	0.452111	-0.891034	0.040669	0.867675	0.428777	-0.251575
58800	9.418166	0.410814	-2.454901	0.000657	0.001991	0.000644	0.206742	0.149029	0.966979	0.452115	-0.891033	0.040661	0.867669	0.428779	-0.251592
58801	9.412649	0.368733	-2.455183	0.000189	0.005033	0.002801	0.206744	0.148998	0.966983	0.452109	-0.891037	0.040634	0.867672	0.428780	-0.251580
58802	9.418404	0.410609	-2.454020	-0.002201	0.006586	-0.001602	0.206712	0.149000	0.966990	0.452092	-0.891044	0.040655	0.867688	0.428764	-0.251551
58803	9.393745	0.385023	-2.420322	-0.000460	-0.000477	0.001530	0.206753	0.149003	0.966980	0.452084	-0.891049	0.040641	0.867683	0.428754	-0.251589
58804	9.441922	0.364531	-2.435829	0.003557	0.005401	-0.001109	0.206734	0.149005	0.966984	0.452116	-0.891033	0.040643	0.867671	0.428787	-0.251574
58805	9.407532	0.398092	-2.470889	-0.000008	0.003519	0.000626	0.206737	0.149001	0.966984	0.452113	-0.891035	0.040638	0.867671	0.428785	-0.251575
58806	9.395244	0.385232	-2.453888	0.002440	0.002933	-0.000223	0.206743	0.149005	0.966982	0.452134	-0.891024	0.040634	0.867659	0.428804	-0.251583
58807	9.429964	0.423029	-2.434523	-0.000878	0.007050	-0.000940	0.206709	0.148998	0.966991	0.452129	-0.891026	0.040644	0.867670	0.428803	-0.251550
58808	9.405340	0.397377	-2.400675	0.001979	0.002456	0.001307	0.206726	0.148992	0.966988	0.452142	-0.891020	0.040626	0.867659	0.428817	-0.251563
58809	9.420291	0.410752	-2.486135	0.002440	0.002933	-0.000223	0.206730	0.148997	0.966986	0.452162	-0.891010	0.040623	0.867647	0.428836	-0.251569
58810	9.419110	0.410483	-2.451332	-0.000870	0.003531	-0.001567	0.206725	0.149011	0.966985	0.452157	-0.891012	0.040640	0.867652	0.428827	-0.251571
58811	9.449445	0.406611	-2.467209	0.000854	0.003506	0.002819	0.206738	0.148986	0.966986	0.452157	-0.891013	0.040611	0.867648	0.428834	-0.251571
58812	9.390336	0.414464	-2.468838	-0.002661	0.006109	-0.000073	0.206717	0.148976	0.966992	0.452133	-0.891025	0.040618	0.867666	0.428813	-0.251547
58813	9.424963	0.380966	-2.432799	-0.000213	0.005523	-0.000923	0.206699	0.148976	0.966996	0.452133	-0.891025	0.040627	0.867670	0.428813	-0.251531
58814	9.426358	0.381393	-2.466779	-0.000213	0.005523	-0.000923	0.206679	0.148976	0.967000	0.452132	-0.891025	0.040636	0.867675	0.428813	-0.251513
58815	9.378341	0.401958	-2.450642	-0.000870	0.003532	-0.001567	0.206674	0.148990	0.967000	0.452128	-0.891026	0.040652	0.867679	0.428806	-0.251514
58816	9.450060	0.406826	-2.464815	0.000648	0.005511	0.001270	0.206664	0.148970	0.967005	0.452130	-0.891026	0.040638	0.867680	0.428813	-0.251497
58817	9.384041	0.372549	-2.432674	-0.000205	0.002004	-0.001549	0.206673	0.148991	0.966999	0.452131	-0.891025	0.040653	0.867677	0.428809	-0.251514
58818	9.419971	0.410578	-2.448003	0.000853	0.003507	0.002819	0.206688	0.148967	0.967000	0.452132	-0.891026	0.040624	0.867673	0.428815	-0.251517
58819	9.425566	0.381076	-2.430446	-0.003318	0.004118	-0.000718	0.206681	0.148970	0.967001	0.452105	-0.891039	0.040638	0.867689	0.428787	-0.251511
58820	9.409048	0.398089	-2.465111	0.002440	0.002933	-0.000223	0.206687	0.148975	0.966999	0.452126	-0.891028	0.040634	0.867677	0.428806	-0.251520
58821	9.420233	0.410516	-2.447006	-0.000009	0.003519	0.000626	0.206690	0.148969	0.966999	0.452124	-0.891029	0.040627	0.867677	0.428806	-0.251519
58822	9.419029	0.410113	-2.412246	0.000657	0.001992	0.000644	0.206708	0.148970	0.966995	0.452127	-0.891028	0.040619	0.867671	0.428809	-0.251536
58823	9.427136	0.381330	-2.463817	-0.001331	0.003055	-0.000037	0.206713	0.148972	0.966994	0.452114	-0.891034	0.040622	0.867676	0.428795	-0.251541
58824	9.420445	0.410350	-2.446218	-0.000469	0.003042	0.002156	0.206729	0.148956	0.966993	0.452105	-0.891040	0.040602	0.867677	0.428789	-0.251547
58825	9.379201	0.401591	-2.447410	0.001109	0.005988	-0.000260	0.206708	0.148947	0.966999	0.452117	-0.891034	0.040600	0.867676	0.428804	-0.251525
58826	9.444060	0.364175	-2.427579	-0.000674	0.005047	0.000607	0.206699	0.148935	0.967002	0.452109	-0.891039	0.040596	0.867683	0.428799	-0.251512
58827	9.408410	0.397352	-2.428219	-0.001792	0.002578	0.001493	0.206715	0.148925	0.967001	0.452089	-0.891049	0.040585	0.867689	0.428781	-0.251520
58828	9.422147	0.410496	-2.479132	0.002901	0.003410	-0.001753	0.206710	0.148941	0.966999	0.452117	-0.891034	0.040595	0.867676	0.428806	-0.251524
58829	9.420910	0.410161	-2.444457	0.001322	0.000464	0.000663	0.206743	0.148949	0.966991	0.452129	-0.891029	0.040583	0.867662	0.428814	-0.251558
58830	9.397489	0.384856	-2.445337	-0.001996	0.004583	-0.000056	0.206735	0.148945	0.966993	0.452111	-0.891038	0.040589	0.867673	0.428797	-0.251549
58831	9.438941	0.393592	-2.443338	0.002901	0.003410	-0.001753	0.206729	0.148963	0.966992	0.452136	-0.891024	0.040600	0.867661	0.428819	-0.251552
58832	9.392180	0.414446	-2.461817	0.000452	0.003996	-0.000905	0.206723	0.148969	0.966992	0.452141	-0.891022	0.040607	0.867660	0.428823	-0.251549
58833	9.439117	0.393684	-2.442642	-0.000009	0.003520	0.000625	0.206728	0.148965	0.966992	0.452138	-0.891024	0.040602	0.867661	0.428820	-0.251552
58834	9.399162	0.385438	-2.478323	0.000248	0.006001	-0.002454	0.206698	0.148976	0.966996	0.452144	-0.891019	0.040625	0.867665	0.428825	-0.251530
58835	9.397975	0.385168	-2.443416	-0.001792	0.002578	0.001492	0.206713	0.148967	0.966995	0.452126	-0.891029	0.040614	0.867670	0.428808	-0.251539
58836	9.410433	0.397910	-2.459847	0.002440	0.002933	-0.000223	0.206719	0.148972	0.966993	0.452147	-0.891019	0.040610	0.867658	0.428828	-0.251548
58837	9.428383	0.381353	-2.459037	-0.000870	0.003532	-0.001568	0.206715	0.148986	0.966991	0.452143	-0.891020	0.040626	0.867661	0.428821	-0.251550
58838	9.410603	0.398049	-2.459171	0.001774	0.004461	-0.000242	0.206707	0.148984	0.966993	0.452158	-0.891012	0.040623	0.867655	0.428837	-0.251543
58839	9.421786	0.410467	-2.441027	-0.001792	0.002578	0.001492	0.206723	0.148976	0.966991	0.452135	-0.891024	0.040615	0.867663	0.428815	-0.251552
58840	9.439749	0.393786	-2.440184	0.001774	0.004461	-0.000242	0.206715	0.148975	0.966993	0.452150	-0.891017	0.040613	0.867657	0.428831	-0.251546
58841	9.405397	0.427325	-2.475335	-0.000009	0.003520	0.000625	0.206719	0.148971	0.966993	0.452144	-0.891020	0.040610	0.867659	0.428825	-0.251547
58842	9.417770	0.368744	-2.475035	-0.000674	0.005047	0.000606	0.206711	0.148960	0.966996	0.452136	-0.891024	0.040605	0.867666	0.428820	-0.251534
58843	9.411097	0.397822	-2.457320	0.004223	0.003875	-0.001090	0.206704	0.148968	0.966996	0.452174	-0.891005	0.040605	0.867647	0.428858	-0.251534
58844	9.411173	0.397887	-2.457018	-0.002653	0.002591	-0.000702	0.206711	0.148978	0.966993	0.452152	-0.891016	0.040618	0.867657	0.428832	-0.251543
58845	9.398867	0.385199	-2.439979	0.002235	0.004938	-0.001772	0.206694	0.148989	0.966995	0.452174	-0.891004	0.040629	0.867650	0.428852	-0.251534
58846	9.433539	0.422989	-2.420638	-0.000009	0.003520	0.000625	0.206698	0.148984	0.966995	0.452171	-0.891006	0.040623	0.867650	0.428851	-0.251536
58847	9.416968	0.368563	-2.438592	-0.001340	0.006575	0.000586	0.206677	0.148966	0.967002	0.452159	-0.891012	0.040620	0.867662	0.428844	-0.251508
58848	9.400540	0.385563	-2.473069	0.002235	0.004938	-0.001772	0.206659	0.148976	0.967005	0.452181	-0.891000	0.040631	0.867655	0.428864	-0.251497
58849	9.422838	0.410439	-2.436970	0.000185	0.005035	0.002799	0.206660	0.148945	0.967009	0.452175	-0.891005	0.040604	0.867658	0.428866	-0.251484
58850	9.429739	0.381423	-2.453820	0.000054	0.004486	-0.004629	0.206632	0.148983	0.967009	0.452184	-0.890998	0.040649	0.867659	0.428867	-0.251477
58851	9.392726	0.414401	-2.420165	0.004630	-0.000134	0.002010	0.206672	0.148979	0.967002	0.452220	-0.890981	0.040617	0.867631	0.428903	-0.251512
58852	9.442251	0.394344	-2.470045	-0.004844	0.005659	-0.002934	0.206642	0.148997	0.967005	0.452183	-0.890998	0.040657	0.867658	0.428862	-0.251491
58853	9.388597	0.373048	-2.454613	0.002439	0.002934	-0.000223	0.206645	0.149001	0.967004	0.452202	-0.890989	0.040655	0.867647	0.428880	-0.251497
58854	9.412170	0.398343	-2.453122	-0.001996	0.004583	-0.000058	0.206637	0.148998	0.967006	0.452183	-0.890998	0.040660	0.867658	0.428862	-0.251488
58855	9.410944	0.398019	-2.418269	0.002439	0.002934	-0.000223	0.206751	0.148976	0.966985	0.452158	-0.891014	0.040596	0.867645	0.428837	-0.251579
58856	9.412348	0.398254	-2.452451	0.001312	0.003985	0.001288	0.206755	0.148963	0.966986	0.452165	-0.891011	0.040580	0.867640	0.428848	-0.251577
58857	9.430296	0.381631	-2.451647	-0.000204	0.002005	-0.001550	0.206764	0.148985	0.966981	0.452163	-0.891011	0.040596	0.867639	0.428840	-0.251595
58858	9.422265	0.410456	-2.399517	-0.000675	0.005048	0.000605	0.206756	0.148973	0.966984	0.452155	-0.891015	0.040592	0.867645	0.428835	-0.251582
58859	9.413932	0.398704	-2.485930	-0.000869	0.003533	-0.001569	0.206750	0.148987	0.966984	0.452151	-0.891017	0.040609	0.867649	0.428827	-0.251583
58860	9.389202	0.373084	-2.452294	0.001977	0.002457	0.001308	0.206767	0.148981	0.966981	0.452164	-0.891011	0.040591	0.867637	0.428841	-0.251595
58861	9.414087	0.398653	-2.485352	0.000452	0.003997	-0.000906	0.206761	0.148987	0.966981	0.452169	-0.891008	0.040599	0.867637	0.428845	-0.251593
58862	9.423928	0.410742	-2.432698	-0.000471	0.003044	0.002154	0.206777	0.148970	0.966980	0.452159	-0.891014	0.040579	0.867638	0.428838	-0.251599
58863	9.401844	0.385718	-2.468085	0.001118	0.002469	-0.000886	0.206782	0.148984	0.966977	0.452167	-0.891009	0.040586	0.867632	0.428843	-0.251610
58864	9.430887	0.381583	-2.449380	-0.000675	0.005048	0.000605	0.206773	0.148972	0.966981	0.452159	-0.891014	0.040582	0.867639	0.428838	-0.251597
58865	9.399385	0.385016	-2.398329	-0.000010	0.003521	0.000624	0.206779	0.148967	0.966981	0.452158	-0.891014	0.040575	0.867638	0.428838	-0.251600
58866	9.414564	0.398568	-2.483556	0.000249	0.006002	-0.002456	0.206748	0.148979	0.966985	0.452164	-0.891010	0.040598	0.867642	0.428843	-0.251577
58867	9.395467	0.414839	-2.449176	0.003299	0.002922	0.001971	0.206763	0.148964	0.966984	0.452186	-0.891000	0.040572	0.867627	0.428868	-0.251585
58868	9.431304	0.381537	-2.447780	-0.003318	0.004119	-0.000723	0.206756	0.148969	0.966985	0.452158	-0.891014	0.040587	0.867644	0.428838	-0.251580
58869	9.390043	0.372917	-2.449097	-0.000010	0.003521	0.000624	0.206760	0.148963	0.966985	0.452155	-0.891016	0.040581	0.867644	0.428836	-0.251581
58870	9.413608	0.398260	-2.447613	-0.000869	0.003533	-0.001570	0.206754	0.148978	0.966984	0.452149	-0.891018	0.040599	0.867648	0.428827	-0.251582
58871	9.424763	0.410793	-2.429453	-0.000010	0.003521	0.000624	0.206758	0.148973	0.966984	0.452147	-0.891019	0.040593	0.867649	0.428826	-0.251583
58872	9.383511	0.402191	-2.430734	-0.001535	0.005061	-0.001590	0.206739	0.148980	0.966987	0.452136	-0.891024	0.040612	0.867659	0.428813	-0.251569
58873	9.462029	0.377982	-2.462181	-0.001128	0.001051	0.001510	0.206770	0.148977	0.966981	0.452124	-0.891031	0.040598	0.867658	0.428801	-0.251595
58874	9.384967	0.402464	-2.464797	0.000656	0.001993	0.000644	0.206788	0.148979	0.966977	0.452127	-0.891029	0.040590	0.867652	0.428803	-0.251612
58875	9.431865	0.381650	-2.445600	0.001774	0.004462	-0.000242	0.206782	0.148978	0.966978	0.452142	-0.891022	0.040588	0.867646	0.428818	-0.251606
58876	9.425151	0.410757	-2.427955	-0.001331	0.003056	-0.000040	0.206788	0.148981	0.966977	0.452129	-0.891028	0.040592	0.867651	0.428805	-0.251612
58877	9.403096	0.385790	-2.463299	-0.000010	0.003521	0.000624	0.206791	0.148976	0.966977	0.452125	-0.891031	0.040587	0.867652	0.428802	-0.251613
58878	9.385311	0.402353	-2.463505	-0.000010	0.003521	0.000624	0.206796	0.148971	0.966976	0.452123	-0.891032	0.040581	0.867652	0.428800	-0.251614
58879	9.414362	0.398227	-2.444713	-0.000213	0.005526	-0.000926	0.206774	0.148969	0.966981	0.452125	-0.891031	0.040588	0.867656	0.428803	-0.251595
58880	9.414472	0.398243	-2.444286	-0.000010	0.003521	0.000624	0.206779	0.148964	0.966981	0.452122	-0.891032	0.040582	0.867657	0.428802	-0.251596
58881	9.414604	0.398336	-2.443765	-0.000417	0.007531	-0.002476	0.206735	0.148968	0.966990	0.452124	-0.891030	0.040606	0.867666	0.428805	-0.251559
58882	9.403653	0.385941	-2.461148	0.000656	0.001993	0.000644	0.206753	0.148969	0.966986	0.452128	-0.891029	0.040598	0.867660	0.428807	-0.251576
58883	9.396890	0.415106	-2.443664	0.004030	0.002360	-0.003262	0.206750	0.149003	0.966981	0.452171	-0.891006	0.040617	0.867638	0.428843	-0.251591
58884	9.402445	0.385817	-2.426058	-0.002663	0.006113	-0.000081	0.206729	0.148993	0.966987	0.452147	-0.891018	0.040624	0.867656	0.428822	-0.251566
58885	9.413626	0.398369	-2.407747	0.000452	0.003998	-0.000906	0.206722	0.148999	0.966988	0.452153	-0.891015	0.040632	0.867654	0.428827	-0.251563
58886	9.416439	0.398990	-2.476371	0.001311	0.003986	0.001288	0.206726	0.148986	0.966989	0.452160	-0.891011	0.040616	0.867649	0.428838	-0.251561
58887	9.409554	0.356636	-2.442217	0.000655	0.001993	0.000644	0.206746	0.148988	0.966984	0.452163	-0.891011	0.040608	0.867643	0.428839	-0.251580
58888	9.433132	0.381922	-2.440664	-0.002663	0.006113	-0.000081	0.206725	0.148978	0.966990	0.452139	-0.891022	0.040615	0.867661	0.428818	-0.251555
58889	9.391861	0.373244	-2.442066	0.001321	0.000465	0.000664	0.206756	0.148985	0.966983	0.452148	-0.891018	0.040605	0.867649	0.428824	-0.251587
58890	9.423738	0.441253	-2.508975	-0.004842	0.005661	-0.002940	0.206726	0.149003	0.966986	0.452111	-0.891035	0.040645	0.867675	0.428783	-0.251566
58891	9.324662	0.409982	-2.391737	0.006132	0.005368	0.005474	0.206737	0.148946	0.966993	0.452152	-0.891018	0.040577	0.867651	0.428839	-0.251552
58892	9.505170	0.386522	-2.453597	-0.000203	0.002005	-0.001550	0.206745	0.148967	0.966988	0.452152	-0.891017	0.040592	0.867649	0.428833	-0.251569
58893	9.355126	0.405914	-2.407242	0.001311	0.003986	0.001288	0.206748	0.148954	0.966989	0.452160	-0.891014	0.040576	0.867644	0.428844	-0.251566
58894	9.447457	0.394804	-2.489802	-0.000203	0.002005	-0.001550	0.206756	0.148975	0.966984	0.452160	-0.891013	0.040591	0.867642	0.428839	-0.251583
58895	9.404805	0.385921	-2.456744	0.000452	0.003998	-0.000907	0.206750	0.148981	0.966985	0.452165	-0.891010	0.040599	0.867641	0.428843	-0.251580
58896	9.439303	0.352356	-2.420686	-0.003126	0.005636	0.001448	0.206740	0.148959	0.966990	0.452134	-0.891026	0.040593	0.867660	0.428817	-0.251560
58897	9.392616	0.373061	-2.439188	-0.000010	0.003521	0.000623	0.206744	0.148954	0.966990	0.452131	-0.891028	0.040586	0.867660	0.428815	-0.251562
58898	9.422985	0.369181	-2.455039	0.000655	0.001993	0.000644	0.206762	0.148955	0.966986	0.452134	-0.891026	0.040578	0.867654	0.428818	-0.251579
58899	9.399701	0.415251	-2.472657	-0.001987	0.001064	-0.000685	0.206782	0.148972	0.966979	0.452118	-0.891034	0.040590	0.867658	0.428795	-0.251603
58900	9.446570	0.394599	-2.453432	0.002236	0.004940	-0.001772	0.206764	0.148982	0.966981	0.452140	-0.891023	0.040601	0.867651	0.428816	-0.251592
58901	9.387453	0.402533	-2.455304	0.001310	0.003986	0.001288	0.206767	0.148969	0.966983	0.452147	-0.891019	0.040585	0.867646	0.428827	-0.251590
58902	9.446794	0.394482	-2.452592	-0.000676	0.005050	0.000602	0.206759	0.148958	0.966986	0.452139	-0.891024	0.040581	0.867653	0.428822	-0.251577
58903	9.416759	0.469583	-2.452672	-0.000011	0.003522	0.000623	0.206763	0.148952	0.966986	0.452137	-0.891025	0.040575	0.867653	0.428820	-0.251578
58904	9.434740	0.452913	-2.451710	-0.000676	0.005050	0.000602	0.206755	0.148941	0.966990	0.452128	-0.891030	0.040570	0.867659	0.428815	-0.251565
58905	9.423809	0.440157	-2.469149	0.001705	0.003497	0.005011	0.206779	0.148897	0.966991	0.452132	-0.891030	0.040518	0.867652	0.428829	-0.251567
58906	9.400420	0.414622	-2.470030	0.006673	0.003290	-0.001931	0.206774	0.148915	0.966989	0.452193	-0.890999	0.040519	0.867621	0.428887	-0.251574
58907	9.455344	0.293305	-2.485976	0.010104	0.003242	0.006845	0.206809	0.148856	0.966991	0.452265	-0.890967	0.040427	0.867575	0.428976	-0.251583
58908	9.379419	0.174348	-2.489750	0.036485	0.005912	0.006206	0.206819	0.148791	0.966999	0.452568	-0.890820	0.040275	0.867415	0.429303	-0.251576
58909	9.402883	0.126453	-2.471464	0.065516	0.005997	0.006266	0.206827	0.148725	0.967007	0.453122	-0.890548	0.040050	0.867123	0.429889	-0.251580
58910	9.429142	0.078398	-2.522057	0.101880	0.007856	0.004401	0.206812	0.148667	0.967020	0.453995	-0.890117	0.039751	0.866670	0.430801	-0.251581
58911	9.437814	0.158403	-2.451314	0.138233	0.009739	0.002511	0.206771	0.148618	0.967036	0.455186	-0.889525	0.039379	0.866055	0.432039	-0.251577
58912	9.397930	0.074722	-2.469859	0.162804	0.011533	0.002670	0.206716	0.148560	0.967057	0.456589	-0.888825	0.038943	0.865330	0.433497	-0.251565
58913	9.422918	0.024708	-2.485295	0.185923	0.012315	-0.005285	0.206617	0.148569	0.967076	0.458207	-0.888010	0.038526	0.864497	0.435161	-0.251553
58914	9.421995	0.091182	-2.466909	0.213515	0.011105	-0.000746	0.206550	0.148543	0.967095	0.460052	-0.887079	0.037996	0.863533	0.437066	-0.251564
58915	9.411064	0.002114	-2.466344	0.240567	0.013350	-0.006787	0.206436	0.148561	0.967116	0.462141	-0.886015	0.037456	0.862444	0.439212	-0.251561
58916	9.404559	0.026066	-2.448179	0.256043	0.013500	-0.009208	0.206309	0.148599	0.967138	0.464366	-0.884874	0.036901	0.861279	0.441493	-0.251562
58917	9.417320	0.032818	-2.463877	0.289410	0.012192	-0.009542	0.206192	0.148645	0.967156	0.466875	-0.883579	0.036265	0.859949	0.444063	-0.251585
58918	9.402712	0.156557	-2.412656	0.310593	0.014786	-0.010955	0.206045	0.148692	0.967179	0.469565	-0.882180	0.035589	0.858518	0.446821	-0.251590
58919	9.413664	-0.093464	-2.477464	0.327618	0.014447	-0.016531	0.205876	0.148789	0.967201	0.472408	-0.880688	0.034924	0.856998	0.449724	-0.251601
58920	9.425230	-0.016389	-2.476580	0.341449	0.015338	-0.016063	0.205700	0.148877	0.967224	0.475364	-0.879124	0.034221	0.855404	0.452744	-0.251607
58921	9.392248	-0.203924	-2.490374	0.359114	0.013530	-0.021671	0.205513	0.149022	0.967242	0.478476	-0.877460	0.033526	0.853713	0.455912	-0.251633
58922	9.431244	-0.129868	-2.436657	0.373383	0.014953	-0.022816	0.205308	0.149170	0.967263	0.481706	-0.875718	0.032807	0.851944	0.459201	-0.251648
58923	9.382240	0.026480	-2.423764	0.395230	0.017104	-0.029685	0.205051	0.149367	0.967287	0.485129	-0.873853	0.032099	0.850061	0.462677	-0.251647
58924	9.444558	-0.131597	-2.449661	0.414557	0.015479	-0.031042	0.204800	0.149583	0.967306	0.488712	-0.871882	0.031356	0.848067	0.466312	-0.251664
58925	9.391086	0.098540	-2.354693	0.436785	0.010242	-0.035395	0.204571	0.149860	0.967312	0.492482	-0.869784	0.030599	0.845938	0.470125	-0.251736
58926	9.428560	-0.013374	-2.365524	0.449662	0.014892	-0.036845	0.204295	0.150127	0.967329	0.496356	-0.867607	0.029823	0.843739	0.474047	-0.251764
58927	9.378064	-0.044257	-2.417155	0.469677	0.012740	-0.043580	0.204002	0.150461	0.967339	0.500401	-0.865306	0.029061	0.841417	0.478129	-0.251815
58928	9.422652	-0.116572	-2.462604	0.499067	0.012191	-0.044325	0.203708	0.150803	0.967348	0.504683	-0.862843	0.028233	0.838927	0.482453	-0.251876
58929	9.384170	-0.157854	-2.374397	0.491673	0.008177	-0.048631	0.203425	0.151199	0.967345	0.508899	-0.860388	0.027464	0.836445	0.486695	-0.251969
58930	9.433579	0.142165	-2.371132	0.503720	0.013717	-0.057773	0.203046	0.151646	0.967355	0.513223	-0.857838	0.026754	0.833891	0.491036	-0.252009
58931	9.396281	-0.138224	-2.510705	0.522297	0.010422	-0.060035	0.202681	0.152127	0.967356	0.517692	-0.855172	0.026017	0.831213	0.495519	-0.252082
58932	9.392854	-0.259527	-2.518654	0.524816	0.009266	-0.065203	0.202296	0.152655	0.967353	0.522178	-0.852461	0.025325	0.828497	0.500007	-0.252163
58933	9.378510	-0.324933	-2.564572	0.528164	0.011745	-0.067721	0.201875	0.153190	0.967357	0.526682	-0.849705	0.024647	0.825744	0.504514	-0.252217
58934	9.363581	-0.338004	-2.475388	0.556251	0.008236	-0.075191	0.201440	0.153805	0.967350	0.531418	-0.846771	0.023971	0.822811	0.509238	-0.252308
58935	9.370849	-0.305705	-2.510469	0.545481	0.007504	-0.075082	0.201009	0.154419	0.967342	0.536048	-0.843866	0.023320	0.819908	0.513854	-0.252400
58936	9.418143	-0.330600	-2.487043	0.545103	0.006514	-0.077882	0.200567	0.155060	0.967331	0.540664	-0.840932	0.022697	0.816979	0.518449	-0.252499
58937	9.381285	-0.180076	-2.379941	0.545786	0.003714	-0.076851	0.200150	0.155704	0.967314	0.545268	-0.837972	0.022062	0.814017	0.523029	-0.252620
58938	9.463527	0.213253	-2.276766	0.591688	0.000093	-0.087990	0.199698	0.156459	0.967286	0.550250	-0.834726	0.021417	0.810769	0.527971	-0.252784
58939	9.397213	0.055478	-2.316796	0.629222	-0.003463	-0.100945	0.199198	0.157337	0.967246	0.555540	-0.831230	0.020802	0.807277	0.533200	-0.252986
58940	9.399233	-0.144424	-2.399385	0.622814	-0.002058	-0.100744	0.198682	0.158203	0.967211	0.560756	-0.827734	0.020200	0.803789	0.538356	-0.253170
58941	9.356200	-0.331908	-2.535419	0.633821	-0.004818	-0.102933	0.198171	0.159098	0.967169	0.566042	-0.824143	0.019589	0.800203	0.543577	-0.253378
58942	9.342567	-0.344204	-2.481330	0.606608	-0.004126	-0.104053	0.197643	0.159996	0.967129	0.571091	-0.820665	0.019058	0.796739	0.548552	-0.253571
58943	9.388619	-0.174774	-2.413664	0.626466	-0.005715	-0.111547	0.197078	0.160960	0.967084	0.576290	-0.817035	0.018547	0.793127	0.553666	-0.253780
58944	9.406023	0.059871	-2.428369	0.665635	-0.008679	-0.120530	0.196479	0.162011	0.967031	0.581792	-0.813138	0.018022	0.789249	0.559070	-0.254021
58945	9.395359	-0.090919	-2.356304	0.654879	-0.009305	-0.120590	0.195877	0.163062	0.966976	0.587183	-0.809264	0.017523	0.785397	0.564360	-0.254263
58946	9.351996	0.031070	-2.412690	0.664602	-0.008343	-0.128517	0.195213	0.164167	0.966923	0.592640	-0.805286	0.017075	0.781453	0.569705	-0.254495
58947	9.440409	-0.224804	-2.492084	0.667977	-0.012649	-0.132318	0.194554	0.165322	0.966860	0.598103	-0.801246	0.016653	0.777445	0.575042	-0.254765
58948	9.306695	-0.095327	-2.380040	0.710541	-0.013935	-0.138381	0.193859	0.166530	0.966792	0.603880	-0.796911	0.016179	0.773141	0.580690	-0.255053
58949	9.361131	-0.264885	-2.560013	0.708034	-0.018960	-0.144724	0.193156	0.167811	0.966711	0.609617	-0.792539	0.015770	0.768802	0.586278	-0.255385
58950	9.303065	-0.510717	-2.659406	0.702159	-0.020642	-0.146651	0.192445	0.169113	0.966626	0.615282	-0.788157	0.015393	0.764456	0.591785	-0.255729
58951	9.284871	-0.439216	-2.567420	0.667313	-0.019016	-0.143321	0.191734	0.170374	0.966546	0.620643	-0.783948	0.015070	0.760289	0.596991	-0.256050
58952	9.377844	-0.406821	-2.551339	0.660131	-0.017877	-0.145366	0.190992	0.171639	0.966469	0.625926	-0.779742	0.014784	0.756134	0.602114	-0.256358
58953	9.385664	-0.023344	-2.416430	0.658203	-0.017939	-0.145442	0.190241	0.172900	0.966392	0.631165	-0.775513	0.014500	0.751957	0.607194	-0.256663
58954	9.477502	0.073141	-2.311222	0.712989	-0.028608	-0.157003	0.189489	0.174311	0.966287	0.636807	-0.770893	0.014185	0.747376	0.612650	-0.257078
58955	9.337965	-0.135243	-2.470775	0.714153	-0.030536	-0.158032	0.188734	0.175735	0.966176	0.642425	-0.766223	0.013874	0.742745	0.618078	-0.257508
58956	9.368458	-0.024842	-2.337473	0.773853	-0.036611	-0.169580	0.187938	0.177280	0.966049	0.648472	-0.761119	0.013517	0.737674	0.623915	-0.258004
58957	9.364373	-0.025083	-2.589622	0.772351	-0.036031	-0.171698	0.187112	0.178830	0.965924	0.654470	-0.755973	0.013180	0.732569	0.629702	-0.258491
58958	9.356051	-0.167604	-2.506620	0.759392	-0.039311	-0.176573	0.186266	0.180432	0.965789	0.660343	-0.750853	0.012921	0.727498	0.635345	-0.259005
58959	9.235603	-0.217673	-2.573913	0.744117	-0.036815	-0.178277	0.185378	0.182023	0.965662	0.666067	-0.745783	0.012712	0.722488	0.640839	-0.259492
58960	9.363877	-0.384363	-2.599135	0.729181	-0.039758	-0.178278	0.184499	0.183628	0.965526	0.671646	-0.740766	0.012540	0.717531	0.646179	-0.260004
58961	9.395005	-0.163079	-2.514461	0.727413	-0.038182	-0.171253	0.183644	0.185163	0.965396	0.677161	-0.735732	0.012299	0.712550	0.651470	-0.260498
58962	9.327445	0.148964	-2.515943	0.764436	-0.044452	-0.184698	0.182731	0.186831	0.965248	0.682926	-0.730388	0.012088	0.707264	0.656984	-0.261056
58963	9.398426	-0.181363	-2.462430	0.788914	-0.052458	-0.181327	0.181883	0.188520	0.965080	0.688813	-0.724844	0.011775	0.701752	0.662617	-0.261692
58964	9.280978	-0.021165	-2.500159	0.793366	-0.050502	-0.186769	0.180971	0.190229	0.964916	0.694696	-0.719212	0.011499	0.696166	0.668242	-0.262308
58965	9.330926	0.005056	-2.492645	0.756997	-0.050470	-0.181756	0.180080	0.191893	0.964753	0.700272	-0.713787	0.011263	0.690789	0.673561	-0.262916
58966	9.411940	0.249181	-2.441959	0.763553	-0.052982	-0.186524	0.179159	0.193603	0.964583	0.705860	-0.708265	0.011052	0.685320	0.678880	-0.263548
58967	9.275192	-0.138891	-2.588076	0.797016	-0.057487	-0.192657	0.178212	0.195377	0.964400	0.711642	-0.702459	0.010806	0.679563	0.684382	-0.264225
58968	9.326518	-0.123239	-2.614094	0.788988	-0.062492	-0.188387	0.177314	0.197150	0.964205	0.717315	-0.696669	0.010535	0.673809	0.689771	-0.264948
58969	9.349289	-0.213580	-2.607183	0.807976	-0.063695	-0.194364	0.176367	0.198964	0.964006	0.723078	-0.690690	0.010264	0.667872	0.695241	-0.265681
58970	9.252587	-0.319587	-2.763353	0.790109	-0.059443	-0.191508	0.175398	0.200721	0.963819	0.728668	-0.684794	0.010008	0.662027	0.700548	-0.266370
58971	9.360595	-0.070442	-2.702746	0.805142	-0.064387	-0.206305	0.174338	0.202605	0.963617	0.734333	-0.678718	0.009848	0.656019	0.705899	-0.267106
58972	9.246223	-0.051960	-2.501176	0.820558	-0.064002	-0.199219	0.173312	0.204431	0.963416	0.740036	-0.672499	0.009572	0.649853	0.711304	-0.267838
58973	9.366748	0.157088	-2.688661	0.829592	-0.072260	-0.207249	0.172265	0.206359	0.963193	0.745758	-0.666151	0.009342	0.643560	0.716700	-0.268648
58974	9.236923	-0.226093	-2.689515	0.826129	-0.072898	-0.206814	0.171208	0.208281	0.962968	0.751403	-0.659781	0.009111	0.637245	0.722017	-0.269462
58975	9.286572	-0.083127	-2.618686	0.827779	-0.076226	-0.201009	0.170199	0.210178	0.962734	0.756993	-0.653363	0.008812	0.630867	0.727284	-0.270306
58976	9.359170	-0.107541	-2.705794	0.834314	-0.075012	-0.200831	0.169168	0.212058	0.962504	0.762570	-0.646850	0.008486	0.624395	0.732541	-0.271136
58977	9.263640	-0.309570	-2.766716	0.812840	-0.071159	-0.202776	0.168082	0.213913	0.962284	0.767960	-0.640445	0.008229	0.618050	0.737612	-0.271924
58978	9.223152	-0.102895	-2.673122	0.834918	-0.081332	-0.208305	0.167000	0.215869	0.962035	0.773441	-0.633818	0.007959	0.611474	0.742748	-0.272810
58979	9.278501	-0.147050	-2.659755	0.829680	-0.084808	-0.202979	0.165964	0.217807	0.961778	0.778823	-0.627197	0.007643	0.604888	0.747786	-0.273725
58980	9.305072	0.044413	-2.711306	0.822625	-0.085881	-0.212799	0.164841	0.219807	0.961516	0.784124	-0.620560	0.007434	0.598312	0.752722	-0.274649
58981	9.200041	-0.231655	-2.792966	0.828376	-0.085026	-0.209372	0.163722	0.221768	0.961257	0.789395	-0.613844	0.007167	0.591651	0.757638	-0.275562
58982	9.333423	-0.223448	-2.721839	0.816942	-0.090236	-0.204083	0.162659	0.223727	0.960983	0.794534	-0.607181	0.006873	0.585028	0.762415	-0.276523
58983	9.311541	0.184059	-2.748039	0.864299	-0.091275	-0.207479	0.161559	0.225705	0.960706	0.799895	-0.600105	0.006471	0.577985	0.767418	-0.277492
58984	9.153517	-0.257407	-2.808338	0.883658	-0.095499	-0.214509	0.160407	0.227748	0.960417	0.805315	-0.592816	0.006075	0.570734	0.772463	-0.278501
58985	9.238856	-0.029459	-2.712071	0.889104	-0.100073	-0.211423	0.159289	0.229797	0.960115	0.810693	-0.585444	0.005623	0.563386	0.777463	-0.279549
58986	9.253903	0.016124	-2.841419	0.893847	-0.103405	-0.214115	0.158147	0.231877	0.959803	0.816035	-0.577979	0.005175	0.555946	0.782415	-0.280626
58987	9.248298	-0.164237	-2.665891	0.863810	-0.101344	-0.214912	0.156969	0.233935	0.959497	0.821143	-0.570702	0.004808	0.548711	0.787130	-0.281677
58988	9.164867	-0.146970	-2.824856	0.867145	-0.101722	-0.212570	0.155793	0.235972	0.959190	0.826202	-0.563357	0.004400	0.541405	0.791799	-0.282728
58989	9.325560	-0.163016	-2.721326	0.874874	-0.110406	-0.208553	0.154680	0.238044	0.958858	0.831228	-0.555917	0.003920	0.533979	0.796424	-0.283858
58990	9.260144	-0.253078	-2.863893	0.856829	-0.106779	-0.203705	0.153568	0.240051	0.958536	0.836086	-0.548588	0.003436	0.526667	0.800891	-0.284949
58991	9.270981	0.228662	-2.744090	0.888281	-0.109622	-0.216778	0.152344	0.242141	0.958206	0.841061	-0.540933	0.002976	0.519046	0.805456	-0.286063
58992	9.162708	-0.094769	-2.841010	0.892637	-0.114787	-0.214065	0.151149	0.244248	0.957861	0.845984	-0.533203	0.002468	0.511337	0.809961	-0.287223
58993	9.213827	-0.208785	-2.925145	0.853763	-0.118312	-0.211122	0.149979	0.246355	0.957505	0.850634	-0.525754	0.002032	0.503913	0.814182	-0.288410
58994	9.190342	-0.239404	-2.921077	0.895605	-0.119610	-0.212455	0.148784	0.248471	0.957145	0.855429	-0.517918	0.001477	0.496089	0.818550	-0.289607
58995	9.290990	-0.232129	-3.013382	0.882398	-0.125766	-0.203661	0.147675	0.250579	0.956767	0.860073	-0.510170	0.000864	0.488330	0.822762	-0.290855
58996	9.256244	-0.012832	-2.839055	0.893425	-0.123239	-0.201452	0.146553	0.252646	0.956396	0.864696	-0.502295	0.000187	0.480440	0.826964	-0.292075
58997	9.207732	-0.017710	-2.955551	0.930132	-0.122692	-0.214191	0.145299	0.254759	0.956026	0.869438	-0.494041	-0.000489	0.472192	0.831277	-0.293281
58998	9.154138	-0.130756	-2.923192	0.906385	-0.120969	-0.210765	0.144046	0.256831	0.955661	0.873986	-0.485950	-0.001138	0.464111	0.835399	-0.294466
58999	9.152479	0.047984	-2.826869	0.897367	-0.127091	-0.209866	0.142811	0.258936	0.955279	0.878415	-0.477896	-0.001782	0.456062	0.839385	-0.295702
59000	9.149873	-0.289336	-2.932172	0.925382	-0.138238	-0.211445	0.141590	0.261132	0.954862	0.882896	-0.469561	-0.002505	0.447712	0.843399	-0.297038
59001	9.321333	-0.024182	-2.989944	0.895296	-0.133070	-0.206102	0.140374	0.263247	0.954461	0.887158	-0.461455	-0.003204	0.439597	0.847208	-0.298318
59002	9.148142	-0.292653	-3.084332	0.886857	-0.128477	-0.211440	0.139070	0.265336	0.954074	0.891316	-0.453367	-0.003837	0.431527	0.850914	-0.299548
59003	9.143384	-0.385858	-2.993014	0.917176	-0.137336	-0.205381	0.137840	0.267460	0.953659	0.895519	-0.445000	-0.004633	0.423139	0.854658	-0.300854
59004	9.151965	-0.343542	-3.100936	0.895917	-0.136329	-0.202629	0.136608	0.269553	0.953247	0.899550	-0.436784	-0.005402	0.414907	0.858231	-0.302144
59005	9.157318	0.085849	-2.936987	0.905360	-0.145663	-0.200116	0.135419	0.271702	0.952806	0.903540	-0.428458	-0.006238	0.406543	0.861743	-0.303515
59006	9.159563	-0.312361	-3.028577	0.917186	-0.148323	-0.201536	0.134206	0.273869	0.952357	0.907501	-0.419990	-0.007109	0.398034	0.865219	-0.304902
59007	9.298233	-0.095065	-3.092779	0.895554	-0.147479	-0.196814	0.133013	0.275997	0.951910	0.911290	-0.411687	-0.007973	0.389689	0.868527	-0.306273
59008	9.176777	-0.163613	-3.110446	0.885989	-0.141874	-0.200705	0.131742	0.278082	0.951480	0.914971	-0.403423	-0.008782	0.381407	0.871734	-0.307585
59009	9.099805	-0.374974	-3.057218	0.938601	-0.144282	-0.201740	0.130452	0.280178	0.951043	0.918774	-0.394664	-0.009757	0.372609	0.875066	-0.308905
59010	9.082043	-0.254164	-3.150578	0.927237	-0.156363	-0.189142	0.129301	0.282320	0.950567	0.922433	-0.386005	-0.010830	0.363866	0.878235	-0.310332
59011	9.155923	0.305904	-2.975021	0.936035	-0.153808	-0.207226	0.127953	0.284495	0.950100	0.926064	-0.377184	-0.011773	0.355013	0.881360	-0.311722
59012	9.193155	-0.488727	-3.148105	0.912616	-0.158224	-0.203845	0.126630	0.286685	0.949619	0.929523	-0.368546	-0.012688	0.346341	0.884300	-0.313149
59013	9.154060	-0.174380	-3.252327	0.921606	-0.156032	-0.197593	0.125338	0.288818	0.949144	0.932923	-0.359816	-0.013706	0.337559	0.887196	-0.314543
59014	9.224118	-0.321165	-3.122342	0.900031	-0.156683	-0.188435	0.124112	0.290913	0.948665	0.936157	-0.351274	-0.014755	0.328949	0.889931	-0.315937
59015	9.047934	-0.288196	-3.160545	0.940086	-0.161468	-0.191234	0.122856	0.293047	0.948172	0.939442	-0.342338	-0.015920	0.319930	0.892708	-0.317359
59016	9.110494	-0.105923	-3.063598	0.924165	-0.165167	-0.189728	0.121604	0.295198	0.947666	0.942589	-0.333519	-0.017061	0.311028	0.895334	-0.318808
59017	9.180943	-0.028169	-3.152541	0.920594	-0.166427	-0.200863	0.120230	0.297383	0.947158	0.945654	-0.324672	-0.018101	0.302132	0.897859	-0.320257
59018	9.052419	-0.611153	-3.259924	0.913091	-0.167520	-0.194026	0.118903	0.299544	0.946644	0.948604	-0.315884	-0.019195	0.293280	0.900272	-0.321708
59019	9.093694	-0.395476	-3.338395	0.914718	-0.169369	-0.183231	0.117664	0.301674	0.946123	0.951462	-0.307090	-0.020411	0.284387	0.902601	-0.323165
59020	9.128250	-0.403260	-3.305304	0.909855	-0.164076	-0.182474	0.116395	0.303743	0.945618	0.954222	-0.298316	-0.021632	0.275522	0.904847	-0.324560
59021	9.077980	-0.482542	-3.280020	0.924512	-0.169176	-0.187386	0.115075	0.305858	0.945097	0.956944	-0.289371	-0.022869	0.266489	0.907036	-0.325989
59022	9.055133	-0.380528	-3.333625	0.919079	-0.172824	-0.181471	0.113799	0.307978	0.944563	0.959559	-0.280469	-0.024157	0.257481	0.909113	-0.327441
59023	9.049341	0.036989	-3.216935	0.949491	-0.180809	-0.188721	0.112454	0.310177	0.944004	0.962172	-0.271246	-0.025493	0.248151	0.911162	-0.328947
59024	9.144336	-0.533179	-3.249814	0.945096	-0.180062	-0.183530	0.111133	0.312343	0.943446	0.964678	-0.262056	-0.026877	0.238841	0.913109	-0.330434
59025	9.104630	-0.368333	-3.400829	0.920024	-0.190131	-0.180029	0.109850	0.314577	0.942854	0.967032	-0.253084	-0.028227	0.229742	0.914871	-0.332008
59026	9.117325	-0.344574	-3.302332	0.905474	-0.176385	-0.178941	0.108524	0.316671	0.942307	0.969267	-0.244229	-0.029553	0.220780	0.916554	-0.333444
59027	8.994473	-0.393674	-3.337186	0.944585	-0.182382	-0.177791	0.107203	0.318803	0.941739	0.971500	-0.235001	-0.031036	0.211415	0.918226	-0.334910
59028	9.047033	-0.486834	-3.234832	0.948799	-0.190966	-0.172973	0.105923	0.320991	0.941140	0.973645	-0.225729	-0.032593	0.201980	0.919789	-0.336441
59029	9.150141	-0.147448	-3.378172	0.950532	-0.193654	-0.177432	0.104585	0.323199	0.940534	0.975706	-0.216409	-0.034130	0.192510	0.921254	-0.337980
59030	9.030645	-0.485552	-3.401191	0.931568	-0.192646	-0.176524	0.103230	0.325383	0.939931	0.977639	-0.207250	-0.035626	0.183208	0.922591	-0.339502
59031	8.985141	-0.537879	-3.533768	0.916060	-0.189880	-0.169502	0.101919	0.327513	0.939334	0.979449	-0.198241	-0.037152	0.174047	0.923816	-0.340987
59032	9.077290	-0.589326	-3.363370	0.908708	-0.192061	-0.167634	0.100608	0.329647	0.938728	0.981159	-0.189292	-0.038683	0.164942	0.924933	-0.342481
59033	8.894570	-0.570954	-3.511886	0.938256	-0.191558	-0.168343	0.099269	0.331765	0.938125	0.982830	-0.180054	-0.040325	0.155534	0.926020	-0.343942
59034	8.994291	-0.672410	-3.275436	0.932567	-0.201733	-0.164508	0.097962	0.333957	0.937484	0.984399	-0.170867	-0.041997	0.146160	0.926972	-0.345485
59035	9.133994	-0.176781	-3.530311	0.931097	-0.202862	-0.167830	0.096602	0.336150	0.936841	0.985879	-0.161672	-0.043649	0.136788	0.927828	-0.347021
59036	8.980480	-0.557110	-3.543132	0.939717	-0.201319	-0.174215	0.095155	0.338327	0.936205	0.987287	-0.152362	-0.045286	0.127321	0.928612	-0.348524
59037	8.966205	-0.672266	-3.486517	0.924813	-0.200481	-0.160586	0.093821	0.340460	0.935566	0.988572	-0.143228	-0.047014	0.117993	0.929286	-0.350007
59038	9.027034	-0.764695	-3.508492	0.914634	-0.201152	-0.159317	0.092477	0.342586	0.934924	0.989758	-0.134183	-0.048732	0.108756	0.929855	-0.351486
59039	8.853748	-0.463558	-3.442547	0.937688	-0.207156	-0.160109	0.091113	0.344753	0.934261	0.990880	-0.124913	-0.050540	0.099278	0.930345	-0.352990
59040	9.007292	-0.824622	-3.529370	0.920114	-0.209535	-0.151587	0.089813	0.346920	0.933585	0.991887	-0.115828	-0.052380	0.089964	0.930715	-0.354509
59041	9.139620	-0.291945	-3.499871	0.913181	-0.216622	-0.153978	0.088474	0.349142	0.932884	0.992803	-0.106794	-0.054188	0.080707	0.930965	-0.356078
59042	9.003723	-0.556447	-3.567018	0.932121	-0.213347	-0.159855	0.087052	0.351326	0.932197	0.993652	-0.097557	-0.056024	0.071260	0.931157	-0.357588
59043	8.905560	-0.645420	-3.548094	0.923512	-0.214718	-0.150293	0.085705	0.353499	0.931501	0.994396	-0.088429	-0.057934	0.061892	0.931246	-0.359097
59044	8.912477	-0.934724	-3.622346	0.906208	-0.211052	-0.148756	0.084349	0.355624	0.930815	0.995042	-0.079464	-0.059810	0.052696	0.931245	-0.360563
59045	8.904494	-0.683982	-3.541522	0.930478	-0.215782	-0.148265	0.082981	0.357778	0.930113	0.995612	-0.070272	-0.061793	0.043253	0.931159	-0.362039
59046	8.803304	-0.943963	-3.828791	0.922067	-0.221301	-0.147167	0.081602	0.359969	0.929389	0.996089	-0.061160	-0.063770	0.033886	0.930957	-0.363552
59047	9.160749	-0.534291	-3.453524	0.901032	-0.221180	-0.140896	0.080267	0.362142	0.928661	0.996467	-0.052267	-0.065745	0.024729	0.930657	-0.365057
59048	8.954459	-0.521098	-3.671043	0.947863	-0.223144	-0.149216	0.078825	0.364324	0.927930	0.996774	-0.042906	-0.067827	0.015103	0.930283	-0.366530
59049	9.030150	-0.680823	-3.582131	0.895300	-0.220638	-0.140462	0.077451	0.366463	0.927203	0.996978	-0.034068	-0.069814	0.006004	0.929809	-0.367995
59050	8.733626	-0.851163	-3.642146	0.929358	-0.225098	-0.137669	0.076081	0.368631	0.926457	0.997096	-0.024925	-0.071965	-0.003437	0.929242	-0.369457
59051	8.926017	-0.721454	-3.482102	0.917181	-0.233444	-0.135763	0.074710	0.370861	0.925679	0.997124	-0.015905	-0.074105	-0.012760	0.928552	-0.370982
59052	8.950254	-0.918648	-3.811718	0.944059	-0.238250	-0.135826	0.073314	0.373122	0.924881	0.997058	-0.006638	-0.076358	-0.022351	0.927759	-0.372511
59053	8.976862	-0.869991	-3.806297	0.873326	-0.224534	-0.134771	0.071911	0.375241	0.924134	0.996922	0.001963	-0.078372	-0.031223	0.926925	-0.373945
59054	8.938010	-0.851297	-3.679272	0.895031	-0.225247	-0.134344	0.070491	0.377353	0.923383	0.996698	0.010759	-0.080485	-0.040306	0.926007	-0.375349
59055	8.865626	-1.003973	-3.783016	0.888643	-0.231351	-0.126237	0.069129	0.379509	0.922602	0.996388	0.019460	-0.082663	-0.049325	0.924983	-0.376793
59056	8.735709	-1.093194	-3.681166	0.929844	-0.236074	-0.129717	0.067708	0.381695	0.921805	0.995974	0.028548	-0.084977	-0.058751	0.923848	-0.378225
59057	8.881602	-0.989611	-3.732365	0.912239	-0.237645	-0.123798	0.066325	0.383881	0.920997	0.995479	0.037442	-0.087295	-0.067995	0.922623	-0.379662
59058	8.892102	-0.842410	-3.774792	0.943274	-0.244407	-0.127649	0.064874	0.386115	0.920167	0.994876	0.046629	-0.089708	-0.077544	0.921271	-0.381112
59059	8.830237	-1.111912	-3.881508	0.892848	-0.237107	-0.126008	0.063426	0.388267	0.919362	0.994224	0.055334	-0.091959	-0.086577	0.919884	-0.382515
59060	8.854950	-0.996712	-3.738543	0.890808	-0.240637	-0.120293	0.062008	0.390441	0.918537	0.993488	0.063989	-0.094268	-0.095583	0.918401	-0.383931
59061	8.751818	-1.104040	-3.867391	0.889567	-0.239973	-0.115927	0.060615	0.392597	0.917711	0.992669	0.072604	-0.096626	-0.104565	0.916840	-0.385318
59062	8.850490	-1.045860	-3.672598	0.915294	-0.250088	-0.117130	0.059176	0.394832	0.916846	0.991740	0.081448	-0.099085	-0.113798	0.915136	-0.386751
59063	8.830988	-1.028322	-3.820988	0.907196	-0.250800	-0.112640	0.057761	0.397062	0.915973	0.990732	0.090187	-0.101569	-0.122938	0.913350	-0.388172
59064	8.915015	-0.895836	-3.922816	0.901642	-0.246796	-0.117751	0.056276	0.399236	0.915119	0.989650	0.098881	-0.103998	-0.132008	0.911500	-0.389539
59065	8.747729	-1.372601	-3.909937	0.887815	-0.247981	-0.112994	0.054817	0.401410	0.914256	0.988501	0.107416	-0.106430	-0.140927	0.909578	-0.390907
59066	8.745872	-1.225825	-3.881659	0.894065	-0.243760	-0.109766	0.053373	0.403536	0.913406	0.987261	0.115980	-0.108928	-0.149893	0.907583	-0.392205
59067	8.703740	-1.286913	-3.946148	0.875059	-0.246161	-0.102352	0.051980	0.405678	0.912537	0.985965	0.124325	-0.111433	-0.158657	0.905521	-0.393522
59068	8.787467	-1.425052	-3.894184	0.884330	-0.255671	-0.104266	0.050530	0.407890	0.911632	0.984576	0.132746	-0.113968	-0.167502	0.903330	-0.394891
59069	8.814270	-1.295343	-3.821917	0.894592	-0.256259	-0.095273	0.049148	0.410104	0.910713	0.983085	0.141205	-0.116640	-0.176432	0.901041	-0.396227
59070	8.841387	-0.925335	-4.046767	0.895006	-0.262332	-0.106818	0.047618	0.412343	0.909783	0.981518	0.149697	-0.119220	-0.185351	0.898646	-0.397594
59071	8.722129	-1.443514	-3.939950	0.888417	-0.254736	-0.105008	0.046100	0.414500	0.908881	0.979881	0.158102	-0.121805	-0.194184	0.896211	-0.398872
59072	8.698541	-1.171539	-3.965335	0.893751	-0.256604	-0.099688	0.044608	0.416668	0.907964	0.978152	0.166514	-0.124470	-0.203051	0.893678	-0.400137
59073	8.662063	-1.526492	-3.929831	0.872973	-0.254365	-0.097525	0.043122	0.418804	0.907052	0.976384	0.174710	-0.127085	-0.211694	0.891111	-0.401380
59074	8.708709	-1.477299	-4.046151	0.870852	-0.262172	-0.091654	0.041654	0.421006	0.906101	0.974542	0.182842	-0.129755	-0.220301	0.888438	-0.402672
59075	8.784868	-1.451648	-3.815580	0.892249	-0.263085	-0.080896	0.040269	0.423221	0.905131	0.972571	0.191097	-0.132623	-0.229096	0.885644	-0.403917
59076	8.790192	-1.071645	-4.020404	0.895094	-0.264983	-0.096327	0.038707	0.425409	0.904173	0.970519	0.199419	-0.135372	-0.237897	0.882757	-0.405148
59077	8.620738	-1.535408	-3.994255	0.871326	-0.261572	-0.090006	0.037194	0.427563	0.903220	0.968443	0.207480	-0.138096	-0.246445	0.879853	-0.406353
59078	8.542057	-1.250926	-4.034673	0.884878	-0.268074	-0.087281	0.035669	0.429766	0.902236	0.966256	0.215625	-0.140909	-0.255103	0.876817	-0.407573
59079	8.677631	-1.726272	-3.901814	0.858432	-0.263916	-0.078739	0.034217	0.431935	0.901256	0.964058	0.223477	-0.143705	-0.263480	0.873779	-0.408763
59080	8.661633	-1.692315	-4.130673	0.865569	-0.270298	-0.077792	0.032735	0.434148	0.900247	0.961767	0.231362	-0.146547	-0.271906	0.870625	-0.409976
59081	8.737738	-1.660442	-4.082901	0.868585	-0.271714	-0.076672	0.031241	0.436360	0.899229	0.959393	0.239242	-0.149425	-0.280337	0.867383	-0.411167
59082	8.776847	-1.240723	-4.021394	0.875910	-0.268393	-0.077885	0.029720	0.438527	0.898227	0.956925	0.247165	-0.152332	-0.288811	0.864062	-0.412291
59083	8.519927	-1.774295	-4.203126	0.868600	-0.270413	-0.082204	0.028134	0.440684	0.897221	0.954404	0.255015	-0.155182	-0.297191	0.860677	-0.413416
59084	8.523586	-1.479365	-4.080173	0.874952	-0.272611	-0.074707	0.026590	0.442864	0.896194	0.951787	0.262859	-0.158134	-0.305605	0.857191	-0.414523
59085	8.624166	-1.924281	-3.955615	0.852250	-0.270684	-0.068861	0.025088	0.445027	0.895166	0.949166	0.270454	-0.161056	-0.313775	0.853701	-0.415619
59086	8.641995	-1.687062	-4.193607	0.868122	-0.279329	-0.065587	0.023567	0.447259	0.894094	0.946422	0.278141	-0.164083	-0.322071	0.850057	-0.416740
59087	8.581840	-2.013705	-4.236398	0.853901	-0.277645	-0.062256	0.022064	0.449469	0.893023	0.943651	0.285661	-0.167091	-0.330205	0.846389	-0.417839
59088	8.715499	-1.535448	-4.105206	0.837962	-0.276894	-0.062430	0.020538	0.451659	0.891954	0.940865	0.293018	-0.170040	-0.338159	0.842701	-0.418932
59089	8.472174	-1.830819	-4.080185	0.856907	-0.277239	-0.065427	0.018965	0.453826	0.890888	0.937945	0.300518	-0.173053	-0.346264	0.838887	-0.419965
59090	8.488656	-1.562954	-4.071568	0.849234	-0.275540	-0.060353	0.017422	0.455980	0.889819	0.934982	0.307899	-0.176087	-0.354267	0.835033	-0.420969
59091	8.554075	-2.053932	-4.030232	0.834554	-0.279085	-0.062713	0.015827	0.458140	0.888739	0.932003	0.315137	-0.179048	-0.362104	0.831142	-0.422001
59092	8.560090	-2.017866	-4.206916	0.838827	-0.282689	-0.049836	0.014315	0.460356	0.887619	0.928941	0.322320	-0.182150	-0.369951	0.827153	-0.423030
59093	8.530847	-2.070796	-4.300617	0.839357	-0.278841	-0.050835	0.012790	0.462521	0.886516	0.925810	0.329479	-0.185256	-0.377773	0.823115	-0.423993
59094	8.622007	-1.700100	-4.158843	0.835944	-0.282846	-0.051942	0.011217	0.464702	0.885396	0.922626	0.336582	-0.188344	-0.385532	0.819002	-0.424970
59095	8.451997	-2.019135	-4.166093	0.864848	-0.282216	-0.057331	0.009578	0.466842	0.884289	0.919263	0.343912	-0.191518	-0.393526	0.814729	-0.425857
59096	8.391400	-1.659959	-4.111759	0.840956	-0.285893	-0.047229	0.007994	0.469031	0.883145	0.915926	0.350966	-0.194686	-0.401267	0.810452	-0.426792
59097	8.567353	-2.202783	-4.126586	0.830535	-0.284050	-0.045782	0.006413	0.471194	0.882006	0.912565	0.357893	-0.197832	-0.408881	0.806157	-0.427701
59098	8.513793	-2.058341	-4.161359	0.835694	-0.288693	-0.036756	0.004872	0.473413	0.880827	0.909119	0.364784	-0.201086	-0.416508	0.801756	-0.428611
59099	8.429557	-2.260746	-4.385692	0.832936	-0.288839	-0.039747	0.003284	0.475605	0.879653	0.905620	0.371631	-0.204312	-0.424078	0.797302	-0.429497
59100	8.562997	-1.894712	-4.306538	0.817949	-0.285526	-0.044698	0.001644	0.477737	0.878501	0.902122	0.378346	-0.207436	-0.431477	0.792856	-0.430356
59101	8.305215	-2.211374	-4.197960	0.834449	-0.284563	-0.044657	-0.000010	0.479845	0.877353	0.898491	0.385155	-0.210640	-0.438992	0.788292	-0.431141
59102	8.356712	-2.016665	-4.174727	0.827346	-0.289203	-0.031336	-0.001587	0.482026	0.876155	0.894828	0.391808	-0.213936	-0.446407	0.783669	-0.431953
59103	8.477536	-2.470854	-4.231525	0.810020	-0.287317	-0.030515	-0.003167	0.484179	0.874963	0.891183	0.398283	-0.217173	-0.453634	0.779064	-0.432753
59104	8.476065	-2.261722	-4.210296	0.825468	-0.291472	-0.025619	-0.004744	0.486369	0.873740	0.887407	0.404818	-0.220525	-0.460962	0.774317	-0.433528
59105	8.402042	-2.307635	-4.330961	0.831481	-0.289635	-0.031170	-0.006380	0.488506	0.872537	0.883542	0.411387	-0.223862	-0.468308	0.769495	-0.434240
59106	8.433876	-2.186851	-4.254705	0.803234	-0.290270	-0.028936	-0.008022	0.490642	0.871324	0.879751	0.417689	-0.227101	-0.475368	0.764726	-0.434993
59107	8.207965	-2.419412	-4.293772	0.812988	-0.292840	-0.023878	-0.009648	0.492802	0.870088	0.875855	0.424002	-0.230435	-0.482478	0.759848	-0.435713
59108	8.276350	-2.238950	-4.331376	0.803754	-0.292699	-0.023247	-0.011291	0.494948	0.868850	0.871947	0.430204	-0.233738	-0.489470	0.754951	-0.436426
59109	8.457288	-2.612460	-4.179483	0.795706	-0.292439	-0.016066	-0.012888	0.497106	0.867594	0.868023	0.436270	-0.237076	-0.496357	0.750036	-0.437122
59110	8.351631	-2.439005	-4.315506	0.804023	-0.294339	-0.015609	-0.014512	0.499266	0.866327	0.864003	0.442357	-0.240458	-0.503278	0.745019	-0.437787
59111	8.350005	-2.591276	-4.411702	0.805231	-0.292149	-0.020443	-0.016184	0.501371	0.865081	0.859919	0.448437	-0.243811	-0.510174	0.739954	-0.438396
59112	8.388174	-2.416467	-4.211512	0.786188	-0.291588	-0.010779	-0.017793	0.503501	0.863812	0.855881	0.454287	-0.247167	-0.516867	0.734922	-0.439019
59113	8.147565	-2.651301	-4.349262	0.800563	-0.294487	-0.018019	-0.019495	0.505602	0.862547	0.851712	0.460240	-0.250531	-0.523647	0.729757	-0.439600
59114	8.176389	-2.492451	-4.355044	0.797169	-0.299183	-0.011136	-0.021185	0.507753	0.861242	0.847509	0.466092	-0.253941	-0.530357	0.724531	-0.440200
59115	8.392669	-2.685859	-4.322935	0.784541	-0.293049	-0.010323	-0.022853	0.509847	0.859962	0.843320	0.471807	-0.257311	-0.536925	0.719343	-0.440746
59116	8.302834	-2.635940	-4.260649	0.803295	-0.298784	-0.001269	-0.024497	0.512009	0.858631	0.838981	0.477570	-0.260842	-0.543609	0.713985	-0.441265
59117	8.273293	-2.796789	-4.430690	0.782335	-0.298819	-0.001643	-0.026162	0.514153	0.857299	0.834702	0.483142	-0.264285	-0.550080	0.708675	-0.441805
59118	8.309418	-2.581771	-4.315049	0.785422	-0.298097	-0.003843	-0.027863	0.516265	0.855975	0.830356	0.488706	-0.267724	-0.556537	0.703304	-0.442301
59119	8.127706	-2.852360	-4.382150	0.774055	-0.293801	-0.004310	-0.029561	0.518329	0.854670	0.826022	0.494150	-0.271115	-0.562862	0.697962	-0.442758
59120	8.133734	-2.742738	-4.311433	0.769028	-0.298245	0.005673	-0.031223	0.520457	0.853317	0.821672	0.499466	-0.274571	-0.569105	0.692574	-0.443239
59121	8.243773	-2.858871	-4.364064	0.753975	-0.292524	0.005606	-0.032868	0.522528	0.851988	0.817359	0.504638	-0.277965	-0.575190	0.687244	-0.443680
59122	8.173898	-2.906138	-4.256163	0.791683	-0.299477	0.009885	-0.034541	0.524654	0.850615	0.812785	0.510004	-0.281563	-0.581539	0.681641	-0.444047
59123	8.293133	-2.856431	-4.386200	0.780179	-0.302810	0.016465	-0.036195	0.526819	0.849206	0.808229	0.515212	-0.285171	-0.587755	0.676031	-0.444439
59124	8.172526	-2.828319	-4.387957	0.794823	-0.300501	0.002749	-0.037971	0.528882	0.847846	0.803534	0.520547	-0.288728	-0.594047	0.670310	-0.444740
59125	8.032140	-2.945469	-4.456416	0.756329	-0.293576	0.006747	-0.039688	0.530902	0.846504	0.799021	0.525559	-0.292153	-0.599992	0.664779	-0.445060
59126	7.987495	-2.995977	-4.249197	0.766066	-0.301530	0.014842	-0.041410	0.533001	0.845101	0.794408	0.530550	-0.295689	-0.605971	0.659111	-0.445390
59127	8.251679	-3.227117	-4.460798	0.720538	-0.300940	0.023151	-0.043077	0.535124	0.843675	0.790031	0.535155	-0.299099	-0.611551	0.653645	-0.445818
59128	7.912890	-3.442878	-4.516200	0.733737	-0.294460	0.026209	-0.044702	0.537206	0.842266	0.785536	0.539789	-0.302592	-0.617200	0.648103	-0.446124
59129	8.233678	-3.138685	-4.458013	0.741674	-0.301813	0.022797	-0.046414	0.539301	0.840833	0.780947	0.544451	-0.306097	-0.622870	0.642439	-0.446436
59130	8.078429	-3.129243	-4.322796	0.741994	-0.299938	0.023185	-0.048133	0.541370	0.839405	0.776316	0.549070	-0.309605	-0.628503	0.636742	-0.446703
59131	8.199787	-2.963756	-4.329570	0.729925	-0.299871	0.016970	-0.049914	0.543389	0.837996	0.771716	0.553604	-0.313012	-0.634005	0.631072	-0.446974
59132	7.853877	-3.209746	-4.339318	0.743592	-0.299066	0.025478	-0.051646	0.545432	0.836562	0.766995	0.558136	-0.316550	-0.639572	0.625290	-0.447169
59133	8.125680	-3.119310	-4.316833	0.731592	-0.300991	0.034959	-0.053331	0.547525	0.835088	0.762314	0.562497	-0.320117	-0.645007	0.619527	-0.447385
59134	8.038473	-3.454512	-4.312067	0.733949	-0.295702	0.030101	-0.055042	0.549542	0.833651	0.757577	0.566857	-0.323652	-0.650421	0.613740	-0.447521
59135	8.077990	-3.045123	-4.399558	0.751689	-0.304665	0.036015	-0.056780	0.551630	0.832154	0.752687	0.571248	-0.327320	-0.655926	0.607766	-0.447640
59136	7.984201	-3.279761	-4.407717	0.751680	-0.301874	0.030998	-0.058560	0.553657	0.830684	0.747754	0.575622	-0.330943	-0.661388	0.601767	-0.447707
59137	8.052164	-3.231911	-4.364518	0.726371	-0.303557	0.031082	-0.060364	0.555676	0.829204	0.742949	0.579798	-0.334456	-0.666621	0.595867	-0.447838
59138	7.694705	-3.506040	-4.408937	0.723011	-0.301920	0.040389	-0.062110	0.557724	0.827699	0.738136	0.583859	-0.338029	-0.671787	0.589960	-0.447940
59139	8.022269	-3.348907	-4.339420	0.725046	-0.303103	0.037354	-0.063900	0.559744	0.826198	0.733269	0.587905	-0.341590	-0.676929	0.583998	-0.448010
59140	8.007342	-3.451914	-4.416624	0.710072	-0.291391	0.042210	-0.065596	0.561708	0.824731	0.728473	0.591794	-0.345119	-0.681927	0.578156	-0.448009
59141	7.904858	-3.529457	-4.337624	0.746106	-0.303294	0.042625	-0.067384	0.563727	0.823208	0.723393	0.595843	-0.348816	-0.687140	0.571998	-0.447947
59142	7.926711	-3.589350	-4.375810	0.731325	-0.297153	0.046204	-0.069126	0.565716	0.821698	0.718382	0.599743	-0.352472	-0.692206	0.565928	-0.447857
59143	7.825892	-3.698838	-4.522818	0.714462	-0.305527	0.045840	-0.070941	0.567733	0.820151	0.713450	0.603503	-0.356051	-0.697106	0.559878	-0.447862
59144	7.852602	-3.755313	-4.469734	0.693058	-0.298471	0.042066	-0.072755	0.569671	0.818647	0.708633	0.607123	-0.359500	-0.701816	0.553965	-0.447859
59145	7.808046	-3.609486	-4.296592	0.713752	-0.298260	0.057535	-0.074471	0.571685	0.817086	0.703648	0.610726	-0.363170	-0.706635	0.547896	-0.447747
59146	7.971263	-3.805447	-4.343660	0.683346	-0.291691	0.055213	-0.076178	0.573633	0.815562	0.698846	0.614133	-0.366680	-0.711204	0.542020	-0.447665
59147	7.716102	-3.892305	-4.490799	0.679618	-0.299952	0.057609	-0.077939	0.575626	0.813991	0.694041	0.617464	-0.370196	-0.715704	0.536090	-0.447632
59148	7.923931	-3.653049	-4.378802	0.688454	-0.301003	0.059514	-0.079714	0.577619	0.812405	0.689146	0.620790	-0.373761	-0.720225	0.530072	-0.447550
59149	7.664558	-3.785981	-4.350353	0.711342	-0.304183	0.059789	-0.081524	0.579614	0.810803	0.684053	0.624192	-0.377433	-0.724862	0.523862	-0.447374
59150	7.903010	-3.674182	-4.458639	0.686123	-0.297013	0.054351	-0.083340	0.581521	0.809251	0.679110	0.627449	-0.380942	-0.729290	0.517823	-0.447208
59151	7.707406	-3.970572	-4.260069	0.685951	-0.295365	0.058763	-0.085125	0.583431	0.807689	0.674141	0.630637	-0.384488	-0.733681	0.511767	-0.446998
59152	7.847702	-3.882602	-4.366594	0.675452	-0.292507	0.065319	-0.086866	0.585352	0.806113	0.669228	0.633691	-0.388034	-0.737962	0.505766	-0.446780
59153	7.699834	-4.009123	-4.400716	0.668600	-0.285528	0.072415	-0.088519	0.587267	0.804539	0.664342	0.636627	-0.391607	-0.742168	0.499824	-0.446499
59154	7.712241	-4.010697	-4.290022	0.702557	-0.302095	0.066924	-0.090352	0.589213	0.802910	0.659173	0.639722	-0.395281	-0.746543	0.493543	-0.446193
59155	7.766610	-3.915329	-4.346698	0.681399	-0.291610	0.067275	-0.092116	0.591094	0.801326	0.654132	0.642666	-0.398863	-0.750750	0.487431	-0.445853
59156	7.635332	-3.897331	-4.436963	0.691311	-0.306092	0.074067	-0.093966	0.593072	0.799648	0.648997	0.645574	-0.402538	-0.754966	0.481145	-0.445564
59157	7.657029	-4.027673	-4.285830	0.658037	-0.289731	0.067614	-0.095745	0.594913	0.798067	0.644079	0.648318	-0.406013	-0.758943	0.475145	-0.445244
59158	7.619724	-4.097262	-4.274032	0.676521	-0.296378	0.076706	-0.097536	0.596828	0.796419	0.639006	0.651053	-0.409635	-0.762993	0.468962	-0.444878
59159	7.718679	-4.284541	-4.418910	0.649913	-0.292737	0.078506	-0.099299	0.598723	0.794777	0.634110	0.653611	-0.413154	-0.766840	0.462951	-0.444559
59160	7.696718	-4.351527	-4.348505	0.628195	-0.288708	0.080888	-0.101035	0.600598	0.793142	0.629363	0.656015	-0.416588	-0.770515	0.457084	-0.444275
59161	7.681598	-4.021869	-4.300695	0.655513	-0.298596	0.080403	-0.102861	0.602500	0.791463	0.624380	0.658507	-0.420141	-0.774318	0.450958	-0.443924
59162	7.477770	-4.143701	-4.299791	0.657844	-0.289119	0.084796	-0.104607	0.604371	0.789805	0.619363	0.660941	-0.423730	-0.778105	0.444851	-0.443464
59163	7.725278	-4.061767	-4.326594	0.665547	-0.298414	0.077609	-0.106479	0.606221	0.788136	0.614252	0.663410	-0.427296	-0.781893	0.438616	-0.443012
59164	7.408610	-4.379568	-4.233889	0.654400	-0.285328	0.087893	-0.108207	0.608065	0.786479	0.609218	0.665725	-0.430886	-0.785585	0.432513	-0.442480
59165	7.641343	-4.334746	-4.306741	0.655466	-0.292483	0.082338	-0.110034	0.609887	0.784812	0.604145	0.668038	-0.434436	-0.789241	0.426338	-0.441967
59166	7.477115	-4.489319	-4.391861	0.642174	-0.284580	0.088536	-0.111782	0.611700	0.783153	0.599165	0.670214	-0.437966	-0.792784	0.420281	-0.441427
59167	7.448246	-4.635056	-4.381189	0.626717	-0.288835	0.091995	-0.113552	0.613539	0.781457	0.594287	0.672265	-0.441455	-0.796196	0.414282	-0.440956
59168	7.706145	-4.327554	-4.313720	0.634997	-0.295339	0.091346	-0.115397	0.615385	0.779734	0.589326	0.674314	-0.444967	-0.799611	0.408170	-0.440476
59169	7.320664	-4.620507	-4.282336	0.638402	-0.292170	0.099600	-0.117178	0.617257	0.777986	0.584324	0.676285	-0.448558	-0.803016	0.402035	-0.439924
59170	7.595421	-4.509894	-4.382464	0.608458	-0.290565	0.088955	-0.119028	0.619034	0.776292	0.579534	0.678162	-0.451924	-0.806208	0.396096	-0.439472
59171	7.308786	-4.702702	-4.219578	0.617363	-0.287198	0.093369	-0.120834	0.620813	0.774590	0.574657	0.680009	-0.455364	-0.809425	0.390100	-0.438923
59172	7.509391	-4.500877	-4.183418	0.614106	-0.280040	0.101846	-0.122552	0.622606	0.772880	0.569802	0.681753	-0.458846	-0.812593	0.384156	-0.438312
59173	7.478338	-4.464757	-4.360417	0.614733	-0.283245	0.098726	-0.124323	0.624375	0.771168	0.564916	0.683479	-0.462306	-0.815729	0.378170	-0.437691
59174	7.349346	-4.848838	-4.312198	0.626680	-0.286144	0.101426	-0.126121	0.626157	0.769429	0.559922	0.685195	-0.465828	-0.818890	0.372070	-0.437016
59175	7.533655	-4.584105	-4.178789	0.621715	-0.284611	0.101633	-0.127914	0.627920	0.767695	0.554948	0.686850	-0.469329	-0.821992	0.365997	-0.436321
59176	7.270645	-4.937190	-4.328604	0.625694	-0.288650	0.106762	-0.129732	0.629715	0.765917	0.549934	0.688449	-0.472875	-0.825071	0.359857	-0.435616
59177	7.398448	-4.753289	-4.284557	0.595724	-0.276646	0.102166	-0.131484	0.631422	0.764211	0.545141	0.689929	-0.476255	-0.827969	0.353983	-0.434929
59178	7.265638	-4.764463	-4.091280	0.603704	-0.284479	0.107381	-0.133291	0.633175	0.762445	0.540277	0.691369	-0.479698	-0.830864	0.347992	-0.434243
59179	7.328052	-4.778826	-4.177627	0.589029	-0.277803	0.109681	-0.135038	0.634908	0.760695	0.535519	0.692704	-0.483094	-0.833657	0.342130	-0.433547
59180	7.340061	-4.760466	-4.306426	0.585455	-0.281213	0.108526	-0.136839	0.636627	0.758934	0.530779	0.693999	-0.486455	-0.836390	0.336260	-0.432874
59181	7.254317	-5.112450	-4.228997	0.602773	-0.283209	0.112221	-0.138644	0.638364	0.757145	0.525881	0.695291	-0.489918	-0.839182	0.330244	-0.432101
59182	7.392611	-4.810261	-4.153289	0.595001	-0.281686	0.112588	-0.140453	0.640082	0.755359	0.521038	0.696518	-0.493338	-0.841898	0.324280	-0.431335
59183	7.130245	-5.026088	-4.237392	0.603227	-0.283802	0.114621	-0.142277	0.641807	0.753552	0.516110	0.697720	-0.496808	-0.844623	0.318231	-0.430513
59184	7.296165	-4.930672	-4.233313	0.570185	-0.273540	0.107918	-0.144068	0.643435	0.751822	0.511442	0.698823	-0.500072	-0.847155	0.312469	-0.429758
59185	7.202252	-5.030096	-4.042147	0.599271	-0.274712	0.117635	-0.145825	0.645122	0.750035	0.506525	0.699918	-0.503534	-0.849804	0.306484	-0.428836
59186	7.231462	-5.185831	-4.197563	0.567265	-0.274156	0.117823	-0.147596	0.646791	0.748249	0.501871	0.700879	-0.506847	-0.852256	0.300716	-0.428053
59187	7.254037	-5.070444	-4.321256	0.557874	-0.271280	0.118329	-0.149345	0.648442	0.746471	0.497283	0.701772	-0.510123	-0.854638	0.295023	-0.427266
59188	7.105969	-5.358033	-4.109265	0.580998	-0.276514	0.120911	-0.151145	0.650110	0.744656	0.492493	0.702684	-0.513504	-0.857092	0.289124	-0.426382
59189	7.324949	-4.823339	-4.108223	0.579693	-0.274668	0.123263	-0.152924	0.651776	0.742834	0.487701	0.703538	-0.516896	-0.859512	0.283235	-0.425460
59190	6.942100	-5.325222	-4.211859	0.571747	-0.278785	0.126992	-0.154739	0.653462	0.740975	0.482977	0.704312	-0.520268	-0.861852	0.277368	-0.424591
59191	7.186668	-5.077318	-4.095721	0.551372	-0.266354	0.122759	-0.156473	0.655071	0.739188	0.478406	0.705020	-0.523521	-0.864085	0.271715	-0.423707
59192	7.063107	-5.268161	-4.104991	0.563700	-0.269013	0.125654	-0.158234	0.656690	0.737373	0.473728	0.705711	-0.526834	-0.866339	0.265951	-0.422760
59193	7.113256	-5.258264	-4.032702	0.551602	-0.267380	0.124693	-0.159992	0.658287	0.735569	0.469138	0.706340	-0.530088	-0.868512	0.260273	-0.421836
59194	7.176104	-5.303751	-4.228044	0.554409	-0.267421	0.126137	-0.161760	0.659876	0.733755	0.464521	0.706935	-0.533351	-0.870663	0.254569	-0.420880
59195	6.944226	-5.665631	-4.200981	0.528555	-0.266418	0.125089	-0.163530	0.661444	0.731950	0.460113	0.707438	-0.536496	-0.872670	0.249046	-0.420026
59196	7.170198	-5.209724	-4.018781	0.548902	-0.272722	0.136932	-0.165318	0.663094	0.730053	0.455543	0.707882	-0.539800	-0.874728	0.243332	-0.419094
59197	6.932312	-5.500691	-4.070360	0.562799	-0.268027	0.133336	-0.167087	0.664694	0.728192	0.450832	0.708347	-0.543134	-0.876831	0.237542	-0.418021
59198	7.031796	-5.207139	-4.107522	0.553236	-0.263633	0.132316	-0.168841	0.666259	0.726355	0.446199	0.708765	-0.546405	-0.878862	0.231843	-0.416952
59199	6.828818	-5.639826	-3.962310	0.540970	-0.262209	0.131175	-0.170591	0.667801	0.724528	0.441658	0.709127	-0.549616	-0.880816	0.226234	-0.415910
59200	7.038794	-5.468498	-4.082534	0.541026	-0.262133	0.132906	-0.172351	0.669338	0.722691	0.437116	0.709446	-0.552825	-0.882737	0.220620	-0.414853
59201	7.047584	-5.526650	-4.052830	0.532718	-0.261670	0.135563	-0.174100	0.670881	0.720838	0.432639	0.709696	-0.556017	-0.884597	0.215060	-0.413808
59202	6.958691	-5.587489	-4.047268	0.516154	-0.260013	0.133263	-0.175862	0.672387	0.719005	0.428303	0.709896	-0.559110	-0.886357	0.209626	-0.412829
59203	6.884579	-5.537179	-3.968167	0.534322	-0.266611	0.141216	-0.177652	0.673952	0.717098	0.423808	0.710048	-0.562333	-0.888159	0.204012	-0.411767
59204	6.808694	-5.759660	-4.019703	0.510113	-0.254572	0.143565	-0.179342	0.675491	0.715226	0.419530	0.710106	-0.565459	-0.889849	0.198648	-0.410741
59205	6.898173	-5.613055	-3.974938	0.530166	-0.262742	0.140942	-0.181121	0.677017	0.713332	0.415057	0.710189	-0.568647	-0.891584	0.193080	-0.409631
59206	6.840285	-5.762035	-4.010103	0.507458	-0.251586	0.136996	-0.182833	0.678477	0.711506	0.410779	0.710226	-0.571699	-0.893215	0.187746	-0.408557
59207	6.864239	-5.696690	-3.956569	0.507423	-0.251647	0.138564	-0.184543	0.679937	0.709669	0.406492	0.710221	-0.574761	-0.894823	0.182407	-0.407455
59208	6.829172	-5.823809	-3.962413	0.497579	-0.252838	0.141010	-0.186270	0.681400	0.707812	0.402298	0.710155	-0.577785	-0.896359	0.177128	-0.406407
59209	6.897840	-5.717329	-3.979025	0.501797	-0.252897	0.140656	-0.188002	0.682849	0.705954	0.398055	0.710068	-0.580823	-0.897890	0.171813	-0.405306
59210	6.676025	-5.979928	-3.999644	0.515563	-0.248176	0.147139	-0.189683	0.684321	0.704078	0.393701	0.709934	-0.583947	-0.899455	0.166431	-0.404080
59211	6.789259	-5.771383	-3.876631	0.511708	-0.255533	0.148646	-0.191428	0.685804	0.702160	0.389372	0.709750	-0.587063	-0.900969	0.161021	-0.402899
59212	6.662148	-6.002540	-3.891936	0.524514	-0.254124	0.146203	-0.193187	0.687250	0.700262	0.384925	0.709576	-0.590198	-0.902503	0.155530	-0.401620
59213	6.765526	-5.714254	-3.957021	0.498595	-0.245308	0.146349	-0.194869	0.688672	0.698396	0.380700	0.709329	-0.593229	-0.903932	0.150278	-0.400404
59214	6.695996	-5.990719	-3.807652	0.480118	-0.245685	0.143629	-0.196581	0.690060	0.696544	0.376639	0.709047	-0.596150	-0.905262	0.145154	-0.399289
59215	6.814934	-5.864356	-3.779155	0.482942	-0.247878	0.149173	-0.198294	0.691479	0.694648	0.372553	0.708702	-0.599120	-0.906578	0.139992	-0.398144
