// General information: 
//  MT Manager version: 2019.2.0 
//  XDA version: 2019.2.0 build 3853 rev 94535 built on 2019-09-09
// Device information: 
//  DeviceId: 00B44112
//  ProductCode: MTW2-3A7G6
//  Firmware Version: 4.3.5
//  Hardware Version: 1.1.0
// Device settings: 
//  Filter Profile: human(46.1)
//  Option Flags: Orientation Smoother Disabled, AHS Disabled, ICC Disabled
// Coordinate system: ENU
PacketCounter	Acc_X	Acc_Y	Acc_Z	Gyr_X	Gyr_Y	Gyr_Z	Mat[1][1]	Mat[2][1]	Mat[3][1]	Mat[1][2]	Mat[2][2]	Mat[3][2]	Mat[1][3]	Mat[2][3]	Mat[3][3]
58398	9.338628	-0.673622	3.132777	-0.000436	0.002604	0.004601	0.254070	0.202814	0.945682	-0.449313	0.890605	-0.070288	-0.856485	-0.407049	0.317403
58399	9.336664	-0.685496	3.111534	0.001564	0.001349	0.002880	0.254078	0.202809	0.945681	-0.449327	0.890599	-0.070274	-0.856475	-0.407065	0.317409
58400	9.287713	-0.689793	3.145981	-0.002567	0.003048	0.003100	0.254102	0.202812	0.945674	-0.449308	0.890609	-0.070273	-0.856478	-0.407043	0.317430
58401	9.336298	-0.728165	3.106671	0.000831	-0.000172	0.005061	0.254088	0.202819	0.945676	-0.449325	0.890600	-0.070280	-0.856473	-0.407058	0.317422
58402	9.338304	-0.675215	3.133400	-0.001801	0.002471	0.006551	0.254091	0.202850	0.945669	-0.449321	0.890599	-0.070310	-0.856474	-0.407044	0.317438
58403	9.320011	-0.702561	3.121720	-0.002798	-0.000671	0.002290	0.254085	0.202831	0.945675	-0.449299	0.890611	-0.070303	-0.856488	-0.407028	0.317422
58404	9.354568	-0.660602	3.123843	0.002996	0.001887	0.002540	0.254101	0.202824	0.945672	-0.449326	0.890599	-0.070279	-0.856469	-0.407057	0.317436
58405	9.319920	-0.703041	3.121884	-0.001300	0.000273	0.003561	0.254102	0.202820	0.945672	-0.449318	0.890603	-0.070278	-0.856473	-0.407050	0.317434
58406	9.358007	-0.680154	3.161685	0.000198	0.001216	0.004831	0.254102	0.202831	0.945670	-0.449327	0.890598	-0.070284	-0.856468	-0.407056	0.317440
58407	9.319814	-0.703857	3.122015	-0.001300	0.000273	0.003560	0.254098	0.202827	0.945672	-0.449320	0.890602	-0.070285	-0.856473	-0.407050	0.317434
58408	9.336153	-0.688838	3.112330	-0.001366	-0.000133	0.001950	0.254100	0.202807	0.945676	-0.449309	0.890609	-0.070270	-0.856478	-0.407045	0.317426
58409	9.337989	-0.677782	3.133784	0.000963	0.000638	0.008281	0.254083	0.202845	0.945672	-0.449334	0.890593	-0.070304	-0.856470	-0.407060	0.317430
58410	9.336060	-0.689767	3.112404	0.000066	0.000405	0.001610	0.254090	0.202824	0.945675	-0.449334	0.890595	-0.070281	-0.856468	-0.407066	0.317428
58411	9.321530	-0.693840	3.143595	0.000198	0.001216	0.004830	0.254090	0.202835	0.945673	-0.449345	0.890589	-0.070287	-0.856462	-0.407074	0.317432
58412	9.319787	-0.663896	3.127505	-0.001867	0.002066	0.004940	0.254097	0.202850	0.945667	-0.449336	0.890592	-0.070302	-0.856465	-0.407059	0.317444
58413	9.335862	-0.690992	3.112726	-0.001300	0.000273	0.003560	0.254092	0.202845	0.945670	-0.449332	0.890594	-0.070301	-0.856468	-0.407057	0.317437
58414	9.353890	-0.706479	3.119172	-0.000034	-0.002504	0.004021	0.254064	0.202834	0.945680	-0.449338	0.890592	-0.070301	-0.856474	-0.407069	0.317408
58415	9.303345	-0.680512	3.137136	0.000264	0.001621	0.006440	0.254060	0.202861	0.945675	-0.449350	0.890583	-0.070323	-0.856468	-0.407073	0.317417
58416	9.371846	-0.722450	3.125720	0.000699	-0.000983	0.001840	0.254054	0.202837	0.945682	-0.449356	0.890582	-0.070300	-0.856467	-0.407088	0.317402
58417	9.301625	-0.650865	3.120936	-0.001168	0.001083	0.006780	0.254045	0.202865	0.945678	-0.449357	0.890580	-0.070331	-0.856470	-0.407079	0.317406
58418	9.335449	-0.734968	3.107620	-0.003330	0.003627	-0.000351	0.254089	0.202840	0.945672	-0.449322	0.890599	-0.070300	-0.856474	-0.407049	0.317432
58419	9.337730	-0.639609	3.139625	0.000066	0.000405	0.001610	0.254098	0.202819	0.945674	-0.449322	0.890602	-0.070277	-0.856472	-0.407055	0.317431
58420	9.318973	-0.750760	3.117510	0.000897	0.000233	0.006670	0.254081	0.202842	0.945673	-0.449342	0.890590	-0.070299	-0.856467	-0.407069	0.317428
58421	9.339521	-0.628849	3.161173	0.001564	0.001348	0.002880	0.254089	0.202837	0.945672	-0.449356	0.890583	-0.070285	-0.856456	-0.407085	0.317434
58422	9.319080	-0.709496	3.122929	-0.001933	0.001661	0.003330	0.254100	0.202836	0.945669	-0.449343	0.890590	-0.070284	-0.856460	-0.407071	0.317442
58423	9.337258	-0.682906	3.134851	0.002997	0.001886	0.002540	0.254118	0.202829	0.945666	-0.449371	0.890578	-0.070260	-0.856440	-0.407101	0.317457
58424	9.337203	-0.683164	3.134958	-0.001300	0.000273	0.003560	0.254116	0.202825	0.945668	-0.449364	0.890582	-0.070259	-0.856444	-0.407095	0.317453
58425	9.336947	-0.725689	3.129677	0.002228	-0.002139	0.008740	0.254073	0.202856	0.945672	-0.449401	0.890560	-0.070294	-0.856438	-0.407127	0.317431
58426	9.335297	-0.695710	3.113368	0.000066	0.000405	0.001610	0.254081	0.202835	0.945675	-0.449401	0.890562	-0.070271	-0.856435	-0.407133	0.317429
58427	9.337147	-0.684508	3.134831	-0.004797	0.000586	0.004009	0.254079	0.202837	0.945675	-0.449365	0.890579	-0.070286	-0.856455	-0.407095	0.317425
58428	9.320729	-0.700260	3.144546	0.002263	0.000365	0.004720	0.254073	0.202843	0.945675	-0.449392	0.890566	-0.070285	-0.856443	-0.407121	0.317424
58429	9.337024	-0.685361	3.135011	-0.000434	0.002604	0.004599	0.254083	0.202857	0.945670	-0.449397	0.890562	-0.070292	-0.856437	-0.407121	0.317440
58430	9.335086	-0.697308	3.113644	-0.000667	-0.001115	0.003790	0.254068	0.202849	0.945675	-0.449396	0.890563	-0.070292	-0.856442	-0.407124	0.317423
58431	9.336666	-0.728144	3.129945	-0.000434	0.002604	0.004599	0.254077	0.202864	0.945670	-0.449400	0.890560	-0.070300	-0.856437	-0.407122	0.317438
58432	9.335229	-0.656122	3.119003	0.000765	-0.000578	0.003450	0.254068	0.202856	0.945674	-0.449410	0.890556	-0.070292	-0.856434	-0.407136	0.317427
58433	9.336825	-0.686772	3.135296	-0.000566	0.001793	0.001380	0.254090	0.202838	0.945672	-0.449403	0.890561	-0.070269	-0.856432	-0.407133	0.317438
58434	9.333240	-0.668177	3.097766	0.000199	0.001215	0.004829	0.254090	0.202849	0.945669	-0.449412	0.890556	-0.070276	-0.856427	-0.407139	0.317444
58435	9.338329	-0.718054	3.151712	-0.000535	-0.000305	0.007009	0.254068	0.202873	0.945670	-0.449421	0.890549	-0.070305	-0.856429	-0.407142	0.317435
58436	9.318660	-0.673020	3.128912	-0.001300	0.000273	0.003559	0.254066	0.202869	0.945672	-0.449414	0.890553	-0.070304	-0.856433	-0.407136	0.317431
58437	9.334751	-0.700096	3.114022	-0.002732	-0.000264	0.003899	0.254057	0.202866	0.945674	-0.449394	0.890562	-0.070313	-0.856446	-0.407117	0.317421
58438	9.338483	-0.677470	3.156924	0.000199	0.001215	0.004829	0.254058	0.202877	0.945672	-0.449403	0.890557	-0.070320	-0.856441	-0.407123	0.317427
58439	9.354498	-0.704542	3.142255	0.000999	0.003141	0.004259	0.254078	0.202891	0.945664	-0.449417	0.890550	-0.070318	-0.856428	-0.407131	0.317452
58440	9.338056	-0.720211	3.152029	-0.000668	-0.001115	0.003789	0.254063	0.202883	0.945669	-0.449416	0.890551	-0.070318	-0.856433	-0.407134	0.317435
58441	9.318381	-0.675059	3.129302	-0.000433	0.002604	0.004599	0.254078	0.202898	0.945662	-0.449418	0.890549	-0.070324	-0.856427	-0.407130	0.317455
58442	9.316377	-0.687186	3.108084	0.000332	0.002025	0.008049	0.254071	0.202941	0.945655	-0.449437	0.890537	-0.070361	-0.856420	-0.407135	0.317468
58443	9.336210	-0.691305	3.136130	-0.002799	-0.000669	0.002289	0.254067	0.202920	0.945660	-0.449416	0.890548	-0.070351	-0.856432	-0.407121	0.317454
58444	9.316268	-0.688113	3.108204	0.001698	0.002157	0.006099	0.254070	0.202946	0.945654	-0.449441	0.890534	-0.070365	-0.856418	-0.407138	0.317470
58445	9.352166	-0.718790	3.121528	-0.000499	0.002198	0.002989	0.254083	0.202945	0.945651	-0.449442	0.890534	-0.070357	-0.856413	-0.407139	0.317482
58446	9.319877	-0.665855	3.151407	-0.001233	0.000678	0.005169	0.254077	0.202956	0.945650	-0.449440	0.890534	-0.070372	-0.856416	-0.407133	0.317481
58447	9.337527	-0.723403	3.152863	-0.001932	0.001662	0.003329	0.254088	0.202957	0.945647	-0.449425	0.890542	-0.070373	-0.856421	-0.407116	0.317490
58448	9.335869	-0.693233	3.136720	0.000066	0.000405	0.001610	0.254096	0.202936	0.945649	-0.449424	0.890544	-0.070350	-0.856419	-0.407122	0.317488
58449	9.354099	-0.666853	3.148532	0.000964	0.000636	0.008278	0.254077	0.202975	0.945646	-0.449447	0.890529	-0.070387	-0.856412	-0.407134	0.317490
58450	9.335784	-0.694237	3.136751	-0.000668	-0.001116	0.003789	0.254062	0.202967	0.945652	-0.449447	0.890530	-0.070387	-0.856417	-0.407137	0.317473
58451	9.317742	-0.679393	3.130268	0.000934	0.002735	0.002649	0.254085	0.202965	0.945646	-0.449457	0.890526	-0.070371	-0.856405	-0.407147	0.317493
58452	9.319283	-0.710156	3.146611	-0.002732	-0.000264	0.003898	0.254077	0.202962	0.945649	-0.449438	0.890535	-0.070378	-0.856417	-0.407129	0.317483
58453	9.335629	-0.695314	3.136972	0.000199	0.001215	0.004829	0.254077	0.202972	0.945646	-0.449450	0.890529	-0.070383	-0.856411	-0.407138	0.317489
58454	9.350053	-0.692117	3.105967	-0.001167	0.001083	0.006778	0.254068	0.203000	0.945643	-0.449452	0.890525	-0.070412	-0.856413	-0.407132	0.317492
58455	9.320988	-0.700108	3.168269	0.000133	0.000810	0.003219	0.254072	0.202995	0.945643	-0.449455	0.890524	-0.070404	-0.856409	-0.407137	0.317495
58456	9.333533	-0.708221	3.115835	-0.001931	0.001662	0.003328	0.254083	0.202994	0.945640	-0.449443	0.890531	-0.070404	-0.856413	-0.407122	0.317503
58457	9.351768	-0.681774	3.127676	-0.001300	0.000273	0.003559	0.254082	0.202989	0.945641	-0.449436	0.890534	-0.070402	-0.856417	-0.407117	0.317500
58458	9.317373	-0.682324	3.130730	0.001463	-0.001563	0.005289	0.254057	0.202993	0.945647	-0.449457	0.890523	-0.070410	-0.856413	-0.407140	0.317480
58459	9.333766	-0.667374	3.120995	0.002197	-0.000043	0.003110	0.254052	0.202983	0.945651	-0.449480	0.890512	-0.070394	-0.856403	-0.407167	0.317473
58460	9.317310	-0.683028	3.130763	-0.001864	0.002067	0.004938	0.254059	0.202999	0.945646	-0.449472	0.890516	-0.070408	-0.856405	-0.407153	0.317486
58461	9.333357	-0.710155	3.115923	-0.000668	-0.001116	0.003789	0.254045	0.202991	0.945651	-0.449470	0.890517	-0.070408	-0.856410	-0.407155	0.317470
58462	9.335548	-0.657032	3.142515	-0.001300	0.000273	0.003558	0.254043	0.202987	0.945652	-0.449463	0.890520	-0.070407	-0.856414	-0.407149	0.317465
58463	9.334925	-0.741372	3.132031	-0.002101	-0.001652	0.004128	0.254022	0.202980	0.945660	-0.449451	0.890526	-0.070415	-0.856427	-0.407140	0.317442
58464	9.333646	-0.669425	3.120915	0.000831	-0.000174	0.005058	0.254009	0.202987	0.945661	-0.449466	0.890517	-0.070422	-0.856423	-0.407155	0.317435
58465	9.355107	-0.703738	3.165104	-0.001433	-0.000536	0.000340	0.254013	0.202951	0.945668	-0.449451	0.890527	-0.070391	-0.856429	-0.407151	0.317422
58466	9.319125	-0.673809	3.151942	-0.000535	-0.000306	0.007007	0.253991	0.202975	0.945669	-0.449459	0.890521	-0.070421	-0.856432	-0.407153	0.317413
58467	9.333297	-0.712546	3.115558	-0.000668	-0.001116	0.003788	0.253975	0.202967	0.945675	-0.449458	0.890521	-0.070421	-0.856437	-0.407156	0.317396
58468	9.353468	-0.674465	3.148784	-0.000565	0.001794	0.001379	0.253996	0.202950	0.945673	-0.449452	0.890526	-0.070397	-0.856434	-0.407154	0.317406
58469	9.335092	-0.701647	3.137163	-0.003297	0.001530	0.005277	0.253999	0.202965	0.945669	-0.449433	0.890534	-0.070418	-0.856443	-0.407129	0.317414
58470	9.316748	-0.728790	3.125445	0.002131	-0.000448	0.001500	0.254000	0.202940	0.945674	-0.449451	0.890528	-0.070387	-0.856433	-0.407156	0.317406
58471	9.349849	-0.656567	3.111322	-0.001233	0.000678	0.005167	0.253992	0.202951	0.945674	-0.449449	0.890527	-0.070402	-0.856437	-0.407151	0.317403
58472	9.315103	-0.699023	3.109262	0.002197	-0.000043	0.003109	0.253989	0.202942	0.945676	-0.449471	0.890518	-0.070386	-0.856426	-0.407177	0.317399
58473	9.316951	-0.687901	3.130764	-0.003296	0.001531	0.005277	0.253991	0.202958	0.945673	-0.449451	0.890526	-0.070408	-0.856436	-0.407151	0.317405
58474	9.332978	-0.714996	3.115951	0.002197	-0.000043	0.003109	0.253988	0.202949	0.945675	-0.449473	0.890516	-0.070393	-0.856425	-0.407177	0.317400
58475	9.300773	-0.661917	3.145783	-0.001930	0.001662	0.003328	0.253999	0.202948	0.945673	-0.449462	0.890522	-0.070390	-0.856428	-0.407164	0.317409
58476	9.367267	-0.715473	3.112991	0.002197	-0.000043	0.003109	0.253997	0.202938	0.945675	-0.449484	0.890512	-0.070375	-0.856417	-0.407191	0.317404
58477	9.336660	-0.692863	3.158976	0.000831	-0.000175	0.005058	0.253984	0.202945	0.945677	-0.449499	0.890504	-0.070381	-0.856413	-0.407206	0.317397
58478	9.332804	-0.716368	3.116157	0.000200	0.001214	0.004828	0.253984	0.202956	0.945675	-0.449508	0.890499	-0.070388	-0.856408	-0.407211	0.317403
58479	9.349490	-0.659539	3.111773	0.002264	0.000361	0.004718	0.253977	0.202963	0.945675	-0.449534	0.890486	-0.070388	-0.856397	-0.407236	0.317401
58480	9.336479	-0.694160	3.159225	-0.001863	0.002067	0.004937	0.253984	0.202978	0.945670	-0.449526	0.890489	-0.070403	-0.856399	-0.407222	0.317414
58481	9.331043	-0.687268	3.100208	0.000831	-0.000175	0.005058	0.253969	0.202986	0.945673	-0.449541	0.890480	-0.070410	-0.856395	-0.407237	0.317405
58482	9.336346	-0.694938	3.159449	-0.001195	0.003183	0.001149	0.254003	0.202972	0.945666	-0.449529	0.890488	-0.070387	-0.856391	-0.407226	0.317428
58483	9.350804	-0.691457	3.128433	-0.000668	-0.001116	0.003788	0.253986	0.202964	0.945673	-0.449528	0.890489	-0.070388	-0.856397	-0.407229	0.317409
58484	9.351116	-0.649904	3.133642	0.000200	0.001214	0.004827	0.253986	0.202975	0.945670	-0.449537	0.890484	-0.070395	-0.856392	-0.407234	0.317415
58485	9.299590	-0.749574	3.136044	0.000764	-0.000580	0.003448	0.253978	0.202967	0.945674	-0.449547	0.890479	-0.070387	-0.856390	-0.407248	0.317405
58486	9.365570	-0.646873	3.102552	-0.001299	0.000273	0.003558	0.253975	0.202963	0.945676	-0.449540	0.890483	-0.070386	-0.856394	-0.407242	0.317401
58487	9.314383	-0.704540	3.110174	0.000134	0.000809	0.003218	0.253978	0.202958	0.945676	-0.449542	0.890482	-0.070380	-0.856392	-0.407246	0.317401
58488	9.352558	-0.681866	3.149894	0.000096	-0.001696	0.007236	0.253942	0.202979	0.945681	-0.449556	0.890473	-0.070410	-0.856395	-0.407257	0.317379
58489	9.334177	-0.709146	3.138197	-0.004691	0.003500	0.001597	0.253975	0.202970	0.945674	-0.449517	0.890493	-0.070402	-0.856406	-0.407216	0.317401
58490	9.318043	-0.682708	3.153226	0.002197	-0.000044	0.003109	0.253972	0.202961	0.945677	-0.449538	0.890484	-0.070387	-0.856396	-0.407242	0.317396
58491	9.352426	-0.682946	3.150054	0.001462	-0.001565	0.005288	0.253945	0.202965	0.945683	-0.449558	0.890473	-0.070395	-0.856393	-0.407264	0.317376
58492	9.316122	-0.694979	3.131668	-0.001299	0.000273	0.003557	0.253943	0.202961	0.945685	-0.449552	0.890476	-0.070395	-0.856397	-0.407258	0.317371
58493	9.350468	-0.695220	3.128604	0.000134	0.000809	0.003218	0.253947	0.202955	0.945685	-0.449557	0.890474	-0.070386	-0.856393	-0.407265	0.317373
58494	9.316022	-0.695683	3.131810	0.000201	0.001214	0.004827	0.253947	0.202966	0.945683	-0.449566	0.890469	-0.070392	-0.856388	-0.407271	0.317378
58495	9.315978	-0.696165	3.131832	-0.000602	-0.000711	0.005396	0.253930	0.202974	0.945686	-0.449570	0.890466	-0.070406	-0.856391	-0.407274	0.317367
58496	9.350345	-0.696411	3.128706	0.000067	0.000405	0.001609	0.253937	0.202953	0.945688	-0.449570	0.890468	-0.070383	-0.856389	-0.407280	0.317365
58497	9.314400	-0.666400	3.115554	-0.004165	-0.000798	0.004236	0.253921	0.202950	0.945693	-0.449541	0.890481	-0.070399	-0.856409	-0.407252	0.317347
58498	9.351812	-0.727819	3.144945	0.000335	0.002022	0.008045	0.253914	0.202993	0.945686	-0.449560	0.890469	-0.070436	-0.856402	-0.407257	0.317360
58499	9.350566	-0.655865	3.134040	0.000067	0.000404	0.001609	0.253921	0.202972	0.945688	-0.449560	0.890471	-0.070412	-0.856399	-0.407265	0.317357
58500	9.331823	-0.724949	3.117110	-0.001232	0.000678	0.005166	0.253915	0.202984	0.945687	-0.449558	0.890471	-0.070427	-0.856402	-0.407259	0.317357
58501	9.334073	-0.671869	3.143759	0.000764	-0.000580	0.003448	0.253906	0.202975	0.945692	-0.449569	0.890466	-0.070418	-0.856399	-0.407274	0.317345
58502	9.333676	-0.714279	3.138523	-0.002665	0.000143	0.005505	0.253894	0.202987	0.945692	-0.449555	0.890471	-0.070441	-0.856410	-0.407257	0.317339
58503	9.334025	-0.672728	3.143719	-0.001366	-0.000131	0.001948	0.253894	0.202967	0.945697	-0.449546	0.890477	-0.070424	-0.856415	-0.407254	0.317329
58504	9.333635	-0.715027	3.138476	-0.002732	-0.000262	0.003896	0.253885	0.202963	0.945700	-0.449528	0.890485	-0.070432	-0.856427	-0.407237	0.317319
58505	9.333955	-0.673286	3.143807	0.002303	0.002864	0.000700	0.253916	0.202944	0.945696	-0.449547	0.890479	-0.070393	-0.856408	-0.407260	0.317339
58506	9.333898	-0.673393	3.143954	0.002197	-0.000045	0.003109	0.253913	0.202935	0.945699	-0.449569	0.890469	-0.070377	-0.856397	-0.407287	0.317335
58507	9.351768	-0.688869	3.150715	-0.003189	0.004441	0.002866	0.253948	0.202941	0.945688	-0.449544	0.890481	-0.070377	-0.856400	-0.407257	0.317367
58508	9.331815	-0.685545	3.122890	0.000764	-0.000581	0.003448	0.253939	0.202932	0.945692	-0.449555	0.890477	-0.070369	-0.856397	-0.407271	0.317356
58509	9.351662	-0.689651	3.150860	-0.002665	0.000143	0.005505	0.253925	0.202946	0.945693	-0.449539	0.890483	-0.070393	-0.856409	-0.407251	0.317348
58510	9.317230	-0.690169	3.154003	0.000134	0.000809	0.003218	0.253929	0.202941	0.945693	-0.449544	0.890481	-0.070385	-0.856406	-0.407257	0.317349
58511	9.382115	-0.713411	3.105023	-0.001929	0.001663	0.003327	0.253942	0.202941	0.945690	-0.449528	0.890489	-0.070385	-0.856410	-0.407240	0.317360
58512	9.317523	-0.648913	3.159341	-0.000669	-0.001116	0.003787	0.253927	0.202933	0.945695	-0.449527	0.890489	-0.070385	-0.856415	-0.407243	0.317343
58513	9.333133	-0.717731	3.139350	0.000173	0.003314	-0.000799	0.253970	0.202903	0.945690	-0.449520	0.890497	-0.070340	-0.856406	-0.407243	0.317368
58514	9.349890	-0.660549	3.135072	0.000067	0.000404	0.001609	0.253977	0.202882	0.945693	-0.449520	0.890498	-0.070317	-0.856404	-0.407249	0.317366
58515	9.315081	-0.702915	3.132995	-0.004795	0.000592	0.004005	0.253973	0.202883	0.945694	-0.449484	0.890515	-0.070333	-0.856424	-0.407212	0.317359
58516	9.351335	-0.691773	3.151364	0.002264	0.000359	0.004717	0.253966	0.202890	0.945694	-0.449511	0.890502	-0.070332	-0.856412	-0.407238	0.317358
58517	9.314968	-0.703692	3.133155	-0.000496	0.002198	0.002987	0.253984	0.202888	0.945689	-0.449508	0.890504	-0.070325	-0.856408	-0.407234	0.317373
58518	9.331332	-0.688735	3.123630	0.000134	0.000809	0.003217	0.253988	0.202883	0.945689	-0.449513	0.890502	-0.070316	-0.856405	-0.407240	0.317375
58519	9.367614	-0.677486	3.141948	-0.000669	-0.001116	0.003787	0.253970	0.202875	0.945696	-0.449514	0.890502	-0.070316	-0.856409	-0.407245	0.317356
58520	9.312959	-0.716254	3.111763	-0.002732	-0.000262	0.003896	0.253962	0.202872	0.945699	-0.449495	0.890510	-0.070323	-0.856421	-0.407228	0.317346
58521	9.351163	-0.693409	3.151517	0.005694	-0.000365	0.002661	0.253957	0.202858	0.945703	-0.449544	0.890488	-0.070294	-0.856397	-0.407283	0.317339
58522	9.331270	-0.690075	3.123519	-0.002665	0.000143	0.005504	0.253945	0.202870	0.945704	-0.449530	0.890493	-0.070317	-0.856408	-0.407266	0.317333
58523	9.349172	-0.705526	3.130169	0.000803	0.001924	-0.000569	0.253975	0.202836	0.945703	-0.449531	0.890496	-0.070270	-0.856398	-0.407276	0.317345
58524	9.352942	-0.682816	3.173156	-0.002597	0.000547	0.007113	0.253960	0.202865	0.945701	-0.449522	0.890498	-0.070308	-0.856408	-0.407258	0.317343
58525	9.330686	-0.733224	3.118577	0.000202	0.001213	0.004826	0.253958	0.202876	0.945699	-0.449530	0.890493	-0.070316	-0.856404	-0.407263	0.317347
58526	9.333364	-0.638224	3.150497	0.000831	-0.000177	0.005056	0.253946	0.202883	0.945701	-0.449545	0.890485	-0.070323	-0.856400	-0.407277	0.317340
58527	9.312641	-0.718957	3.112090	-0.001231	0.000678	0.005165	0.253940	0.202895	0.945700	-0.449543	0.890485	-0.070337	-0.856403	-0.407272	0.317340
58528	9.365309	-0.692398	3.120932	0.002304	0.002863	0.000700	0.253973	0.202876	0.945695	-0.449560	0.890480	-0.070298	-0.856384	-0.407293	0.317362
58529	9.328955	-0.704228	3.102685	-0.004165	-0.000796	0.004234	0.253957	0.202874	0.945700	-0.449528	0.890494	-0.070315	-0.856405	-0.407262	0.317345
58530	9.332753	-0.681670	3.145569	0.000202	0.001212	0.004826	0.253957	0.202885	0.945697	-0.449538	0.890489	-0.070322	-0.856400	-0.407268	0.317351
58531	9.330763	-0.693635	3.124245	0.000202	0.001212	0.004826	0.253955	0.202896	0.945696	-0.449546	0.890484	-0.070331	-0.856397	-0.407272	0.317354
58532	9.345248	-0.690284	3.093176	0.000764	-0.000581	0.003447	0.253946	0.202888	0.945700	-0.449556	0.890480	-0.070323	-0.856394	-0.407287	0.317343
58533	9.330693	-0.694415	3.124280	-0.001231	0.000678	0.005165	0.253940	0.202899	0.945699	-0.449553	0.890480	-0.070338	-0.856397	-0.407280	0.317343
58534	9.328709	-0.706418	3.102926	0.000202	0.001212	0.004826	0.253941	0.202910	0.945696	-0.449562	0.890475	-0.070344	-0.856392	-0.407286	0.317349
58535	9.332490	-0.683747	3.145900	0.000135	0.000808	0.003217	0.253935	0.202857	0.945709	-0.449437	0.890538	-0.070344	-0.856460	-0.407174	0.317310
58536	9.364888	-0.695524	3.121499	-0.000495	0.002198	0.002987	0.253952	0.202856	0.945705	-0.449435	0.890540	-0.070335	-0.856456	-0.407172	0.317325
58537	9.315928	-0.699692	3.155749	-0.004165	-0.000796	0.004234	0.253936	0.202854	0.945710	-0.449406	0.890553	-0.070351	-0.856476	-0.407143	0.317307
58538	9.348341	-0.711546	3.131289	0.000939	0.002732	0.002648	0.253959	0.202851	0.945704	-0.449416	0.890549	-0.070335	-0.856464	-0.407152	0.317328
58539	9.332247	-0.685231	3.146296	-0.002665	0.000143	0.005503	0.253948	0.202864	0.945704	-0.449401	0.890555	-0.070357	-0.856475	-0.407134	0.317322
58540	9.330288	-0.697235	3.124861	-0.001299	0.000274	0.003556	0.253945	0.202860	0.945706	-0.449394	0.890559	-0.070357	-0.856479	-0.407128	0.317317
58541	9.330672	-0.655570	3.130156	0.001568	0.001343	0.002878	0.253956	0.202854	0.945704	-0.449411	0.890552	-0.070340	-0.856467	-0.407147	0.317325
58542	9.313727	-0.713250	3.134682	-0.002597	0.000547	0.007111	0.253940	0.202882	0.945703	-0.449402	0.890553	-0.070378	-0.856477	-0.407129	0.317323
58543	9.364527	-0.698506	3.121916	0.000764	-0.000582	0.003447	0.253929	0.202872	0.945707	-0.449416	0.890547	-0.070368	-0.856472	-0.407148	0.317310
58544	9.328233	-0.710464	3.103435	-0.003536	-0.002185	0.004463	0.253902	0.202866	0.945716	-0.449392	0.890558	-0.070383	-0.856493	-0.407127	0.317281
58545	9.332043	-0.687950	3.146308	0.001703	0.002150	0.006095	0.253906	0.202892	0.945710	-0.449418	0.890544	-0.070396	-0.856479	-0.407144	0.317298
58546	9.364478	-0.699703	3.121796	-0.002934	-0.001473	-0.000931	0.253909	0.202841	0.945720	-0.449385	0.890563	-0.070358	-0.856495	-0.407128	0.317276
58547	9.330095	-0.700029	3.124813	-0.002664	0.000143	0.005503	0.253894	0.202853	0.945721	-0.449373	0.890567	-0.070381	-0.856505	-0.407112	0.317267
58548	9.330486	-0.658476	3.130101	0.001568	0.001342	0.002878	0.253905	0.202847	0.945720	-0.449389	0.890561	-0.070365	-0.856494	-0.407130	0.317275
58549	9.315457	-0.704375	3.156098	-0.001995	0.001259	0.001717	0.253917	0.202831	0.945720	-0.449371	0.890571	-0.070351	-0.856500	-0.407116	0.317277
58550	9.346390	-0.685684	3.115430	0.000135	0.000808	0.003217	0.253921	0.202826	0.945720	-0.449375	0.890569	-0.070343	-0.856496	-0.407122	0.317279
58551	9.327971	-0.712767	3.103694	-0.001298	0.000274	0.003555	0.253920	0.202821	0.945721	-0.449370	0.890572	-0.070341	-0.856500	-0.407118	0.317275
58552	9.348245	-0.674913	3.136921	0.000832	-0.000178	0.005055	0.253907	0.202828	0.945723	-0.449385	0.890564	-0.070348	-0.856495	-0.407132	0.317268
58553	9.328342	-0.671548	3.108982	0.001569	0.001342	0.002878	0.253918	0.202822	0.945721	-0.449401	0.890557	-0.070331	-0.856484	-0.407150	0.317277
58554	9.327814	-0.714027	3.103876	-0.004659	0.001403	0.007219	0.253909	0.202855	0.945717	-0.449375	0.890567	-0.070376	-0.856500	-0.407112	0.317281
58555	9.311750	-0.687780	3.118825	0.000068	0.000404	0.001608	0.253915	0.202834	0.945720	-0.449374	0.890569	-0.070353	-0.856499	-0.407118	0.317277
58556	9.362567	-0.672797	3.106099	-0.001298	0.000274	0.003555	0.253913	0.202830	0.945721	-0.449367	0.890573	-0.070353	-0.856503	-0.407112	0.317273
58557	9.330053	-0.661667	3.130717	-0.001927	0.001663	0.003325	0.253925	0.202829	0.945718	-0.449352	0.890580	-0.070353	-0.856507	-0.407096	0.317282
58558	9.346002	-0.688770	3.115915	-0.001298	0.000274	0.003555	0.253923	0.202825	0.945719	-0.449345	0.890584	-0.070352	-0.856511	-0.407090	0.317278
58559	9.329497	-0.704445	3.125607	-0.001231	0.000677	0.005163	0.253917	0.202837	0.945719	-0.449343	0.890584	-0.070367	-0.856515	-0.407084	0.317277
58560	9.329429	-0.704740	3.125745	0.000872	0.002328	0.001040	0.253944	0.202818	0.945715	-0.449348	0.890584	-0.070336	-0.856504	-0.407094	0.317294
58561	9.348223	-0.636297	3.142864	0.000831	-0.000179	0.005055	0.253928	0.202825	0.945718	-0.449364	0.890575	-0.070343	-0.856500	-0.407110	0.317284
58562	9.310921	-0.732368	3.114108	-0.004659	0.001403	0.007219	0.253919	0.202858	0.945713	-0.449338	0.890585	-0.070388	-0.856516	-0.407072	0.317289
58563	9.347645	-0.679412	3.137737	0.002197	-0.000049	0.003108	0.253918	0.202849	0.945716	-0.449359	0.890575	-0.070372	-0.856506	-0.407097	0.317285
58564	9.311300	-0.691188	3.119417	-0.003428	0.000726	0.002055	0.253927	0.202833	0.945717	-0.449330	0.890591	-0.070364	-0.856519	-0.407071	0.317284
58565	9.347567	-0.679932	3.137855	0.001569	0.001341	0.002878	0.253936	0.202826	0.945716	-0.449348	0.890583	-0.070347	-0.856506	-0.407092	0.317291
58566	9.329108	-0.707114	3.126165	-0.004726	0.001000	0.005610	0.253931	0.202843	0.945713	-0.449317	0.890596	-0.070376	-0.856524	-0.407054	0.317291
58567	9.345486	-0.692335	3.116672	0.000940	0.002731	0.002648	0.253953	0.202841	0.945708	-0.449327	0.890592	-0.070361	-0.856512	-0.407064	0.317310
58568	9.361870	-0.677445	3.107191	-0.003360	0.001130	0.003663	0.253958	0.202841	0.945707	-0.449303	0.890604	-0.070368	-0.856524	-0.407038	0.317313
58569	9.312450	-0.723412	3.136147	0.000696	-0.000986	0.001838	0.253952	0.202816	0.945713	-0.449308	0.890603	-0.070345	-0.856522	-0.407053	0.317297
58570	9.383605	-0.670283	3.156636	0.002333	0.000758	0.006324	0.253942	0.202839	0.945711	-0.449339	0.890586	-0.070359	-0.856509	-0.407078	0.317300
58571	9.345261	-0.693856	3.117008	-0.003921	0.002924	0.005041	0.253957	0.202859	0.945703	-0.449312	0.890598	-0.070382	-0.856519	-0.407041	0.317320
58572	9.332545	-0.686501	3.169772	-0.000493	0.002197	0.002986	0.253974	0.202858	0.945699	-0.449310	0.890600	-0.070373	-0.856515	-0.407039	0.317335
58573	9.329075	-0.667856	3.132316	-0.000493	0.002197	0.002986	0.253992	0.202856	0.945694	-0.449307	0.890602	-0.070365	-0.856511	-0.407035	0.317350
58574	9.328514	-0.710184	3.127243	0.000203	0.001211	0.004824	0.253992	0.202867	0.945692	-0.449316	0.890597	-0.070372	-0.856506	-0.407041	0.317356
58575	9.366690	-0.687619	3.167157	0.000203	0.001211	0.004824	0.253992	0.202878	0.945689	-0.449325	0.890592	-0.070380	-0.856502	-0.407046	0.317361
58576	9.310456	-0.695691	3.120934	-0.000561	0.001794	0.001378	0.254012	0.202861	0.945688	-0.449318	0.890597	-0.070356	-0.856499	-0.407044	0.317372
58577	9.332198	-0.688239	3.170415	-0.004166	-0.000794	0.004231	0.253998	0.202858	0.945692	-0.449290	0.890610	-0.070370	-0.856518	-0.407016	0.317356
58578	9.343320	-0.666299	3.101649	-0.002529	0.000950	0.008717	0.253979	0.202902	0.945688	-0.449285	0.890608	-0.070422	-0.856526	-0.406998	0.317357
58579	9.310294	-0.697436	3.121027	0.002333	0.000757	0.006324	0.253969	0.202925	0.945686	-0.449315	0.890592	-0.070437	-0.856514	-0.407022	0.317360
58580	9.364497	-0.701592	3.145948	-0.002800	-0.000663	0.002285	0.253965	0.202906	0.945691	-0.449292	0.890604	-0.070429	-0.856527	-0.407005	0.317346
58581	9.308322	-0.709613	3.099550	0.002197	-0.000050	0.003108	0.253962	0.202896	0.945694	-0.449315	0.890594	-0.070413	-0.856516	-0.407032	0.317341
58582	9.330102	-0.702169	3.148922	-0.002104	-0.001650	0.004123	0.253941	0.202889	0.945701	-0.449303	0.890600	-0.070420	-0.856529	-0.407023	0.317318
58583	9.326685	-0.683522	3.111342	0.002375	0.003264	0.002309	0.253968	0.202886	0.945694	-0.449323	0.890591	-0.070397	-0.856510	-0.407044	0.317343
58584	9.312097	-0.687673	3.142472	-0.004904	-0.002313	0.006407	0.253931	0.202896	0.945702	-0.449293	0.890604	-0.070435	-0.856537	-0.407011	0.317312
58585	9.344533	-0.699654	3.117896	-0.000560	0.001794	0.001378	0.253952	0.202879	0.945700	-0.449286	0.890609	-0.070412	-0.856534	-0.407009	0.317322
58586	9.328480	-0.673428	3.132898	-0.002528	0.000950	0.008716	0.253932	0.202923	0.945696	-0.449282	0.890607	-0.070464	-0.856542	-0.406991	0.317324
58587	9.327919	-0.715942	3.127703	0.002197	-0.000050	0.003108	0.253932	0.202914	0.945698	-0.449301	0.890598	-0.070449	-0.856532	-0.407014	0.317321
58588	9.364740	-0.662919	3.151237	-0.002036	-0.001247	0.005730	0.253907	0.202923	0.945703	-0.449293	0.890601	-0.070471	-0.856544	-0.407005	0.317302
58589	9.293495	-0.716766	3.130703	0.000136	0.000807	0.003216	0.253910	0.202919	0.945703	-0.449297	0.890599	-0.070464	-0.856541	-0.407009	0.317303
58590	9.364659	-0.663739	3.151305	0.000204	0.001210	0.004824	0.253910	0.202929	0.945700	-0.449306	0.890594	-0.070471	-0.856536	-0.407015	0.317309
58591	9.326329	-0.687011	3.111640	-0.000560	0.001794	0.001378	0.253932	0.202912	0.945698	-0.449298	0.890600	-0.070448	-0.856534	-0.407011	0.317320
58592	9.346153	-0.691085	3.139631	0.000025	-0.002104	0.005622	0.253900	0.202917	0.945706	-0.449307	0.890594	-0.070463	-0.856538	-0.407022	0.317294
58593	9.344198	-0.702962	3.118155	0.001570	0.001340	0.002877	0.253911	0.202910	0.945704	-0.449324	0.890587	-0.070446	-0.856526	-0.407041	0.317302
58594	9.308304	-0.672654	3.105245	-0.001188	0.003184	0.001148	0.253944	0.202896	0.945698	-0.449312	0.890595	-0.070422	-0.856523	-0.407030	0.317325
58595	9.344046	-0.703254	3.118545	-0.002062	0.000857	0.000108	0.253963	0.202864	0.945700	-0.449287	0.890610	-0.070393	-0.856530	-0.407013	0.317326
58596	9.344024	-0.703552	3.118543	-0.000602	-0.000714	0.005392	0.253944	0.202873	0.945703	-0.449290	0.890607	-0.070408	-0.856534	-0.407016	0.317313
58597	9.343992	-0.703962	3.118545	0.000136	0.000807	0.003216	0.253947	0.202868	0.945704	-0.449294	0.890606	-0.070401	-0.856531	-0.407021	0.317314
58598	9.327959	-0.677505	3.133569	-0.000492	0.002197	0.002985	0.253964	0.202866	0.945700	-0.449293	0.890607	-0.070392	-0.856527	-0.407019	0.317328
58599	9.327371	-0.719908	3.128429	-0.002664	0.000144	0.005500	0.253952	0.202878	0.945700	-0.449279	0.890612	-0.070414	-0.856538	-0.407001	0.317322
58600	9.364193	-0.667051	3.151991	-0.000602	-0.000714	0.005391	0.253934	0.202886	0.945703	-0.449283	0.890609	-0.070429	-0.856541	-0.407004	0.317309
58601	9.309413	-0.705627	3.121816	-0.003427	0.000728	0.002054	0.253944	0.202870	0.945704	-0.449254	0.890624	-0.070419	-0.856553	-0.406979	0.317309
58602	9.360194	-0.690839	3.109291	-0.001051	0.003991	0.004363	0.253970	0.202888	0.945693	-0.449251	0.890625	-0.070426	-0.856547	-0.406968	0.317340
58603	9.327657	-0.679620	3.134009	0.002197	-0.000051	0.003107	0.253967	0.202878	0.945696	-0.449276	0.890614	-0.070408	-0.856535	-0.406997	0.317334
58604	9.327063	-0.721759	3.128918	-0.001187	0.003184	0.001148	0.254000	0.202864	0.945690	-0.449264	0.890622	-0.070385	-0.856531	-0.406987	0.317358
58605	9.361905	-0.680072	3.131259	0.000136	0.000806	0.003215	0.254004	0.202859	0.945690	-0.449267	0.890621	-0.070377	-0.856529	-0.406991	0.317359
58606	9.345346	-0.695570	3.141042	-0.000491	0.002197	0.002985	0.254021	0.202858	0.945686	-0.449265	0.890623	-0.070369	-0.856524	-0.406989	0.317374
58607	9.341425	-0.718872	3.098208	-0.002800	-0.000663	0.002284	0.254016	0.202838	0.945691	-0.449241	0.890635	-0.070362	-0.856539	-0.406970	0.317359
58608	9.327413	-0.680952	3.134446	-0.000671	-0.001117	0.003783	0.254001	0.202831	0.945697	-0.449240	0.890636	-0.070362	-0.856544	-0.406973	0.317342
58609	9.325424	-0.692898	3.113050	0.001706	0.002146	0.006093	0.254004	0.202856	0.945691	-0.449264	0.890623	-0.070376	-0.856530	-0.406989	0.317358
58610	9.327272	-0.681838	3.134674	-0.001925	0.001664	0.003323	0.254015	0.202856	0.945688	-0.449251	0.890629	-0.070375	-0.856534	-0.406975	0.317366
58611	9.325241	-0.693597	3.113442	-0.001187	0.003184	0.001148	0.254049	0.202842	0.945682	-0.449237	0.890639	-0.070352	-0.856531	-0.406962	0.317390
58612	9.341667	-0.678693	3.103938	0.000831	-0.000181	0.005053	0.254037	0.202849	0.945684	-0.449252	0.890630	-0.070359	-0.856527	-0.406976	0.317383
58613	9.327053	-0.682760	3.135124	-0.000491	0.002197	0.002985	0.254055	0.202848	0.945679	-0.449251	0.890632	-0.070349	-0.856522	-0.406974	0.317399
58614	9.325054	-0.694631	3.113771	0.000831	-0.000181	0.005053	0.254043	0.202855	0.945681	-0.449266	0.890624	-0.070356	-0.856518	-0.406988	0.317392
58615	9.342922	-0.710336	3.120307	-0.002732	-0.000259	0.003891	0.254037	0.202851	0.945683	-0.449246	0.890633	-0.070363	-0.856530	-0.406969	0.317384
58616	9.326940	-0.684099	3.135168	-0.002664	0.000144	0.005499	0.254025	0.202864	0.945684	-0.449232	0.890638	-0.070385	-0.856541	-0.406951	0.317377
58617	9.344777	-0.699731	3.141810	-0.000559	0.001794	0.001378	0.254049	0.202846	0.945681	-0.449226	0.890643	-0.070359	-0.856537	-0.406950	0.317391
58618	9.308961	-0.669729	3.128677	-0.001274	-0.001831	0.009174	0.254004	0.202883	0.945685	-0.449234	0.890635	-0.070412	-0.856546	-0.406949	0.317367
58619	9.344728	-0.700812	3.141717	0.002197	-0.000052	0.003107	0.253999	0.202873	0.945689	-0.449255	0.890626	-0.070397	-0.856536	-0.406975	0.317360
58620	9.345247	-0.659078	3.147019	-0.001993	0.001261	0.001715	0.254014	0.202857	0.945688	-0.449238	0.890636	-0.070381	-0.856541	-0.406961	0.317365
58621	9.344100	-0.743326	3.136558	-0.002732	-0.000259	0.003891	0.254009	0.202852	0.945690	-0.449220	0.890644	-0.070386	-0.856551	-0.406945	0.317357
58622	9.325318	-0.656131	3.119124	0.001707	0.002145	0.006092	0.254012	0.202878	0.945684	-0.449245	0.890630	-0.070400	-0.856537	-0.406962	0.317373
58623	9.324717	-0.698569	3.113900	-0.002105	-0.001650	0.004121	0.253993	0.202872	0.945690	-0.449230	0.890638	-0.070408	-0.856551	-0.406949	0.317352
58624	9.312153	-0.691102	3.166217	-0.000112	-0.002911	0.002405	0.253969	0.202844	0.945703	-0.449230	0.890639	-0.070393	-0.856558	-0.406960	0.317319
58625	9.324759	-0.699318	3.113603	-0.003290	0.001535	0.005268	0.253972	0.202861	0.945698	-0.449206	0.890649	-0.070416	-0.856570	-0.406930	0.317327
58626	9.342566	-0.715105	3.120282	0.000205	0.001209	0.004822	0.253973	0.202872	0.945696	-0.449216	0.890644	-0.070422	-0.856565	-0.406936	0.317332
58627	9.342518	-0.715401	3.120358	0.000068	0.000403	0.001607	0.253981	0.202850	0.945698	-0.449216	0.890645	-0.070398	-0.856562	-0.406943	0.317331
58628	9.344417	-0.704200	3.141883	0.000205	0.001209	0.004822	0.253982	0.202861	0.945696	-0.449225	0.890640	-0.070405	-0.856557	-0.406948	0.317337
58629	9.326490	-0.689413	3.135343	-0.000603	-0.000714	0.005390	0.253964	0.202869	0.945699	-0.449229	0.890637	-0.070419	-0.856561	-0.406951	0.317324
58630	9.324523	-0.701245	3.113878	0.000068	0.000403	0.001607	0.253971	0.202848	0.945701	-0.449228	0.890639	-0.070396	-0.856559	-0.406957	0.317322
58631	9.325063	-0.659661	3.119143	-0.002664	0.000144	0.005498	0.253958	0.202862	0.945702	-0.449212	0.890646	-0.070421	-0.856571	-0.406937	0.317314
58632	9.342338	-0.717597	3.120393	0.000161	-0.001299	0.008834	0.253918	0.202898	0.945705	-0.449231	0.890633	-0.070466	-0.856573	-0.406947	0.317296
58633	9.328313	-0.679814	3.156752	-0.000558	0.001794	0.001377	0.253942	0.202881	0.945702	-0.449221	0.890639	-0.070443	-0.856571	-0.406940	0.317309
58634	9.325729	-0.733636	3.130132	-0.002663	0.000144	0.005498	0.253930	0.202894	0.945703	-0.449207	0.890645	-0.070465	-0.856582	-0.406923	0.317303
58635	9.341445	-0.646335	3.109494	0.004190	-0.001315	0.001392	0.253926	0.202864	0.945710	-0.449240	0.890631	-0.070427	-0.856566	-0.406967	0.317289
58636	9.358728	-0.703789	3.110799	-0.003358	0.001132	0.003660	0.253931	0.202864	0.945709	-0.449215	0.890643	-0.070434	-0.856577	-0.406941	0.317292
58637	9.328167	-0.681112	3.156905	0.001639	0.001741	0.004484	0.253935	0.202875	0.945705	-0.449235	0.890633	-0.070435	-0.856566	-0.406958	0.317301
58638	9.322807	-0.674086	3.097982	-0.001856	0.002067	0.004930	0.253942	0.202890	0.945700	-0.449227	0.890636	-0.070449	-0.856568	-0.406944	0.317314
58639	9.327428	-0.723879	3.151927	0.002197	-0.000053	0.003107	0.253940	0.202880	0.945703	-0.449249	0.890626	-0.070432	-0.856557	-0.406971	0.317309
58640	9.360987	-0.651819	3.138006	-0.000490	0.002197	0.002985	0.253957	0.202879	0.945699	-0.449247	0.890627	-0.070424	-0.856553	-0.406968	0.317324
58641	9.325414	-0.736043	3.130507	-0.002913	-0.003572	0.004688	0.253918	0.202869	0.945711	-0.449229	0.890636	-0.070439	-0.856574	-0.406955	0.317283
58642	9.326612	-0.652431	3.140895	0.005066	0.001011	0.002431	0.253928	0.202858	0.945711	-0.449273	0.890616	-0.070407	-0.856548	-0.407004	0.317291
58643	9.307482	-0.721540	3.123934	-0.002526	0.000950	0.008712	0.253908	0.202902	0.945707	-0.449269	0.890614	-0.070460	-0.856556	-0.406986	0.317292
58644	9.308013	-0.680065	3.129267	0.001503	0.000935	0.001269	0.253922	0.202880	0.945708	-0.449280	0.890611	-0.070429	-0.856546	-0.407004	0.317296
58645	9.358274	-0.707243	3.111380	-0.001229	0.000677	0.005159	0.253916	0.202892	0.945707	-0.449277	0.890611	-0.070444	-0.856550	-0.406997	0.317295
58646	9.325781	-0.696162	3.135960	-0.001229	0.000677	0.005159	0.253910	0.202903	0.945706	-0.449274	0.890611	-0.070458	-0.856553	-0.406991	0.317294
58647	9.325757	-0.696609	3.135933	-0.000671	-0.001117	0.003782	0.253895	0.202895	0.945712	-0.449274	0.890611	-0.070457	-0.856557	-0.406995	0.317277
58648	9.303973	-0.704760	3.086381	-0.000603	-0.000715	0.005389	0.253876	0.202903	0.945715	-0.449278	0.890608	-0.070472	-0.856561	-0.406998	0.317264
58649	9.323758	-0.708884	3.114439	-0.000558	0.001794	0.001377	0.253897	0.202886	0.945713	-0.449273	0.890613	-0.070448	-0.856557	-0.406997	0.317275
58650	9.342179	-0.682587	3.126331	-0.002663	0.000145	0.005497	0.253885	0.202898	0.945714	-0.449259	0.890618	-0.070470	-0.856568	-0.406979	0.317268
58651	9.325584	-0.698131	3.136110	-0.001184	0.003185	0.001147	0.253918	0.202884	0.945708	-0.449246	0.890626	-0.070447	-0.856565	-0.406968	0.317291
58652	9.358557	-0.668079	3.116977	0.000832	-0.000183	0.005051	0.253905	0.202892	0.945710	-0.449261	0.890618	-0.070454	-0.856561	-0.406982	0.317284
58653	9.341984	-0.683660	3.126678	-0.001923	0.001665	0.003322	0.253914	0.202891	0.945708	-0.449249	0.890624	-0.070454	-0.856565	-0.406969	0.317290
58654	9.326733	-0.729702	3.152640	0.000206	0.001208	0.004821	0.253914	0.202902	0.945705	-0.449258	0.890619	-0.070461	-0.856560	-0.406975	0.317296
58655	9.322030	-0.680640	3.098889	0.000137	0.000805	0.003214	0.253918	0.202896	0.945705	-0.449265	0.890617	-0.070451	-0.856555	-0.406983	0.317298
58656	9.359629	-0.700022	3.133666	-0.001115	0.003588	0.002754	0.253948	0.202898	0.945697	-0.449257	0.890621	-0.070442	-0.856550	-0.406973	0.317325
58657	9.359588	-0.700357	3.133713	-0.000045	-0.002509	0.004012	0.253923	0.202886	0.945706	-0.449262	0.890619	-0.070441	-0.856555	-0.406983	0.317297
58658	9.305327	-0.696881	3.108823	0.001083	0.003533	0.005861	0.253938	0.202916	0.945696	-0.449281	0.890608	-0.070455	-0.856541	-0.406992	0.317325
58659	9.359440	-0.701359	3.133931	-0.002663	0.000145	0.005496	0.253925	0.202928	0.945697	-0.449269	0.890613	-0.070477	-0.856551	-0.406976	0.317318
58660	9.326996	-0.690116	3.158408	0.000694	-0.000989	0.001837	0.253920	0.202903	0.945703	-0.449274	0.890612	-0.070454	-0.856550	-0.406991	0.317303
58661	9.374008	-0.698282	3.102714	-0.002800	-0.000660	0.002282	0.253915	0.202884	0.945709	-0.449252	0.890624	-0.070446	-0.856563	-0.406974	0.317288
58662	9.325016	-0.702205	3.136888	0.000206	0.001208	0.004821	0.253915	0.202895	0.945707	-0.449261	0.890618	-0.070453	-0.856558	-0.406980	0.317294
58663	9.341478	-0.687482	3.127353	-0.003357	0.001134	0.003659	0.253918	0.202895	0.945706	-0.449238	0.890629	-0.070460	-0.856569	-0.406956	0.317295
58664	9.341461	-0.687968	3.127296	0.000023	-0.002106	0.005618	0.253886	0.202899	0.945713	-0.449248	0.890623	-0.070475	-0.856574	-0.406967	0.317269
58665	9.341402	-0.688338	3.127391	0.000320	0.004119	0.002417	0.253922	0.202900	0.945703	-0.449252	0.890622	-0.070458	-0.856561	-0.406968	0.317302
58666	9.342689	-0.718985	3.143674	0.001320	-0.002380	0.002067	0.253904	0.202872	0.945714	-0.449264	0.890618	-0.070435	-0.856560	-0.406991	0.317275
58667	9.339368	-0.700420	3.106029	-0.001785	0.002470	0.006535	0.253907	0.202903	0.945707	-0.449260	0.890618	-0.070464	-0.856561	-0.406977	0.317290
58668	9.341284	-0.689377	3.127516	-0.000740	-0.001520	0.002174	0.253896	0.202879	0.945715	-0.449255	0.890622	-0.070449	-0.856567	-0.406980	0.317269
58669	9.343256	-0.678112	3.148884	-0.001366	-0.000129	0.001944	0.253894	0.202860	0.945720	-0.449241	0.890630	-0.070436	-0.856575	-0.406973	0.317259
58670	9.306917	-0.689691	3.130419	-0.000740	-0.001520	0.002174	0.253883	0.202836	0.945728	-0.449236	0.890634	-0.070421	-0.856581	-0.406976	0.317238
58671	9.359143	-0.705426	3.133907	-0.001923	0.001665	0.003321	0.253894	0.202834	0.945725	-0.449224	0.890639	-0.070419	-0.856583	-0.406964	0.317246
58672	9.323359	-0.675381	3.120872	-0.002594	0.000547	0.007102	0.253878	0.202863	0.945723	-0.449215	0.890641	-0.070456	-0.856593	-0.406946	0.317244
58673	9.341191	-0.691130	3.127406	0.000694	-0.000989	0.001837	0.253872	0.202838	0.945730	-0.449223	0.890639	-0.070432	-0.856591	-0.406963	0.317228
58674	9.326595	-0.695137	3.158490	0.002335	0.000750	0.006320	0.253862	0.202860	0.945728	-0.449254	0.890622	-0.070447	-0.856577	-0.406989	0.317231
58675	9.341094	-0.691871	3.127533	-0.004051	0.002123	0.001822	0.253881	0.202848	0.945726	-0.449220	0.890640	-0.070439	-0.856590	-0.406955	0.317240
58676	9.325142	-0.665411	3.142534	0.002266	0.000347	0.004713	0.253875	0.202854	0.945726	-0.449246	0.890627	-0.070438	-0.856578	-0.406981	0.317239
58677	9.321177	-0.688757	3.099661	-0.001297	0.000274	0.003551	0.253873	0.202851	0.945727	-0.449237	0.890632	-0.070439	-0.856583	-0.406973	0.317235
58678	9.340961	-0.692947	3.127692	-0.001297	0.000274	0.003551	0.253871	0.202847	0.945729	-0.449230	0.890635	-0.070439	-0.856588	-0.406967	0.317231
58679	9.340909	-0.693355	3.127757	0.000206	0.001207	0.004820	0.253871	0.202857	0.945726	-0.449238	0.890630	-0.070446	-0.856583	-0.406972	0.317237
58680	9.339533	-0.663371	3.111649	-0.001228	0.000676	0.005158	0.253865	0.202869	0.945725	-0.449236	0.890630	-0.070460	-0.856586	-0.406967	0.317236
58681	9.326240	-0.698031	3.158901	-0.004166	-0.000788	0.004226	0.253851	0.202866	0.945730	-0.449206	0.890644	-0.070475	-0.856606	-0.406937	0.317219
58682	9.340801	-0.694733	3.127771	0.002198	-0.000056	0.003106	0.253848	0.202857	0.945733	-0.449228	0.890634	-0.070459	-0.856595	-0.406964	0.317215
58683	9.340794	-0.694994	3.127736	-0.002800	-0.000659	0.002281	0.253846	0.202838	0.945737	-0.449203	0.890648	-0.070452	-0.856609	-0.406944	0.317203
58684	9.306350	-0.695210	3.130884	-0.000419	0.002599	0.004590	0.253859	0.202852	0.945731	-0.449206	0.890646	-0.070458	-0.856604	-0.406941	0.317221
58685	9.359168	-0.669093	3.139797	0.000138	0.000805	0.003213	0.253864	0.202847	0.945731	-0.449211	0.890644	-0.070449	-0.856600	-0.406948	0.317223
58686	9.322110	-0.722708	3.116195	-0.001297	0.000274	0.003551	0.253862	0.202842	0.945732	-0.449204	0.890648	-0.070449	-0.856604	-0.406942	0.317219
58687	9.357082	-0.681283	3.118548	0.001016	0.003129	0.004253	0.253880	0.202856	0.945724	-0.449217	0.890641	-0.070449	-0.856592	-0.406950	0.317242
58688	9.340418	-0.696841	3.128447	-0.000418	0.002599	0.004590	0.253893	0.202871	0.945718	-0.449220	0.890639	-0.070455	-0.856586	-0.406947	0.317261
58689	9.305999	-0.697124	3.131503	0.002082	-0.002968	0.005510	0.253856	0.202870	0.945728	-0.449247	0.890625	-0.070461	-0.856583	-0.406978	0.317230
58690	9.356896	-0.682619	3.118812	-0.006041	0.003387	0.003536	0.253881	0.202879	0.945719	-0.449199	0.890648	-0.070476	-0.856600	-0.406924	0.317251
58691	9.342220	-0.686805	3.150076	0.002335	0.000748	0.006319	0.253872	0.202901	0.945717	-0.449229	0.890632	-0.070490	-0.856588	-0.406948	0.317256
58692	9.323647	-0.713846	3.138331	0.000138	0.000805	0.003213	0.253876	0.202896	0.945717	-0.449233	0.890630	-0.070482	-0.856584	-0.406954	0.317258
58693	9.358649	-0.672394	3.140638	-0.001922	0.001666	0.003321	0.253886	0.202895	0.945714	-0.449221	0.890636	-0.070481	-0.856588	-0.406940	0.317265
58694	9.324210	-0.672485	3.143794	0.000069	0.000402	0.001607	0.253893	0.202874	0.945717	-0.449220	0.890638	-0.070458	-0.856586	-0.406946	0.317262
58695	9.322215	-0.684265	3.122353	0.000832	-0.000185	0.005050	0.253877	0.202881	0.945720	-0.449237	0.890629	-0.070466	-0.856582	-0.406962	0.317252
58696	9.354588	-0.696515	3.097844	-0.002594	0.000548	0.007101	0.253862	0.202910	0.945718	-0.449228	0.890631	-0.070503	-0.856591	-0.406945	0.317250
58697	9.356492	-0.685477	3.119397	-0.000556	0.001794	0.001377	0.253883	0.202892	0.945716	-0.449222	0.890636	-0.070479	-0.856588	-0.406943	0.317261
58698	9.325282	-0.704807	3.160223	-0.002525	0.000950	0.008707	0.253863	0.202936	0.945711	-0.449218	0.890634	-0.070531	-0.856596	-0.406925	0.317262
58699	9.339792	-0.701587	3.129256	0.002939	0.001463	0.000932	0.253883	0.202913	0.945711	-0.449243	0.890624	-0.070491	-0.856577	-0.406958	0.317271
58700	9.340402	-0.659892	3.134690	-0.001853	0.002068	0.004927	0.253890	0.202928	0.945706	-0.449234	0.890628	-0.070505	-0.856579	-0.406943	0.317284
58701	9.319148	-0.740361	3.096268	0.000138	0.000804	0.003213	0.253895	0.202923	0.945706	-0.449237	0.890627	-0.070498	-0.856576	-0.406947	0.317286
58702	9.358139	-0.675884	3.141409	-0.001366	-0.000128	0.001944	0.253896	0.202903	0.945710	-0.449226	0.890634	-0.070482	-0.856582	-0.406942	0.317278
58703	9.323038	-0.717953	3.139203	-0.001297	0.000274	0.003550	0.253896	0.202898	0.945711	-0.449219	0.890637	-0.070480	-0.856586	-0.406937	0.317275
58704	9.374694	-0.661340	3.131653	-0.000117	-0.002912	0.002403	0.253872	0.202871	0.945723	-0.449219	0.890638	-0.070465	-0.856593	-0.406948	0.317241
58705	9.319770	-0.699486	3.101488	0.000324	0.004118	0.002416	0.253906	0.202873	0.945714	-0.449223	0.890638	-0.070450	-0.856581	-0.406948	0.317274
58706	9.339468	-0.703660	3.129757	0.000207	0.001206	0.004819	0.253907	0.202883	0.945711	-0.449232	0.890633	-0.070457	-0.856576	-0.406954	0.317279
58707	9.353995	-0.700520	3.098731	-0.002663	0.000146	0.005493	0.253893	0.202896	0.945712	-0.449220	0.890637	-0.070479	-0.856586	-0.406939	0.317271
58708	9.341338	-0.693145	3.151302	0.000138	0.000804	0.003213	0.253897	0.202891	0.945712	-0.449224	0.890635	-0.070471	-0.856583	-0.406945	0.317273
58709	9.319492	-0.701073	3.101967	-0.000486	0.002196	0.002983	0.253913	0.202888	0.945708	-0.449224	0.890636	-0.070462	-0.856578	-0.406943	0.317287
58710	9.321417	-0.689887	3.123498	0.000763	-0.000588	0.003443	0.253904	0.202880	0.945713	-0.449234	0.890632	-0.070453	-0.856575	-0.406958	0.317276
58711	9.323340	-0.678850	3.145005	0.000276	0.001608	0.006426	0.253901	0.202906	0.945708	-0.449247	0.890624	-0.070475	-0.856570	-0.406963	0.317286
58712	9.337847	-0.675560	3.114083	-0.000555	0.001794	0.001376	0.253922	0.202889	0.945706	-0.449241	0.890629	-0.070452	-0.856567	-0.406960	0.317296
58713	9.306652	-0.694651	3.154862	0.000832	-0.000186	0.005049	0.253911	0.202896	0.945707	-0.449256	0.890620	-0.070458	-0.856562	-0.406975	0.317290
58714	9.340992	-0.695290	3.151854	0.000207	0.001206	0.004819	0.253911	0.202907	0.945705	-0.449265	0.890615	-0.070464	-0.856557	-0.406981	0.317296
58715	9.357481	-0.680560	3.142358	-0.001921	0.001666	0.003320	0.253922	0.202906	0.945702	-0.449251	0.890623	-0.070465	-0.856561	-0.406965	0.317304
58716	9.319067	-0.703693	3.102648	-0.001921	0.001666	0.003320	0.253933	0.202906	0.945699	-0.449238	0.890629	-0.070464	-0.856565	-0.406951	0.317313
58717	9.337565	-0.677410	3.114527	0.000763	-0.000588	0.003442	0.253925	0.202897	0.945703	-0.449248	0.890625	-0.070455	-0.856562	-0.406965	0.317303
58718	9.322223	-0.723351	3.140383	-0.001921	0.001666	0.003320	0.253936	0.202896	0.945701	-0.449235	0.890631	-0.070454	-0.856565	-0.406951	0.317311
58719	9.335515	-0.689445	3.093175	0.002128	-0.000460	0.001499	0.253937	0.202870	0.945706	-0.449253	0.890625	-0.070423	-0.856556	-0.406979	0.317303
58720	9.322152	-0.723830	3.140483	0.000208	0.001206	0.004819	0.253937	0.202881	0.945704	-0.449262	0.890619	-0.070429	-0.856551	-0.406984	0.317308
58721	9.338664	-0.709103	3.130926	-0.001297	0.000274	0.003549	0.253935	0.202876	0.945705	-0.449256	0.890623	-0.070428	-0.856555	-0.406980	0.317304
58722	9.339345	-0.667637	3.136201	-0.002662	0.000146	0.005493	0.253924	0.202889	0.945706	-0.449242	0.890628	-0.070450	-0.856565	-0.406962	0.317298
58723	9.320771	-0.694657	3.124370	0.002198	-0.000058	0.003105	0.253920	0.202880	0.945708	-0.449262	0.890619	-0.070436	-0.856556	-0.406986	0.317292
58724	9.339277	-0.668416	3.136236	-0.001227	0.000676	0.005156	0.253915	0.202891	0.945707	-0.449260	0.890619	-0.070450	-0.856559	-0.406980	0.317292
58725	9.339762	-0.741284	3.147188	-0.001297	0.000274	0.003549	0.253912	0.202886	0.945709	-0.449255	0.890622	-0.070449	-0.856562	-0.406976	0.317287
58726	9.320647	-0.695805	3.124483	0.000138	0.000804	0.003212	0.253916	0.202881	0.945709	-0.449259	0.890620	-0.070441	-0.856559	-0.406982	0.317289
58727	9.338387	-0.711515	3.131206	-0.000416	0.002598	0.004589	0.253931	0.202896	0.945702	-0.449261	0.890619	-0.070447	-0.856554	-0.406978	0.317308
58728	9.321241	-0.654593	3.129991	-0.002801	-0.000658	0.002280	0.253926	0.202876	0.945707	-0.449237	0.890631	-0.070439	-0.856567	-0.406961	0.317294
58729	9.337085	-0.681863	3.114994	-0.002038	-0.001246	0.005722	0.253902	0.202885	0.945712	-0.449230	0.890633	-0.070461	-0.856578	-0.406952	0.317275
58730	9.324436	-0.674558	3.167521	0.000208	0.001206	0.004818	0.253902	0.202896	0.945710	-0.449239	0.890628	-0.070468	-0.856573	-0.406958	0.317281
58731	9.356041	-0.728608	3.137862	-0.001920	0.001666	0.003319	0.253912	0.202896	0.945707	-0.449224	0.890636	-0.070469	-0.856578	-0.406941	0.317289
58732	9.338924	-0.671572	3.136614	0.004257	-0.000921	0.002998	0.253903	0.202882	0.945713	-0.449263	0.890618	-0.070445	-0.856561	-0.406987	0.317277
58733	9.320379	-0.698436	3.124695	-0.000673	-0.001118	0.003779	0.253889	0.202874	0.945718	-0.449258	0.890621	-0.070446	-0.856567	-0.406985	0.317262
58734	9.354738	-0.699065	3.121641	0.000208	0.001206	0.004818	0.253889	0.202885	0.945715	-0.449267	0.890615	-0.070453	-0.856563	-0.406991	0.317267
58735	9.354693	-0.699511	3.121676	-0.002732	-0.000255	0.003886	0.253895	0.202881	0.945715	-0.449362	0.890570	-0.070411	-0.856511	-0.407092	0.317279
58736	9.338861	-0.673022	3.136490	0.002821	-0.001451	0.003335	0.253880	0.202868	0.945722	-0.449390	0.890558	-0.070395	-0.856501	-0.407126	0.317261
58737	9.338814	-0.673318	3.136566	-0.002544	0.003059	0.003089	0.253901	0.202870	0.945715	-0.449373	0.890567	-0.070395	-0.856504	-0.407105	0.317280
58738	9.320160	-0.700287	3.124934	-0.001920	0.001666	0.003319	0.253912	0.202870	0.945713	-0.449360	0.890573	-0.070394	-0.856507	-0.407092	0.317289
58739	9.369821	-0.655361	3.096189	0.002336	0.000744	0.006317	0.253902	0.202892	0.945710	-0.449389	0.890557	-0.070408	-0.856494	-0.407115	0.317292
58740	9.354429	-0.701403	3.122044	-0.001296	0.000274	0.003549	0.253900	0.202888	0.945712	-0.449383	0.890561	-0.070408	-0.856499	-0.407110	0.317288
58741	9.338567	-0.674947	3.136953	-0.001296	0.000274	0.003549	0.253898	0.202884	0.945714	-0.449376	0.890564	-0.070407	-0.856503	-0.407105	0.317283
58742	9.318725	-0.671365	3.109007	0.001574	0.001333	0.002875	0.253908	0.202878	0.945712	-0.449392	0.890557	-0.070391	-0.856491	-0.407123	0.317291
58743	9.334515	-0.698565	3.094147	-0.000603	-0.000716	0.005385	0.253888	0.202885	0.945716	-0.449396	0.890554	-0.070406	-0.856495	-0.407126	0.317277
58744	9.320642	-0.660667	3.130499	0.000139	0.000804	0.003212	0.253892	0.202880	0.945716	-0.449401	0.890552	-0.070398	-0.856492	-0.407132	0.317279
58745	9.337714	-0.718420	3.131637	-0.000792	-0.004030	0.006181	0.253844	0.202882	0.945729	-0.449405	0.890548	-0.070419	-0.856504	-0.407140	0.317236
58746	9.353034	-0.673385	3.105812	0.001090	0.003529	0.005857	0.253859	0.202911	0.945718	-0.449424	0.890538	-0.070433	-0.856489	-0.407149	0.317264
58747	9.321782	-0.692552	3.146636	-0.002801	-0.000657	0.002279	0.253855	0.202892	0.945723	-0.449401	0.890550	-0.070425	-0.856503	-0.407131	0.317251
58748	9.303214	-0.719479	3.134718	0.002891	-0.001050	0.004941	0.253836	0.202894	0.945728	-0.449433	0.890534	-0.070424	-0.856491	-0.407165	0.317237
58749	9.338344	-0.678104	3.136936	0.000139	0.000803	0.003212	0.253839	0.202889	0.945728	-0.449439	0.890531	-0.070415	-0.856487	-0.407173	0.317237
58750	9.317716	-0.716427	3.103793	-0.002612	0.002657	0.001483	0.253866	0.202876	0.945724	-0.449416	0.890544	-0.070399	-0.856491	-0.407151	0.317255
58751	9.301842	-0.689963	3.118765	-0.000603	-0.000716	0.005384	0.253849	0.202884	0.945726	-0.449417	0.890543	-0.070415	-0.856496	-0.407150	0.317243
58752	9.336209	-0.690654	3.115684	-0.001296	0.000274	0.003548	0.253847	0.202880	0.945728	-0.449410	0.890546	-0.070414	-0.856500	-0.407145	0.317239
58753	9.334196	-0.702239	3.094278	-0.000693	0.000991	-0.001836	0.253875	0.202830	0.945731	-0.449395	0.890558	-0.070360	-0.856499	-0.407144	0.317242
58754	9.336115	-0.691059	3.115875	0.000348	0.002008	0.008029	0.253868	0.202873	0.945724	-0.449414	0.890546	-0.070397	-0.856492	-0.407150	0.317255
58755	9.336019	-0.691613	3.116041	-0.001919	0.001667	0.003319	0.253880	0.202872	0.945721	-0.449402	0.890552	-0.070395	-0.856495	-0.407137	0.317264
58756	9.321374	-0.695698	3.147152	-0.000603	-0.000717	0.005384	0.253861	0.202880	0.945724	-0.449405	0.890549	-0.070409	-0.856498	-0.407139	0.317251
58757	9.350534	-0.688754	3.085048	-0.000554	0.001794	0.001376	0.253882	0.202862	0.945723	-0.449400	0.890554	-0.070385	-0.856495	-0.407138	0.317261
58758	9.339113	-0.711693	3.153761	-0.002108	-0.001647	0.004115	0.253861	0.202855	0.945730	-0.449388	0.890559	-0.070392	-0.856508	-0.407129	0.317239
58759	9.339853	-0.670229	3.159044	-0.001850	0.002068	0.004924	0.253867	0.202870	0.945725	-0.449380	0.890562	-0.070406	-0.856510	-0.407116	0.317250
58760	9.319232	-0.708692	3.125808	0.000762	-0.000589	0.003441	0.253858	0.202861	0.945729	-0.449391	0.890557	-0.070398	-0.856507	-0.407131	0.317239
58761	9.319996	-0.667114	3.131055	0.000832	-0.000188	0.005047	0.253846	0.202868	0.945731	-0.449405	0.890550	-0.070405	-0.856503	-0.407144	0.317232
58762	9.335779	-0.694249	3.116174	0.000070	0.000402	0.001606	0.253854	0.202847	0.945733	-0.449405	0.890551	-0.070382	-0.856501	-0.407150	0.317230
58763	9.336513	-0.652559	3.121542	-0.001919	0.001667	0.003318	0.253863	0.202846	0.945731	-0.449391	0.890558	-0.070382	-0.856505	-0.407136	0.317237
58764	9.351424	-0.721789	3.101610	0.001091	0.003528	0.005856	0.253879	0.202876	0.945720	-0.449411	0.890547	-0.070396	-0.856490	-0.407145	0.317266
58765	9.338296	-0.641933	3.143447	0.000139	0.000803	0.003211	0.253880	0.202871	0.945721	-0.449416	0.890545	-0.070388	-0.856487	-0.407152	0.317265
58766	9.318052	-0.752740	3.121219	-0.002542	0.003059	0.003088	0.253904	0.202874	0.945714	-0.449397	0.890555	-0.070387	-0.856490	-0.407130	0.317286
58767	9.353964	-0.669327	3.128847	0.002128	-0.000462	0.001499	0.253906	0.202848	0.945719	-0.449414	0.890549	-0.070356	-0.856480	-0.407156	0.317278
58768	9.318788	-0.711198	3.126562	-0.002801	-0.000656	0.002279	0.253902	0.202829	0.945724	-0.449391	0.890561	-0.070348	-0.856494	-0.407139	0.317264
58769	9.355926	-0.658565	3.150243	0.000971	0.000615	0.008258	0.253881	0.202867	0.945721	-0.449416	0.890546	-0.070385	-0.856487	-0.407153	0.317265
58770	9.337261	-0.685660	3.138516	-0.004047	0.002129	0.001819	0.253903	0.202855	0.945718	-0.449381	0.890564	-0.070377	-0.856499	-0.407119	0.317276
58771	9.300801	-0.697194	3.120261	-0.001919	0.001667	0.003318	0.253913	0.202854	0.945716	-0.449369	0.890570	-0.070376	-0.856502	-0.407106	0.317284
58772	9.353730	-0.671297	3.129125	0.000832	-0.000188	0.005047	0.253901	0.202862	0.945718	-0.449384	0.890562	-0.070382	-0.856498	-0.407120	0.317277
58773	9.320495	-0.701875	3.148384	0.000139	0.000803	0.003211	0.253908	0.202856	0.945717	-0.449388	0.890561	-0.070373	-0.856494	-0.407125	0.317281
58774	9.335061	-0.698575	3.117357	-0.001296	0.000274	0.003548	0.253906	0.202852	0.945718	-0.449381	0.890564	-0.070372	-0.856498	-0.407120	0.317277
58775	9.320401	-0.702615	3.148495	0.000209	0.001204	0.004817	0.253908	0.202863	0.945715	-0.449388	0.890560	-0.070378	-0.856493	-0.407124	0.317285
58776	9.351571	-0.684251	3.107841	0.000762	-0.000590	0.003441	0.253899	0.202854	0.945720	-0.449399	0.890555	-0.070370	-0.856490	-0.407138	0.317274
58777	9.338938	-0.676748	3.160357	-0.001296	0.000274	0.003548	0.253897	0.202849	0.945721	-0.449392	0.890559	-0.070370	-0.856495	-0.407133	0.317269
58778	9.334857	-0.700092	3.117628	-0.001036	0.003990	0.004357	0.253924	0.202867	0.945710	-0.449389	0.890560	-0.070376	-0.856488	-0.407122	0.317300
58779	9.351384	-0.685362	3.108159	-0.002801	-0.000656	0.002278	0.253916	0.202848	0.945716	-0.449367	0.890572	-0.070369	-0.856502	-0.407105	0.317284
58780	9.318166	-0.715933	3.127336	0.000832	-0.000189	0.005046	0.253904	0.202855	0.945718	-0.449382	0.890563	-0.070376	-0.856498	-0.407120	0.317277
58781	9.335542	-0.659257	3.123039	0.000140	0.000803	0.003211	0.253909	0.202850	0.945718	-0.449386	0.890562	-0.070367	-0.856494	-0.407126	0.317280
58782	9.353290	-0.674972	3.129652	-0.001296	0.000274	0.003547	0.253907	0.202845	0.945719	-0.449379	0.890566	-0.070366	-0.856498	-0.407120	0.317275
58783	9.334657	-0.701909	3.117819	-0.001296	0.000274	0.003547	0.253905	0.202842	0.945721	-0.449370	0.890570	-0.070367	-0.856504	-0.407112	0.317271
58784	9.316829	-0.686823	3.111314	-0.001988	0.001266	0.001712	0.253919	0.202825	0.945720	-0.449353	0.890580	-0.070351	-0.856509	-0.407099	0.317276
58785	9.317967	-0.717636	3.127536	0.000832	-0.000189	0.005046	0.253906	0.202831	0.945723	-0.449370	0.890571	-0.070357	-0.856504	-0.407116	0.317267
58786	9.353068	-0.676305	3.130027	-0.000292	0.005509	0.002185	0.253955	0.202836	0.945708	-0.449368	0.890573	-0.070340	-0.856490	-0.407108	0.317313
58787	9.335564	-0.733682	3.134508	-0.005673	-0.001712	0.002951	0.253937	0.202818	0.945717	-0.449324	0.890595	-0.070347	-0.856518	-0.407070	0.317286
58788	9.316604	-0.688115	3.111701	0.003633	0.000466	0.002768	0.253940	0.202808	0.945719	-0.449358	0.890580	-0.070324	-0.856500	-0.407108	0.317287
58789	9.352965	-0.677235	3.130132	-0.002732	-0.000254	0.003883	0.253930	0.202803	0.945722	-0.449343	0.890587	-0.070329	-0.856511	-0.407095	0.317275
58790	9.314560	-0.700174	3.090250	0.000070	0.000401	0.001605	0.253938	0.202782	0.945725	-0.449343	0.890589	-0.070306	-0.856508	-0.407101	0.317273
58791	9.336309	-0.692925	3.139752	0.000832	-0.000189	0.005046	0.253926	0.202788	0.945727	-0.449359	0.890580	-0.070311	-0.856503	-0.407117	0.317266
58792	9.350891	-0.689705	3.108683	-0.001296	0.000274	0.003547	0.253924	0.202784	0.945728	-0.449353	0.890583	-0.070310	-0.856507	-0.407112	0.317262
58793	9.336188	-0.693627	3.139956	0.000331	0.004116	0.002415	0.253963	0.202785	0.945717	-0.449355	0.890583	-0.070293	-0.856494	-0.407111	0.317297
58794	9.352691	-0.678863	3.130598	0.000210	0.001204	0.004816	0.253963	0.202796	0.945715	-0.449365	0.890578	-0.070300	-0.856490	-0.407117	0.317303
58795	9.316232	-0.690475	3.112291	0.000210	0.001204	0.004816	0.253965	0.202806	0.945712	-0.449375	0.890573	-0.070304	-0.856484	-0.407124	0.317310
58796	9.316183	-0.690918	3.112342	0.000832	-0.000189	0.005046	0.253953	0.202813	0.945714	-0.449390	0.890565	-0.070311	-0.856479	-0.407139	0.317303
58797	9.352534	-0.680123	3.130795	0.000140	0.000802	0.003211	0.253956	0.202807	0.945714	-0.449396	0.890562	-0.070301	-0.856475	-0.407147	0.317304
58798	9.299490	-0.706709	3.122028	-0.001296	0.000274	0.003547	0.253954	0.202803	0.945716	-0.449389	0.890566	-0.070301	-0.856479	-0.407141	0.317300
58799	9.369069	-0.665702	3.121280	0.000140	0.000802	0.003211	0.253957	0.202797	0.945716	-0.449394	0.890564	-0.070293	-0.856476	-0.407148	0.317301
58800	9.301408	-0.695909	3.143582	-0.001296	0.000274	0.003547	0.253955	0.202793	0.945718	-0.449388	0.890567	-0.070292	-0.856480	-0.407143	0.317297
58801	9.350368	-0.692886	3.109548	0.001576	0.001330	0.002874	0.253963	0.202788	0.945717	-0.449401	0.890561	-0.070279	-0.856471	-0.407158	0.317302
58802	9.352299	-0.681716	3.131149	-0.001918	0.001667	0.003317	0.253974	0.202787	0.945714	-0.449388	0.890568	-0.070278	-0.856474	-0.407144	0.317311
58803	9.297245	-0.719720	3.100948	0.002198	-0.000063	0.003104	0.253968	0.202777	0.945717	-0.449411	0.890558	-0.070263	-0.856464	-0.407171	0.317304
58804	9.372853	-0.644368	3.164510	-0.000604	-0.000717	0.005382	0.253949	0.202785	0.945721	-0.449414	0.890555	-0.070278	-0.856467	-0.407173	0.317291
58805	9.318935	-0.713036	3.150493	-0.000412	0.002596	0.004586	0.253961	0.202799	0.945715	-0.449419	0.890552	-0.070284	-0.856462	-0.407173	0.317307
58806	9.352092	-0.683235	3.131436	0.000140	0.000802	0.003210	0.253965	0.202794	0.945715	-0.449423	0.890550	-0.070276	-0.856458	-0.407179	0.317309
58807	9.371798	-0.687614	3.159565	-0.003283	0.001541	0.005258	0.253965	0.202810	0.945711	-0.449404	0.890559	-0.070298	-0.856468	-0.407153	0.317314
58808	9.332222	-0.680117	3.103522	0.000692	-0.000992	0.001835	0.253960	0.202786	0.945718	-0.449409	0.890557	-0.070275	-0.856467	-0.407168	0.317299
58809	9.353119	-0.714682	3.147764	-0.000552	0.001794	0.001375	0.253980	0.202768	0.945716	-0.449402	0.890563	-0.070252	-0.856465	-0.407164	0.317309
58810	9.349982	-0.695926	3.110029	0.000570	-0.003905	0.004236	0.253939	0.202753	0.945731	-0.449413	0.890557	-0.070252	-0.856471	-0.407184	0.317267
58811	9.317604	-0.684555	3.134407	0.000210	0.001203	0.004816	0.253939	0.202764	0.945728	-0.449420	0.890553	-0.070261	-0.856468	-0.407187	0.317272
58812	9.331281	-0.723325	3.098211	-0.003975	0.002533	0.003423	0.253957	0.202768	0.945723	-0.449390	0.890568	-0.070267	-0.856478	-0.407153	0.317288
58813	9.334087	-0.670287	3.125041	0.000762	-0.000591	0.003440	0.253948	0.202759	0.945727	-0.449401	0.890563	-0.070258	-0.856475	-0.407169	0.317277
58814	9.353839	-0.674561	3.153055	-0.001296	0.000274	0.003546	0.253946	0.202754	0.945728	-0.449395	0.890566	-0.070257	-0.856479	-0.407164	0.317272
58815	9.349753	-0.697855	3.110288	0.001025	0.003124	0.004250	0.253964	0.202769	0.945721	-0.449408	0.890560	-0.070258	-0.856467	-0.407171	0.317296
58816	9.351704	-0.686800	3.131816	-0.002110	-0.001646	0.004112	0.253943	0.202761	0.945728	-0.449395	0.890565	-0.070265	-0.856479	-0.407162	0.317273
58817	9.299500	-0.671479	3.128335	-0.002539	0.003061	0.003087	0.253967	0.202765	0.945721	-0.449376	0.890575	-0.070265	-0.856483	-0.407139	0.317294
58818	9.352741	-0.718065	3.148118	-0.000674	-0.001119	0.003776	0.253952	0.202757	0.945726	-0.449375	0.890576	-0.070264	-0.856487	-0.407142	0.317277
58819	9.332688	-0.642213	3.109135	-0.000534	-0.000317	0.006986	0.253931	0.202781	0.945727	-0.449380	0.890571	-0.070295	-0.856491	-0.407141	0.317269
58820	9.332049	-0.757107	3.114715	-0.001296	0.000274	0.003546	0.253929	0.202777	0.945728	-0.449373	0.890574	-0.070294	-0.856495	-0.407135	0.317265
58821	9.354390	-0.635553	3.158668	0.000140	0.000802	0.003210	0.253934	0.202771	0.945728	-0.449378	0.890573	-0.070285	-0.856491	-0.407141	0.317268
58822	9.316187	-0.730903	3.129766	-0.001917	0.001668	0.003316	0.253945	0.202771	0.945725	-0.449365	0.890579	-0.070284	-0.856495	-0.407127	0.317276
58823	9.335623	-0.662829	3.147047	0.000211	0.001203	0.004815	0.253943	0.202781	0.945723	-0.449375	0.890573	-0.070291	-0.856490	-0.407135	0.317280
58824	9.367064	-0.717162	3.117328	-0.002591	0.000549	0.007092	0.253928	0.202809	0.945721	-0.449366	0.890575	-0.070328	-0.856499	-0.407117	0.317277
58825	9.335491	-0.663867	3.147219	-0.000551	0.001794	0.001375	0.253951	0.202791	0.945719	-0.449361	0.890580	-0.070303	-0.856495	-0.407116	0.317290
58826	9.333431	-0.675696	3.125835	-0.002661	0.000148	0.005487	0.253939	0.202804	0.945720	-0.449347	0.890585	-0.070325	-0.856506	-0.407098	0.317283
58827	9.317869	-0.721810	3.151647	0.002338	0.000737	0.006314	0.253928	0.202826	0.945718	-0.449378	0.890568	-0.070339	-0.856493	-0.407124	0.317286
58828	9.351130	-0.691963	3.132393	-0.000815	-0.001921	0.000566	0.253921	0.202786	0.945728	-0.449368	0.890576	-0.070308	-0.856500	-0.407127	0.317262
58829	9.330262	-0.657822	3.088064	-0.000604	-0.000718	0.005381	0.253904	0.202795	0.945731	-0.449369	0.890574	-0.070323	-0.856505	-0.407127	0.317250
58830	9.333605	-0.749725	3.136544	-0.001295	0.000274	0.003546	0.253902	0.202790	0.945732	-0.449362	0.890578	-0.070323	-0.856509	-0.407121	0.317246
58831	9.349982	-0.662671	3.116041	-0.000604	-0.000718	0.005380	0.253883	0.202798	0.945736	-0.449366	0.890575	-0.070337	-0.856513	-0.407124	0.317233
58832	9.331334	-0.689646	3.104088	-0.000674	-0.001119	0.003775	0.253868	0.202790	0.945742	-0.449365	0.890575	-0.070337	-0.856517	-0.407127	0.317216
58833	9.354241	-0.712860	3.169668	-0.001436	-0.000527	0.000336	0.253871	0.202755	0.945748	-0.449347	0.890586	-0.070308	-0.856526	-0.407120	0.317201
58834	9.315574	-0.663255	3.118930	0.000211	0.001202	0.004815	0.253871	0.202765	0.945746	-0.449356	0.890581	-0.070315	-0.856521	-0.407126	0.317207
58835	9.334399	-0.709455	3.141740	0.000070	0.000401	0.001605	0.253880	0.202744	0.945748	-0.449357	0.890583	-0.070290	-0.856518	-0.407134	0.317206
58836	9.333221	-0.679300	3.125681	-0.001846	0.002069	0.004921	0.253888	0.202759	0.945743	-0.449349	0.890586	-0.070304	-0.856520	-0.407119	0.317218
58837	9.348836	-0.706655	3.111056	-0.001031	0.003989	0.004355	0.253914	0.202776	0.945732	-0.449349	0.890585	-0.070309	-0.856512	-0.407111	0.317249
58838	9.332982	-0.680219	3.126194	0.000211	0.001202	0.004815	0.253914	0.202787	0.945730	-0.449358	0.890580	-0.070315	-0.856507	-0.407117	0.317255
58839	9.298521	-0.680306	3.129340	0.000211	0.001202	0.004815	0.253913	0.202798	0.945728	-0.449365	0.890576	-0.070324	-0.856504	-0.407121	0.317259
58840	9.350559	-0.696600	3.133070	-0.000339	0.002996	0.006190	0.253923	0.202829	0.945719	-0.449373	0.890570	-0.070345	-0.856497	-0.407118	0.317282
58841	9.332725	-0.681657	3.126650	-0.001295	0.000275	0.003545	0.253925	0.202823	0.945719	-0.449367	0.890574	-0.070342	-0.856500	-0.407113	0.317281
58842	9.350419	-0.697452	3.133297	-0.001916	0.001668	0.003316	0.253936	0.202823	0.945717	-0.449354	0.890580	-0.070341	-0.856503	-0.407099	0.317289
58843	9.334636	-0.670867	3.148271	0.002198	-0.000065	0.003104	0.253935	0.202813	0.945719	-0.449375	0.890571	-0.070324	-0.856492	-0.407125	0.317286
58844	9.330592	-0.694112	3.105323	-0.002731	-0.000252	0.003881	0.253927	0.202809	0.945722	-0.449357	0.890579	-0.070331	-0.856504	-0.407108	0.317276
58845	9.349263	-0.667856	3.117091	0.002748	-0.001860	0.001728	0.253917	0.202779	0.945731	-0.449381	0.890570	-0.070299	-0.856495	-0.407143	0.317256
58846	9.315969	-0.698277	3.136239	-0.001225	0.000675	0.005150	0.253911	0.202791	0.945730	-0.449378	0.890570	-0.070313	-0.856498	-0.407137	0.317255
58847	9.332562	-0.683623	3.126705	0.000141	0.000801	0.003209	0.253916	0.202785	0.945730	-0.449383	0.890568	-0.070304	-0.856494	-0.407144	0.317258
58848	9.350310	-0.699386	3.133193	-0.000054	-0.002513	0.004005	0.253888	0.202774	0.945740	-0.449388	0.890566	-0.070304	-0.856499	-0.407155	0.317228
58849	9.347205	-0.680726	3.095452	-0.001295	0.000275	0.003545	0.253886	0.202769	0.945741	-0.449382	0.890569	-0.070302	-0.856503	-0.407151	0.317224
58850	9.331601	-0.726644	3.121297	-0.001916	0.001668	0.003315	0.253897	0.202768	0.945738	-0.449370	0.890575	-0.070301	-0.856506	-0.407137	0.317233
58851	9.331374	-0.654471	3.110521	0.000070	0.000401	0.001605	0.253905	0.202747	0.945741	-0.449369	0.890578	-0.070279	-0.856505	-0.407142	0.317230
58852	9.350167	-0.700685	3.133330	0.000212	0.001202	0.004814	0.253905	0.202758	0.945739	-0.449378	0.890573	-0.070285	-0.856500	-0.407148	0.317236
58853	9.312606	-0.681647	3.098824	0.000141	0.000801	0.003209	0.253910	0.202753	0.945738	-0.449382	0.890571	-0.070276	-0.856496	-0.407154	0.317238
58854	9.350067	-0.701389	3.133471	-0.001295	0.000275	0.003545	0.253908	0.202748	0.945740	-0.449375	0.890575	-0.070276	-0.856500	-0.407149	0.317234
58855	9.297947	-0.685843	3.129836	0.001312	-0.002387	0.002064	0.253892	0.202720	0.945750	-0.449386	0.890571	-0.070252	-0.856500	-0.407170	0.317208
58856	9.332361	-0.686555	3.126662	-0.000604	-0.000718	0.005379	0.253873	0.202728	0.945754	-0.449389	0.890568	-0.070267	-0.856503	-0.407173	0.317195
58857	9.367778	-0.717903	3.139881	-0.000409	0.002595	0.004584	0.253886	0.202742	0.945747	-0.449394	0.890566	-0.070273	-0.856497	-0.407172	0.317213
58858	9.348921	-0.672240	3.117175	-0.000816	-0.001920	0.000565	0.253878	0.202702	0.945758	-0.449383	0.890573	-0.070242	-0.856505	-0.407175	0.317188
58859	9.332225	-0.687627	3.126835	0.003225	0.003056	0.007352	0.253883	0.202742	0.945748	-0.449425	0.890550	-0.070263	-0.856481	-0.407205	0.317213
58860	9.312376	-0.684086	3.098978	-0.003422	0.000741	0.002046	0.253892	0.202727	0.945749	-0.449396	0.890566	-0.070255	-0.856494	-0.407179	0.317212
58861	9.382222	-0.715639	3.109081	0.000762	-0.000593	0.003439	0.253884	0.202718	0.945753	-0.449405	0.890562	-0.070247	-0.856491	-0.407192	0.317202
58862	9.318383	-0.650431	3.163376	-0.001224	0.000675	0.005149	0.253878	0.202730	0.945752	-0.449403	0.890562	-0.070261	-0.856494	-0.407186	0.317202
58863	9.345726	-0.727524	3.090712	0.000141	0.000801	0.003209	0.253882	0.202724	0.945752	-0.449407	0.890560	-0.070253	-0.856491	-0.407192	0.317203
58864	9.351574	-0.621177	3.144360	0.000283	0.001602	0.006418	0.253878	0.202751	0.945747	-0.449421	0.890552	-0.070275	-0.856485	-0.407198	0.317212
58865	9.328931	-0.743462	3.100521	-0.003422	0.000742	0.002046	0.253889	0.202735	0.945748	-0.449391	0.890567	-0.070266	-0.856497	-0.407171	0.317213
58866	9.335865	-0.667457	3.170360	0.003085	0.002254	0.004142	0.253901	0.202744	0.945743	-0.449424	0.890552	-0.070257	-0.856477	-0.407201	0.317230
58867	9.349501	-0.706321	3.134050	-0.005533	-0.000904	0.006156	0.253881	0.202759	0.945745	-0.449385	0.890568	-0.070294	-0.856503	-0.407157	0.317215
58868	9.331732	-0.691400	3.127474	0.003705	0.000860	0.004372	0.253880	0.202764	0.945744	-0.449423	0.890550	-0.070286	-0.856484	-0.407195	0.317220
58869	9.332631	-0.649902	3.132827	-0.002661	0.000149	0.005485	0.253868	0.202777	0.945744	-0.449407	0.890556	-0.070309	-0.856495	-0.407175	0.317213
58870	9.347381	-0.719148	3.112565	0.002818	-0.001461	0.003333	0.253852	0.202764	0.945751	-0.449435	0.890543	-0.070293	-0.856486	-0.407209	0.317196
58871	9.352373	-0.654600	3.160750	-0.001295	0.000275	0.003544	0.253850	0.202758	0.945753	-0.449431	0.890545	-0.070290	-0.856488	-0.407207	0.317191
58872	9.314040	-0.749909	3.131662	-0.000675	-0.001119	0.003774	0.253835	0.202750	0.945759	-0.449430	0.890546	-0.070290	-0.856493	-0.407210	0.317174
58873	9.350286	-0.666796	3.139318	-0.002535	0.003062	0.003085	0.253860	0.202752	0.945752	-0.449413	0.890555	-0.070287	-0.856495	-0.407190	0.317196
58874	9.295105	-0.704822	3.109139	-0.002660	0.000149	0.005484	0.253848	0.202765	0.945752	-0.449400	0.890560	-0.070309	-0.856505	-0.407173	0.317189
58875	9.349218	-0.709628	3.134149	0.002198	-0.000067	0.003103	0.253845	0.202755	0.945755	-0.449422	0.890550	-0.070293	-0.856494	-0.407200	0.317184
58876	9.348141	-0.679510	3.117939	-0.004168	-0.000777	0.004215	0.253831	0.202752	0.945760	-0.449392	0.890564	-0.070308	-0.856514	-0.407171	0.317168
58877	9.329372	-0.706484	3.106199	-0.001027	0.003989	0.004354	0.253859	0.202770	0.945748	-0.449390	0.890564	-0.070313	-0.856507	-0.407160	0.317201
58878	9.349993	-0.668948	3.139731	-0.001295	0.000275	0.003544	0.253857	0.202766	0.945750	-0.449383	0.890568	-0.070312	-0.856511	-0.407155	0.317196
58879	9.346989	-0.722561	3.112951	0.002127	-0.000468	0.001499	0.253857	0.202739	0.945755	-0.449402	0.890561	-0.070280	-0.856501	-0.407183	0.317187
58880	9.330161	-0.665463	3.111828	-0.002464	0.003463	0.004689	0.253878	0.202758	0.945746	-0.449388	0.890567	-0.070294	-0.856503	-0.407161	0.317212
58881	9.348858	-0.711850	3.134719	-0.001295	0.000275	0.003544	0.253877	0.202754	0.945747	-0.449381	0.890571	-0.070293	-0.856507	-0.407155	0.317209
58882	9.332050	-0.654864	3.133524	0.000212	0.001201	0.004813	0.253877	0.202764	0.945745	-0.449390	0.890565	-0.070299	-0.856502	-0.407161	0.317215
58883	9.347786	-0.754494	3.129553	0.000071	0.000400	0.001604	0.253883	0.202742	0.945748	-0.449393	0.890566	-0.070274	-0.856498	-0.407171	0.317211
58884	9.328876	-0.636373	3.096061	-0.001914	0.001669	0.003314	0.253894	0.202742	0.945745	-0.449380	0.890572	-0.070274	-0.856502	-0.407157	0.317219
58885	9.331949	-0.728295	3.144703	-0.001844	0.002069	0.004919	0.253903	0.202757	0.945739	-0.449370	0.890576	-0.070288	-0.856504	-0.407141	0.317233
58886	9.351567	-0.660276	3.161954	0.000761	-0.000594	0.003438	0.253894	0.202748	0.945744	-0.449381	0.890572	-0.070280	-0.856502	-0.407155	0.317222
58887	9.312135	-0.725065	3.116685	-0.002731	-0.000251	0.003879	0.253887	0.202745	0.945746	-0.449361	0.890581	-0.070287	-0.856514	-0.407137	0.317212
58888	9.312048	-0.653151	3.105764	0.001523	-0.001187	0.006876	0.253857	0.202764	0.945750	-0.449387	0.890566	-0.070309	-0.856509	-0.407159	0.317196
58889	9.360055	-0.692478	3.066395	-0.005407	0.002011	0.003755	0.253869	0.202769	0.945746	-0.449345	0.890586	-0.070323	-0.856528	-0.407113	0.317205
58890	9.306485	-0.714845	3.249924	0.003086	0.002252	0.004142	0.253881	0.202778	0.945741	-0.449377	0.890571	-0.070315	-0.856507	-0.407143	0.317223
58891	9.391248	-0.674407	3.026002	0.004183	-0.001337	0.001393	0.253875	0.202747	0.945749	-0.449412	0.890556	-0.070276	-0.856491	-0.407189	0.317207
58892	9.284603	-0.722676	3.200638	-0.006646	0.004800	0.003296	0.253913	0.202759	0.945736	-0.449359	0.890582	-0.070290	-0.856507	-0.407127	0.317242
58893	9.395182	-0.652106	3.069191	0.001310	-0.002388	0.002063	0.253895	0.202731	0.945747	-0.449370	0.890578	-0.070267	-0.856507	-0.407150	0.317214
58894	9.298123	-0.689221	3.153526	-0.000407	0.002595	0.004583	0.253908	0.202745	0.945740	-0.449373	0.890576	-0.070273	-0.856501	-0.407148	0.317233
58895	9.347074	-0.686390	3.119631	0.001578	0.001326	0.002873	0.253918	0.202739	0.945739	-0.449389	0.890569	-0.070257	-0.856490	-0.407166	0.317240
58896	9.313695	-0.716752	3.138824	-0.000675	-0.001119	0.003773	0.253903	0.202731	0.945745	-0.449388	0.890570	-0.070257	-0.856495	-0.407168	0.317223
58897	9.330359	-0.702091	3.129188	-0.001295	0.000275	0.003544	0.253901	0.202727	0.945746	-0.449382	0.890573	-0.070256	-0.856499	-0.407163	0.317219
58898	9.347005	-0.687282	3.119639	-0.002056	0.000869	0.000106	0.253920	0.202694	0.945748	-0.449359	0.890587	-0.070225	-0.856505	-0.407149	0.317220
58899	9.330316	-0.702501	3.129222	-0.002802	-0.000651	0.002275	0.253916	0.202674	0.945754	-0.449336	0.890599	-0.070217	-0.856518	-0.407132	0.317206
58900	9.328234	-0.714352	3.107817	0.001720	0.002126	0.006081	0.253918	0.202700	0.945747	-0.449362	0.890585	-0.070231	-0.856504	-0.407150	0.317221
58901	9.331208	-0.661375	3.134665	-0.002802	-0.000651	0.002275	0.253914	0.202681	0.945753	-0.449339	0.890597	-0.070223	-0.856518	-0.407133	0.317207
58902	9.366638	-0.692606	3.147721	-0.002802	-0.000651	0.002275	0.253910	0.202661	0.945758	-0.449316	0.890610	-0.070215	-0.856531	-0.407116	0.317193
58903	9.330175	-0.703948	3.129318	0.001650	0.001726	0.004477	0.253916	0.202671	0.945754	-0.449336	0.890599	-0.070214	-0.856518	-0.407133	0.317205
58904	9.344779	-0.700693	3.098320	0.000761	-0.000594	0.003438	0.253907	0.202662	0.945759	-0.449347	0.890595	-0.070206	-0.856516	-0.407148	0.317194
58905	9.296733	-0.734558	3.148613	-0.000548	0.001794	0.001374	0.253928	0.202644	0.945757	-0.449341	0.890600	-0.070182	-0.856513	-0.407146	0.317204
58906	9.344766	-0.700953	3.098300	0.003294	-0.003657	0.000354	0.253906	0.202596	0.945773	-0.449365	0.890591	-0.070137	-0.856506	-0.407189	0.317166
58907	9.334185	-0.681723	3.172269	0.000960	0.002720	0.002643	0.253929	0.202593	0.945767	-0.449375	0.890587	-0.070120	-0.856494	-0.407199	0.317186
58908	9.325968	-0.727902	3.086565	0.008030	0.000319	0.008972	0.253903	0.202637	0.945765	-0.449462	0.890542	-0.070141	-0.856456	-0.407276	0.317189
58909	9.334017	-0.682701	3.172556	0.015158	0.000432	0.011298	0.253868	0.202703	0.945760	-0.449615	0.890462	-0.070162	-0.856386	-0.407417	0.317198
58910	9.310137	-0.702378	3.101611	0.020792	-0.002494	0.017961	0.253777	0.202815	0.945761	-0.449834	0.890347	-0.070227	-0.856298	-0.407613	0.317183
58911	9.350561	-0.669756	3.162936	0.023134	-0.001763	0.024269	0.253665	0.202987	0.945754	-0.450089	0.890209	-0.070345	-0.856197	-0.407829	0.317177
58912	9.311988	-0.693778	3.122995	0.036573	-0.003461	0.029481	0.253514	0.203198	0.945749	-0.450472	0.890005	-0.070470	-0.856041	-0.408169	0.317164
58913	9.310799	-0.737805	3.117687	0.036187	-0.002977	0.039663	0.253321	0.203502	0.945735	-0.450878	0.889782	-0.070692	-0.855884	-0.408503	0.317155
58914	9.347139	-0.657046	3.125080	0.048192	-0.005204	0.045204	0.253084	0.203846	0.945725	-0.451400	0.889499	-0.070928	-0.855679	-0.408949	0.317134
58915	9.333277	-0.694010	3.172278	0.048485	-0.003603	0.051606	0.252832	0.204253	0.945704	-0.451940	0.889200	-0.071224	-0.855468	-0.409394	0.317128
58916	9.333181	-0.625177	3.161207	0.053581	-0.004737	0.059628	0.252534	0.204727	0.945682	-0.452544	0.888864	-0.071580	-0.855237	-0.409887	0.317116
58917	9.327675	-0.694043	3.113038	0.070596	-0.006400	0.065978	0.252192	0.205250	0.945660	-0.453310	0.888445	-0.071941	-0.854932	-0.410534	0.317100
58918	9.326201	-0.740399	3.107822	0.068095	-0.005439	0.074643	0.251818	0.205853	0.945628	-0.454075	0.888017	-0.072393	-0.854636	-0.411156	0.317092
58919	9.338065	-0.826123	3.066426	0.068195	-0.007148	0.081828	0.251397	0.206513	0.945596	-0.454859	0.887574	-0.072912	-0.854343	-0.411783	0.317068
58920	9.315693	-0.586795	3.159055	0.079746	-0.007198	0.090309	0.250936	0.207248	0.945558	-0.455762	0.887064	-0.073475	-0.853997	-0.412512	0.317052
58921	9.346796	-0.750222	3.156843	0.077737	-0.010534	0.101594	0.250395	0.208068	0.945521	-0.456676	0.886537	-0.074151	-0.853668	-0.413230	0.317004
58922	9.355876	-0.566191	3.219431	0.089285	-0.008496	0.104452	0.249857	0.208922	0.945475	-0.457695	0.885956	-0.074817	-0.853280	-0.414045	0.316985
58923	9.323193	-0.740914	3.090595	0.130784	-0.012736	0.107628	0.249267	0.209785	0.945440	-0.459074	0.885194	-0.075382	-0.852712	-0.415237	0.316956
58924	9.357132	-0.749056	3.087122	0.078132	-0.013112	0.119084	0.248620	0.210748	0.945396	-0.460032	0.884625	-0.076222	-0.852384	-0.415962	0.316886
58925	9.310464	-0.778665	3.158573	0.110212	-0.013175	0.127801	0.247931	0.211786	0.945345	-0.461284	0.883901	-0.077042	-0.851908	-0.416971	0.316840
58926	9.349013	-0.559665	3.141441	0.113830	-0.015248	0.134493	0.247192	0.212874	0.945294	-0.462582	0.883146	-0.077915	-0.851419	-0.418016	0.316778
58927	9.296595	-0.896933	3.046226	0.118360	-0.015006	0.142198	0.246417	0.214029	0.945235	-0.463935	0.882353	-0.078846	-0.850907	-0.419099	0.316723
58928	9.322002	-0.742827	3.093053	0.114530	-0.012035	0.147130	0.245644	0.215240	0.945162	-0.465267	0.881563	-0.079835	-0.850403	-0.420142	0.316694
58929	9.342615	-0.848753	3.170485	0.099336	-0.014408	0.163595	0.244771	0.216584	0.945081	-0.466508	0.880798	-0.081029	-0.849975	-0.421055	0.316632
58930	9.344882	-0.442687	3.247634	0.161993	-0.018262	0.161540	0.243873	0.217892	0.945013	-0.468275	0.879769	-0.082004	-0.849261	-0.422527	0.316586
58931	9.315476	-1.000002	2.935968	0.141406	-0.014353	0.170521	0.242964	0.219294	0.944923	-0.469886	0.878804	-0.083129	-0.848632	-0.423808	0.316561
58932	9.282571	-0.829761	3.089623	0.069352	-0.017460	0.180692	0.241978	0.220770	0.944832	-0.470908	0.878119	-0.084579	-0.848347	-0.424462	0.316448
58933	9.325805	-0.596380	3.283557	0.157131	-0.018876	0.182549	0.240970	0.222255	0.944741	-0.472677	0.877052	-0.085768	-0.847650	-0.425890	0.316398
58934	9.267551	-1.047867	3.028084	0.121946	-0.020750	0.191805	0.239898	0.223811	0.944647	-0.474167	0.876110	-0.087156	-0.847121	-0.427012	0.316301
58935	9.351449	-0.561675	3.356349	0.123872	-0.018226	0.199304	0.238810	0.225442	0.944535	-0.475689	0.875139	-0.088609	-0.846575	-0.428144	0.316232
58936	9.345061	-0.959832	3.093242	0.166906	-0.022449	0.201903	0.237670	0.227075	0.944431	-0.477578	0.873973	-0.089949	-0.845832	-0.429661	0.316163
58937	9.304229	-0.837595	3.160736	0.115606	-0.022078	0.211520	0.236485	0.228791	0.944314	-0.479053	0.873000	-0.091543	-0.845330	-0.430728	0.316054
58938	9.371684	-0.765905	3.102620	0.184912	-0.027130	0.216876	0.235227	0.230529	0.944206	-0.481122	0.871710	-0.092969	-0.844506	-0.432410	0.315963
58939	9.323863	-1.019812	3.100914	0.141369	-0.025987	0.223408	0.233944	0.232326	0.944084	-0.482836	0.870587	-0.094593	-0.843884	-0.433708	0.315844
58940	9.308011	-0.858361	3.028986	0.155371	-0.023825	0.230696	0.232640	0.234193	0.943945	-0.484680	0.869381	-0.096242	-0.843187	-0.435122	0.315762
58941	9.271707	-1.024149	3.116666	0.114806	-0.021166	0.238144	0.231319	0.236134	0.943786	-0.486196	0.868327	-0.098089	-0.842677	-0.436176	0.315667
58942	9.322530	-0.691869	3.276935	0.152845	-0.026183	0.239853	0.229943	0.238064	0.943638	-0.488033	0.867097	-0.099832	-0.841992	-0.437571	0.315566
58943	9.282365	-1.117520	3.118266	0.185732	-0.028228	0.248424	0.228503	0.240056	0.943482	-0.490162	0.865696	-0.101551	-0.841147	-0.439254	0.315481
58944	9.341504	-0.967949	3.098274	0.142501	-0.029463	0.250503	0.227039	0.242057	0.943325	-0.491926	0.864472	-0.103427	-0.840513	-0.440564	0.315343
58945	9.294950	-0.884715	3.100514	0.163470	-0.030732	0.260786	0.225509	0.244138	0.943156	-0.493886	0.863123	-0.105333	-0.839775	-0.442058	0.315218
58946	9.283856	-1.030190	3.087942	0.151374	-0.033232	0.263201	0.223941	0.246225	0.942987	-0.495744	0.861814	-0.107300	-0.839099	-0.443452	0.315060
58947	9.320287	-0.980833	3.069589	0.149740	-0.031109	0.267863	0.222363	0.248357	0.942801	-0.497594	0.860494	-0.109316	-0.838424	-0.444825	0.314923
58948	9.273856	-1.124776	3.060739	0.163559	-0.032384	0.275867	0.220730	0.250548	0.942605	-0.499573	0.859084	-0.111363	-0.837679	-0.446318	0.314793
58949	9.267182	-1.050730	3.118695	0.163116	-0.033083	0.280998	0.219060	0.252776	0.942400	-0.501553	0.857655	-0.113460	-0.836933	-0.447808	0.314658
58950	9.304976	-1.277230	2.975184	0.140055	-0.032259	0.286155	0.217366	0.255048	0.942180	-0.503345	0.856307	-0.115678	-0.836299	-0.449097	0.314509
58951	9.277908	-1.033836	3.220282	0.115056	-0.030023	0.293011	0.215652	0.257384	0.941938	-0.504938	0.855047	-0.118038	-0.835782	-0.450165	0.314355
58952	9.283544	-1.108949	3.163367	0.209758	-0.038374	0.292398	0.213865	0.259673	0.941717	-0.507315	0.853352	-0.120095	-0.834801	-0.452063	0.314238
58953	9.313606	-1.116409	3.120226	0.150592	-0.035701	0.298171	0.212066	0.262017	0.941475	-0.509203	0.851900	-0.122391	-0.834111	-0.453447	0.314079
58954	9.273689	-1.225800	3.175040	0.140898	-0.031746	0.308793	0.210240	0.264466	0.941200	-0.511026	0.850454	-0.124817	-0.833457	-0.454736	0.313949
58955	9.347884	-1.017048	3.196043	0.183105	-0.043009	0.302422	0.208347	0.266803	0.940961	-0.513181	0.848825	-0.127050	-0.832608	-0.456413	0.313769
58956	9.200449	-1.374730	2.928687	0.192943	-0.042529	0.310517	0.206411	0.269206	0.940703	-0.515428	0.847118	-0.129328	-0.831702	-0.458170	0.313610
58957	9.299493	-1.251873	3.110801	0.156840	-0.037517	0.316974	0.204476	0.271681	0.940414	-0.517380	0.845549	-0.131780	-0.830968	-0.459605	0.313457
58958	9.295193	-1.384542	3.030569	0.173464	-0.044527	0.318965	0.202467	0.274134	0.940137	-0.519466	0.843887	-0.134197	-0.830158	-0.461199	0.313263
58959	9.199306	-1.486649	3.061235	0.131399	-0.036030	0.327348	0.200479	0.276692	0.939813	-0.521213	0.842387	-0.136824	-0.829545	-0.462413	0.313097
58960	9.298298	-1.222837	3.243242	0.184035	-0.043721	0.321468	0.198453	0.279160	0.939514	-0.523378	0.840649	-0.139231	-0.828669	-0.464090	0.312935
58961	9.224900	-1.080144	3.209740	0.181210	-0.043564	0.333493	0.196357	0.281722	0.939189	-0.525534	0.838879	-0.141759	-0.827803	-0.465740	0.312775
58962	9.249213	-1.451869	3.009865	0.200990	-0.046982	0.332257	0.194233	0.284251	0.938869	-0.527843	0.837009	-0.144212	-0.826834	-0.467564	0.312615
58963	9.268669	-1.515708	3.113599	0.124333	-0.046072	0.338691	0.192077	0.286832	0.938527	-0.529522	0.835469	-0.146965	-0.826264	-0.468742	0.312358
58964	9.206307	-1.382688	3.197913	0.201945	-0.052761	0.343075	0.189836	0.289412	0.938191	-0.531842	0.833540	-0.149516	-0.825292	-0.470586	0.312157
58965	9.234224	-1.589271	3.040578	0.173682	-0.046940	0.346426	0.187617	0.292040	0.937823	-0.533926	0.831723	-0.152185	-0.824453	-0.472176	0.311973
58966	9.283742	-1.461185	3.194776	0.163725	-0.049624	0.350321	0.185350	0.294681	0.937448	-0.535926	0.829929	-0.154921	-0.823668	-0.473688	0.311754
58967	9.188069	-1.651063	3.020082	0.204347	-0.048415	0.352457	0.183073	0.297337	0.937056	-0.538255	0.827925	-0.157549	-0.822658	-0.475532	0.311614
58968	9.272312	-1.352190	3.091550	0.177250	-0.050430	0.355949	0.180754	0.300006	0.936656	-0.540358	0.826026	-0.160294	-0.821791	-0.477156	0.311418
58969	9.192404	-1.757921	2.871900	0.139958	-0.052900	0.358107	0.178397	0.302673	0.936250	-0.542149	0.824287	-0.163174	-0.821127	-0.478477	0.311144
58970	9.204251	-1.419102	3.191509	0.156485	-0.046831	0.366720	0.176036	0.305433	0.935800	-0.544081	0.822431	-0.166082	-0.820358	-0.479914	0.310958
58971	9.260083	-1.809440	3.112190	0.223465	-0.065138	0.356939	0.173571	0.308016	0.935414	-0.546535	0.820271	-0.168689	-0.819251	-0.481957	0.310717
58972	9.133223	-1.671056	3.030373	0.153883	-0.055360	0.370526	0.171105	0.310750	0.934964	-0.548431	0.818391	-0.171638	-0.818502	-0.483395	0.310456
58973	9.276911	-1.591261	3.281435	0.203011	-0.058670	0.365217	0.168634	0.313416	0.934523	-0.550711	0.816277	-0.174384	-0.817484	-0.485245	0.310253
58974	9.135732	-1.925818	2.944148	0.196152	-0.059964	0.369903	0.166119	0.316105	0.934067	-0.552931	0.814168	-0.177194	-0.816500	-0.487039	0.310033
58975	9.208388	-1.456660	3.051544	0.171181	-0.062197	0.374916	0.163550	0.318816	0.933599	-0.554944	0.812153	-0.180127	-0.815652	-0.488636	0.309753
58976	9.201755	-1.909214	2.876526	0.161755	-0.059034	0.373940	0.161006	0.321526	0.933112	-0.556868	0.810173	-0.183078	-0.814847	-0.490144	0.309490
58977	9.208110	-1.836498	3.158657	0.148981	-0.061839	0.380185	0.158398	0.324264	0.932611	-0.558687	0.808224	-0.186126	-0.814112	-0.491556	0.309183
58978	9.175835	-1.802253	3.121883	0.218487	-0.062229	0.381696	0.155771	0.327004	0.932097	-0.561063	0.805915	-0.188972	-0.812985	-0.493528	0.309007
58979	9.141897	-2.093883	2.969600	0.172246	-0.064348	0.380823	0.153124	0.329716	0.931580	-0.563049	0.803822	-0.191950	-0.812114	-0.495133	0.308731
58980	9.179955	-1.979404	3.130004	0.148520	-0.063604	0.388324	0.150434	0.332484	0.931034	-0.564843	0.801810	-0.195071	-0.811370	-0.496543	0.308421
58981	9.137581	-1.798875	3.060543	0.233115	-0.064908	0.388552	0.147724	0.335238	0.930480	-0.567311	0.799363	-0.197931	-0.810145	-0.498633	0.308269
58982	9.155931	-1.804281	3.066977	0.172171	-0.068130	0.387655	0.144986	0.337958	0.929927	-0.569272	0.797208	-0.200969	-0.809264	-0.500243	0.307974
58983	9.181769	-1.884635	3.119272	0.207755	-0.068826	0.387187	0.142238	0.340661	0.929365	-0.571507	0.794864	-0.203891	-0.808176	-0.502138	0.307750
58984	9.099440	-2.400683	3.004015	0.153721	-0.072335	0.395200	0.139408	0.343400	0.928785	-0.573305	0.792749	-0.207052	-0.807395	-0.503612	0.307388
58985	9.117084	-1.918548	3.048970	0.190636	-0.073264	0.392775	0.136578	0.346106	0.928201	-0.575384	0.790444	-0.210076	-0.806399	-0.505381	0.307101
58986	9.042930	-2.235355	2.982003	0.206771	-0.074652	0.394598	0.133718	0.348808	0.927606	-0.577583	0.788036	-0.213065	-0.805306	-0.507279	0.306841
58987	9.132325	-2.373189	2.936319	0.160100	-0.071313	0.399529	0.130850	0.351556	0.926977	-0.579400	0.785834	-0.216241	-0.804471	-0.508795	0.306518
58988	9.125210	-1.800074	3.164980	0.204830	-0.074525	0.399321	0.127950	0.354276	0.926346	-0.581563	0.783392	-0.219276	-0.803376	-0.510672	0.306268
58989	9.146768	-2.254749	2.984608	0.152024	-0.075628	0.400073	0.125029	0.356985	0.925705	-0.583290	0.781202	-0.222478	-0.802584	-0.512138	0.305899
58990	9.150743	-2.028348	3.018650	0.194280	-0.076481	0.399666	0.122098	0.359677	0.925054	-0.585342	0.778784	-0.225545	-0.801541	-0.513934	0.305622
58991	9.064991	-2.532025	2.989583	0.230440	-0.083973	0.400504	0.119094	0.362324	0.924412	-0.587670	0.776162	-0.228507	-0.800288	-0.516036	0.305363
58992	9.062117	-2.447878	2.939768	0.147400	-0.076012	0.405372	0.116117	0.365040	0.923722	-0.589326	0.773938	-0.231766	-0.799507	-0.517461	0.304995
58993	9.101361	-2.259384	3.198522	0.191158	-0.081513	0.405713	0.113088	0.367719	0.923035	-0.591319	0.771471	-0.234892	-0.798469	-0.519244	0.304684
58994	9.034508	-2.245626	3.032666	0.227896	-0.083202	0.409803	0.110014	0.370409	0.922331	-0.593594	0.768784	-0.237942	-0.797209	-0.521313	0.304450
58995	9.133044	-2.201217	3.160942	0.166869	-0.082379	0.405482	0.106965	0.373058	0.921621	-0.595364	0.766417	-0.241135	-0.796304	-0.522907	0.304085
58996	9.056068	-2.331739	2.911875	0.203717	-0.086578	0.406794	0.103868	0.375684	0.920909	-0.597415	0.763839	-0.244226	-0.795178	-0.524797	0.303777
58997	9.026256	-2.780144	2.892135	0.178999	-0.089523	0.410880	0.100716	0.378314	0.920182	-0.599258	0.761360	-0.247428	-0.794195	-0.526507	0.303389
58998	9.021697	-2.402927	3.066802	0.172635	-0.090021	0.410413	0.097556	0.380926	0.919444	-0.601036	0.758903	-0.250642	-0.793246	-0.528168	0.302986
58999	8.990396	-2.484756	3.135499	0.236127	-0.088747	0.411054	0.094395	0.383537	0.918688	-0.603303	0.756094	-0.253668	-0.791906	-0.530302	0.302761
59000	9.012971	-2.732865	2.815203	0.180908	-0.090213	0.414798	0.091193	0.386157	0.917914	-0.605120	0.753549	-0.256892	-0.790894	-0.532022	0.302390
59001	9.146635	-2.244476	3.084935	0.174812	-0.092589	0.413126	0.087976	0.388739	0.917138	-0.606873	0.751028	-0.260117	-0.789915	-0.533703	0.301987
59002	9.021153	-2.598230	2.848525	0.198336	-0.095854	0.408518	0.084754	0.391256	0.916371	-0.608793	0.748387	-0.263227	-0.788789	-0.535571	0.301623
59003	8.930401	-2.925243	3.040708	0.158625	-0.092540	0.412804	0.081526	0.393812	0.915569	-0.610388	0.745928	-0.266493	-0.787896	-0.537126	0.301191
59004	9.002020	-2.554909	3.012862	0.198910	-0.095910	0.416115	0.078246	0.396362	0.914754	-0.612288	0.743225	-0.269665	-0.786753	-0.538993	0.300842
59005	8.972860	-2.798743	3.070307	0.233182	-0.098705	0.415546	0.074939	0.398879	0.913936	-0.614441	0.740326	-0.272726	-0.785396	-0.541122	0.300567
59006	8.945216	-2.905666	2.787939	0.158026	-0.092800	0.420589	0.071642	0.401452	0.913074	-0.615991	0.737799	-0.276057	-0.784488	-0.542668	0.300148
59007	9.079117	-2.367643	3.112968	0.209311	-0.100661	0.415784	0.068306	0.403935	0.912234	-0.617925	0.734999	-0.279187	-0.783264	-0.544622	0.299806
59008	8.971014	-2.848660	2.837304	0.197788	-0.100878	0.414835	0.064968	0.406396	0.911384	-0.619751	0.732252	-0.282340	-0.782105	-0.546489	0.299437
59009	8.885744	-2.995071	3.122452	0.154969	-0.104650	0.418688	0.061571	0.408852	0.910521	-0.621230	0.729710	-0.285653	-0.781206	-0.548055	0.298920
59010	8.914725	-2.760618	3.014594	0.230047	-0.105985	0.416474	0.058171	0.411271	0.909655	-0.623277	0.726751	-0.288719	-0.779835	-0.550172	0.298611
59011	8.950542	-3.075340	2.946097	0.218767	-0.103299	0.419728	0.054765	0.413714	0.908758	-0.625221	0.723827	-0.291846	-0.778524	-0.552192	0.298303
59012	8.939587	-3.054609	2.781896	0.144331	-0.103976	0.426952	0.051302	0.416193	0.907828	-0.626573	0.721270	-0.295257	-0.777673	-0.553673	0.297778
59013	8.938926	-2.512586	3.056558	0.224286	-0.107060	0.415450	0.047882	0.418557	0.906927	-0.628524	0.718305	-0.298322	-0.776315	-0.555741	0.297467
59014	8.952249	-3.143156	2.811116	0.180980	-0.108866	0.419178	0.044419	0.420925	0.906007	-0.630124	0.715551	-0.301547	-0.775223	-0.557502	0.297019
59015	8.869542	-3.075381	3.136234	0.162367	-0.111670	0.420733	0.040919	0.423275	0.905077	-0.631564	0.712881	-0.304839	-0.774243	-0.559140	0.296496
59016	8.878523	-3.020917	2.878648	0.243437	-0.112960	0.423141	0.037387	0.425621	0.904129	-0.633616	0.709735	-0.307908	-0.772744	-0.561358	0.296216
59017	8.861003	-3.333147	2.888979	0.200910	-0.108970	0.421967	0.033888	0.427966	0.903159	-0.635321	0.706817	-0.311090	-0.771504	-0.563253	0.295848
59018	8.847985	-3.203105	2.833341	0.137195	-0.110624	0.430815	0.030315	0.430351	0.902153	-0.636520	0.704208	-0.314537	-0.770664	-0.564703	0.295275
59019	8.905922	-2.747746	3.116781	0.239708	-0.115440	0.415362	0.026798	0.432585	0.901195	-0.638488	0.701073	-0.317538	-0.769165	-0.566892	0.294987
59020	8.888737	-3.311140	2.708095	0.171383	-0.115689	0.420130	0.023242	0.434837	0.900209	-0.639914	0.698291	-0.320781	-0.768095	-0.568600	0.294488
59021	8.790780	-3.270213	3.125426	0.155983	-0.117300	0.422411	0.019656	0.437082	0.899207	-0.641205	0.695575	-0.324086	-0.767118	-0.570206	0.293932
59022	8.776813	-3.259468	2.809613	0.233661	-0.121112	0.422362	0.016035	0.439291	0.898202	-0.643075	0.692403	-0.327159	-0.765635	-0.572365	0.293600
59023	8.815427	-3.392333	2.922086	0.204499	-0.120976	0.424270	0.012397	0.441498	0.897176	-0.644704	0.689376	-0.330331	-0.764332	-0.574318	0.293182
59024	8.776858	-3.432148	2.871212	0.152242	-0.116600	0.424184	0.008789	0.443716	0.896124	-0.645915	0.686636	-0.333653	-0.763358	-0.575888	0.292638
59025	8.892248	-2.994718	3.112753	0.229989	-0.125315	0.420145	0.005136	0.445841	0.895098	-0.647703	0.683454	-0.336707	-0.761876	-0.578028	0.292282
59026	8.793769	-3.487682	2.556217	0.174727	-0.121140	0.421009	0.001504	0.447981	0.894042	-0.649051	0.680575	-0.339926	-0.760743	-0.579768	0.291786
59027	8.751805	-3.470456	3.037468	0.176659	-0.127383	0.421965	-0.002186	0.450076	0.892987	-0.650397	0.677669	-0.343145	-0.759591	-0.581547	0.291247
59028	8.728844	-3.457694	2.943463	0.228888	-0.127447	0.423407	-0.005891	0.452167	0.891914	-0.652121	0.674439	-0.346222	-0.758092	-0.583676	0.290895
59029	8.840238	-3.484654	2.852611	0.216255	-0.124617	0.420615	-0.009561	0.454238	0.890829	-0.653732	0.671282	-0.349306	-0.756666	-0.585703	0.290532
59030	8.702748	-3.721933	2.699942	0.142635	-0.122813	0.425507	-0.013253	0.456339	0.889707	-0.654766	0.668523	-0.352645	-0.755715	-0.587224	0.289935
59031	8.723259	-3.160015	3.147927	0.209471	-0.128329	0.421131	-0.016962	0.458363	0.888603	-0.656289	0.665379	-0.355746	-0.754319	-0.589215	0.289532
59032	8.724628	-3.635696	2.691073	0.203712	-0.133789	0.418881	-0.020703	0.460324	0.887509	-0.657751	0.662267	-0.358841	-0.752951	-0.591189	0.289068
59033	8.643428	-3.859473	2.953796	0.149670	-0.128810	0.424757	-0.024448	0.462339	0.886366	-0.658786	0.659436	-0.362140	-0.751933	-0.592779	0.288461
59034	8.630469	-3.552570	3.089991	0.212389	-0.136878	0.421882	-0.028238	0.464273	0.885242	-0.660276	0.656234	-0.365229	-0.750492	-0.594817	0.288017
59035	8.805121	-3.540755	2.613747	0.219377	-0.131316	0.419930	-0.031978	0.466210	0.884096	-0.661800	0.652988	-0.368277	-0.748998	-0.596871	0.287657
59036	8.652276	-3.971580	2.643528	0.156591	-0.132916	0.425175	-0.035768	0.468157	0.882921	-0.662833	0.650080	-0.371548	-0.747912	-0.598519	0.287058
59037	8.610780	-3.392188	3.014731	0.181319	-0.136094	0.420879	-0.039557	0.470041	0.881758	-0.664036	0.647033	-0.374706	-0.746654	-0.600341	0.286530
59038	8.671992	-3.854188	2.772534	0.219386	-0.138077	0.417620	-0.043342	0.471877	0.880598	-0.665505	0.643762	-0.377722	-0.745134	-0.602414	0.286135
59039	8.514120	-3.989386	2.915355	0.154911	-0.135479	0.425772	-0.047166	0.473766	0.879387	-0.666472	0.640829	-0.380990	-0.744037	-0.604056	0.285526
59040	8.714915	-3.743202	2.927156	0.198929	-0.141194	0.423484	-0.051020	0.475590	0.878186	-0.667749	0.637630	-0.384109	-0.742636	-0.606005	0.285043
59041	8.642550	-3.721404	2.718247	0.226239	-0.140846	0.419029	-0.054845	0.477371	0.876988	-0.669212	0.634275	-0.387106	-0.741045	-0.608122	0.284676
59042	8.640513	-4.164946	2.719182	0.175450	-0.140281	0.420947	-0.058682	0.479152	0.875768	-0.670278	0.631208	-0.390261	-0.739786	-0.609909	0.284125
59043	8.578255	-3.579101	2.937714	0.152040	-0.142502	0.417834	-0.062517	0.480885	0.874552	-0.671155	0.628289	-0.393451	-0.738676	-0.611558	0.283470
59044	8.543280	-4.006637	2.943542	0.229459	-0.144959	0.418442	-0.066377	0.482590	0.873327	-0.672586	0.624882	-0.396422	-0.737036	-0.613701	0.283106
59045	8.456887	-4.178617	2.654502	0.170750	-0.143270	0.422487	-0.070255	0.484315	0.872068	-0.673561	0.621805	-0.399591	-0.735785	-0.615465	0.282531
59046	8.536184	-4.019732	2.887838	0.157863	-0.146401	0.426758	-0.074186	0.486032	0.870786	-0.674421	0.618777	-0.402829	-0.734611	-0.617161	0.281885
59047	8.656514	-3.810450	2.799002	0.235651	-0.146893	0.418065	-0.078066	0.487676	0.869528	-0.675839	0.615300	-0.405768	-0.732904	-0.619337	0.281556
59048	8.505006	-4.285024	2.637349	0.189211	-0.147452	0.422847	-0.081984	0.489328	0.868238	-0.676893	0.612076	-0.408875	-0.731501	-0.621225	0.281043
59049	8.565353	-3.995750	2.917058	0.148291	-0.149953	0.416701	-0.085881	0.490912	0.866966	-0.677635	0.609126	-0.412039	-0.730367	-0.622872	0.280347
59050	8.395092	-4.135861	2.913918	0.212356	-0.150468	0.418263	-0.089794	0.492487	0.865675	-0.678824	0.605760	-0.415033	-0.728790	-0.624909	0.279918
59051	8.461954	-4.263600	2.738988	0.202973	-0.152484	0.417992	-0.093723	0.494030	0.864379	-0.679926	0.602443	-0.418046	-0.727266	-0.626894	0.279441
59052	8.477502	-4.324005	2.638778	0.148960	-0.153197	0.425308	-0.097708	0.495597	0.863039	-0.680609	0.599419	-0.421269	-0.726102	-0.628554	0.278740
59053	8.514893	-3.983766	2.928315	0.191690	-0.150019	0.418459	-0.101625	0.497127	0.861706	-0.681591	0.596151	-0.424309	-0.724642	-0.630451	0.278253
59054	8.438924	-4.287765	2.595328	0.220392	-0.156615	0.415031	-0.105568	0.498578	0.860393	-0.682764	0.592709	-0.427235	-0.722972	-0.632548	0.277840
59055	8.497090	-4.355479	2.812395	0.136271	-0.150925	0.419686	-0.109504	0.500076	0.859030	-0.683306	0.589765	-0.430430	-0.721874	-0.634114	0.277123
59056	8.226481	-4.262804	2.897020	0.183593	-0.157676	0.417389	-0.113473	0.501503	0.857682	-0.684173	0.586525	-0.433470	-0.720438	-0.635990	0.276560
59057	8.530263	-4.350047	2.816808	0.211967	-0.159005	0.415803	-0.117443	0.502895	0.856332	-0.685227	0.583102	-0.436413	-0.718799	-0.638035	0.276116
59058	8.356956	-4.594483	2.458044	0.160979	-0.156772	0.423565	-0.121451	0.504330	0.854928	-0.685886	0.579956	-0.439558	-0.717503	-0.639767	0.275476
59059	8.385374	-4.202318	2.682142	0.144217	-0.156588	0.416716	-0.125411	0.505711	0.853539	-0.686414	0.576944	-0.442687	-0.716315	-0.641399	0.274772
59060	8.399338	-4.369641	2.731075	0.244666	-0.164376	0.413386	-0.129406	0.507005	0.852173	-0.687647	0.573294	-0.445506	-0.714420	-0.643645	0.274453
59061	8.286664	-4.648540	2.669105	0.133588	-0.158593	0.416969	-0.133384	0.508341	0.850763	-0.688062	0.570332	-0.448656	-0.713288	-0.645221	0.273697
59062	8.315571	-4.432176	2.893183	0.187977	-0.166311	0.415708	-0.137409	0.509605	0.849366	-0.688848	0.567017	-0.451642	-0.711764	-0.647143	0.273126
59063	8.326893	-4.474951	2.711175	0.204912	-0.162064	0.417489	-0.141418	0.510888	0.847935	-0.689732	0.563575	-0.454591	-0.710120	-0.649135	0.272677
59064	8.299523	-4.720969	2.570546	0.180575	-0.162105	0.413162	-0.145397	0.512130	0.846512	-0.690430	0.560304	-0.457566	-0.708637	-0.650986	0.272124
59065	8.341755	-4.537702	2.467100	0.128343	-0.164319	0.414797	-0.149403	0.513351	0.845073	-0.690737	0.557356	-0.460691	-0.707503	-0.652552	0.271320
59066	8.211032	-4.448177	3.067974	0.224925	-0.167104	0.412038	-0.153410	0.514523	0.843642	-0.691712	0.553785	-0.463526	-0.705691	-0.654667	0.270946
59067	8.238995	-4.848062	2.488200	0.145737	-0.167832	0.413508	-0.157432	0.515680	0.842193	-0.692107	0.550715	-0.466583	-0.704416	-0.656343	0.270206
59068	8.222657	-4.647663	2.966165	0.172069	-0.164907	0.412598	-0.161428	0.516837	0.840726	-0.692671	0.547470	-0.469557	-0.702957	-0.658146	0.269621
59069	8.236360	-4.667750	2.587025	0.192858	-0.169336	0.412125	-0.165451	0.517944	0.839261	-0.693362	0.544083	-0.472465	-0.701339	-0.660081	0.269104
59070	8.313463	-4.746972	2.453864	0.193103	-0.171696	0.410888	-0.169482	0.519013	0.837796	-0.694037	0.540692	-0.475358	-0.699706	-0.662025	0.268576
59071	8.108791	-4.968179	2.583273	0.121222	-0.166140	0.417108	-0.173517	0.520136	0.836272	-0.694179	0.537738	-0.478490	-0.698575	-0.663549	0.267761
59072	8.206956	-4.482549	2.944782	0.211388	-0.172440	0.403163	-0.177498	0.521126	0.834819	-0.694958	0.534250	-0.481260	-0.696799	-0.665586	0.267332
59073	8.069863	-5.023995	2.400890	0.169598	-0.174102	0.416967	-0.181586	0.522161	0.833291	-0.695400	0.530961	-0.484251	-0.695302	-0.667404	0.266696
59074	8.207083	-4.811000	2.946841	0.152581	-0.167851	0.412229	-0.185597	0.523197	0.831756	-0.695714	0.527803	-0.487243	-0.693927	-0.669096	0.266037
59075	8.177571	-4.838031	2.596028	0.188578	-0.175960	0.411007	-0.189655	0.524155	0.830236	-0.696262	0.524403	-0.490124	-0.692279	-0.671016	0.265493
59076	8.159201	-4.840661	2.466974	0.203946	-0.175997	0.405846	-0.193677	0.525069	0.828729	-0.696905	0.520920	-0.492916	-0.690516	-0.673012	0.265033
59077	8.057225	-5.229727	2.446725	0.122410	-0.174033	0.411930	-0.197726	0.526012	0.827173	-0.696955	0.517946	-0.495969	-0.689317	-0.674569	0.264195
59078	8.006196	-4.641074	2.912463	0.185173	-0.180585	0.406276	-0.201780	0.526865	0.825650	-0.697430	0.514573	-0.498805	-0.687660	-0.676482	0.263621
59079	8.026503	-5.165623	2.445750	0.177835	-0.177557	0.409404	-0.205833	0.527738	0.824091	-0.697829	0.511226	-0.501680	-0.686052	-0.678337	0.263044
59080	8.180678	-5.063635	2.748478	0.135157	-0.178933	0.410539	-0.209903	0.528591	0.822516	-0.697914	0.508156	-0.504672	-0.684731	-0.679977	0.262248
59081	8.035404	-5.041847	2.655464	0.189474	-0.178082	0.412031	-0.213975	0.529441	0.820918	-0.698348	0.504702	-0.507528	-0.683026	-0.681885	0.261741
59082	8.062541	-4.910673	2.350203	0.198179	-0.180599	0.401307	-0.217988	0.530203	0.819370	-0.698846	0.501239	-0.510268	-0.681246	-0.683845	0.261266
59083	7.912439	-5.451729	2.520972	0.122685	-0.177682	0.410889	-0.222046	0.531016	0.817752	-0.698789	0.498236	-0.513279	-0.679992	-0.685408	0.260437
59084	7.896896	-4.871148	2.761778	0.168239	-0.187402	0.403035	-0.226113	0.531707	0.816186	-0.699041	0.494956	-0.516101	-0.678391	-0.687245	0.259769
59085	8.024383	-5.283407	2.619469	0.182201	-0.182461	0.405122	-0.230160	0.532427	0.814585	-0.699364	0.491563	-0.518898	-0.676695	-0.689121	0.259222
59086	7.974819	-5.220629	2.531493	0.142636	-0.181259	0.406549	-0.234206	0.533145	0.812960	-0.699397	0.488429	-0.521805	-0.675271	-0.690792	0.258487
59087	7.951442	-5.275187	2.476859	0.149581	-0.184996	0.410136	-0.238300	0.533838	0.811313	-0.699450	0.485223	-0.524717	-0.673782	-0.692514	0.257765
59088	8.046454	-4.975832	2.529041	0.215908	-0.184871	0.402044	-0.242335	0.534477	0.809697	-0.699950	0.481595	-0.527387	-0.671821	-0.694551	0.257400
59089	7.750117	-5.671705	2.538197	0.122736	-0.186742	0.403114	-0.246387	0.535090	0.808067	-0.699802	0.478602	-0.530300	-0.670500	-0.696146	0.256536
59090	7.856806	-5.015597	2.667316	0.152857	-0.186082	0.397298	-0.250391	0.535666	0.806453	-0.699852	0.475426	-0.533083	-0.668963	-0.697877	0.255844
59091	7.880476	-5.351108	2.761161	0.190790	-0.182739	0.404716	-0.254423	0.536283	0.804779	-0.700119	0.471940	-0.535823	-0.667160	-0.699767	0.255390
59092	7.917704	-5.496777	2.358598	0.124565	-0.186815	0.405716	-0.258485	0.536860	0.803098	-0.699922	0.468907	-0.538735	-0.665803	-0.701361	0.254555
59093	7.843478	-5.429607	2.471274	0.143433	-0.187297	0.405770	-0.262548	0.537418	0.801405	-0.699833	0.465737	-0.541593	-0.664306	-0.703044	0.253825
59094	7.911792	-5.183080	2.439557	0.207600	-0.190487	0.395402	-0.266557	0.537889	0.799764	-0.700178	0.462166	-0.544200	-0.662343	-0.705038	0.253425
59095	7.668439	-5.908698	2.391084	0.118130	-0.188945	0.403482	-0.270609	0.538392	0.798063	-0.699890	0.459177	-0.547092	-0.661003	-0.706605	0.252558
59096	7.708099	-5.128704	2.710459	0.158962	-0.190519	0.394146	-0.274603	0.538825	0.796405	-0.699879	0.455946	-0.549802	-0.659365	-0.708365	0.251908
59097	7.820957	-5.577859	2.739296	0.187882	-0.193020	0.402805	-0.278671	0.539264	0.794693	-0.700017	0.452459	-0.552501	-0.657510	-0.710265	0.251406
59098	7.812835	-5.616092	2.243732	0.121338	-0.188842	0.400527	-0.282692	0.539705	0.792971	-0.699704	0.449452	-0.555344	-0.656125	-0.711837	0.250577
59099	7.716414	-5.577734	2.366111	0.144477	-0.195281	0.397178	-0.286728	0.540070	0.791272	-0.699535	0.446294	-0.558097	-0.654552	-0.713544	0.249833
59100	7.820564	-5.315188	2.404005	0.208018	-0.193556	0.395135	-0.290735	0.540422	0.789568	-0.699768	0.442690	-0.560669	-0.652532	-0.715521	0.249464
59101	7.555103	-6.021107	2.395921	0.109417	-0.191574	0.397231	-0.294740	0.540781	0.787835	-0.699334	0.439775	-0.563498	-0.651199	-0.717045	0.248567
59102	7.649622	-5.337327	2.602478	0.150877	-0.197083	0.393451	-0.298751	0.541068	0.786125	-0.699162	0.436581	-0.566188	-0.649554	-0.718779	0.247866
59103	7.669078	-5.699487	2.753057	0.175750	-0.193346	0.396534	-0.302755	0.541380	0.784377	-0.699125	0.433186	-0.568836	-0.647737	-0.720595	0.247343
59104	7.772657	-5.827667	2.179519	0.130177	-0.196502	0.390816	-0.306735	0.541628	0.782658	-0.698792	0.430147	-0.571545	-0.646223	-0.722228	0.246544
59105	7.594779	-5.803978	2.432731	0.133188	-0.196352	0.398026	-0.310761	0.541893	0.780884	-0.698438	0.427044	-0.574297	-0.644680	-0.723868	0.245770
59106	7.681094	-5.466898	2.351351	0.196984	-0.201972	0.390624	-0.314767	0.542069	0.779155	-0.698500	0.423516	-0.576829	-0.642666	-0.725807	0.245327
59107	7.455936	-6.233612	2.351775	0.101785	-0.198375	0.393617	-0.318706	0.542307	0.777387	-0.697876	0.420734	-0.579614	-0.641402	-0.727245	0.244372
59108	7.504979	-5.453959	2.612873	0.153983	-0.198081	0.392140	-0.322688	0.542487	0.775616	-0.697621	0.417503	-0.582252	-0.639686	-0.728971	0.243727
59109	7.616077	-5.786620	2.650142	0.169202	-0.197957	0.391283	-0.326659	0.542649	0.773839	-0.697447	0.414162	-0.584840	-0.637857	-0.730755	0.243179
59110	7.611285	-6.012003	2.125300	0.129482	-0.199496	0.388358	-0.330615	0.542771	0.772071	-0.697012	0.411123	-0.587496	-0.636292	-0.732378	0.242394
59111	7.480836	-5.937405	2.498793	0.134132	-0.195898	0.395648	-0.334595	0.542935	0.770239	-0.696565	0.408008	-0.590192	-0.634700	-0.733997	0.241672
59112	7.591766	-5.675809	2.257517	0.184830	-0.205185	0.380207	-0.338521	0.542951	0.768510	-0.696473	0.404602	-0.592640	-0.632716	-0.735868	0.241184
59113	7.355638	-6.249534	2.466801	0.095969	-0.195983	0.391929	-0.342451	0.543077	0.766678	-0.695752	0.401801	-0.595387	-0.631393	-0.737308	0.240249
59114	7.449635	-5.761810	2.573311	0.155343	-0.207616	0.385462	-0.346419	0.543066	0.764900	-0.695420	0.398577	-0.597935	-0.629591	-0.739064	0.239585
59115	7.526468	-5.816120	2.455685	0.146962	-0.200277	0.390024	-0.350367	0.543113	0.763067	-0.695003	0.395388	-0.600533	-0.627865	-0.740741	0.238934
59116	7.439725	-6.290525	2.157225	0.126412	-0.204865	0.384152	-0.354298	0.543087	0.761268	-0.694459	0.392381	-0.603128	-0.626258	-0.742357	0.238131
59117	7.408027	-6.026280	2.451817	0.135824	-0.203233	0.390100	-0.358251	0.543084	0.759418	-0.693933	0.389275	-0.605741	-0.624591	-0.743992	0.237406
59118	7.443779	-5.966302	2.082702	0.172484	-0.212639	0.378082	-0.362177	0.542946	0.757652	-0.693664	0.385954	-0.608170	-0.622622	-0.745821	0.236838
59119	7.280897	-6.221743	2.366771	0.089244	-0.201764	0.391380	-0.366123	0.542925	0.755768	-0.692811	0.383179	-0.610890	-0.621262	-0.747266	0.235854
59120	7.322159	-5.938550	2.657498	0.170576	-0.207844	0.380677	-0.370026	0.542803	0.753953	-0.692486	0.379853	-0.613332	-0.619309	-0.749051	0.235328
59121	7.444870	-5.932910	2.359055	0.145794	-0.206936	0.381920	-0.373928	0.542677	0.752117	-0.691984	0.376703	-0.615835	-0.617524	-0.750731	0.234664
59122	7.267989	-6.498442	2.257738	0.099761	-0.202399	0.385712	-0.377821	0.542584	0.750236	-0.691168	0.373877	-0.618468	-0.616067	-0.752209	0.233758
59123	7.350056	-6.060790	2.222754	0.145471	-0.210276	0.379467	-0.381747	0.542370	0.748401	-0.690662	0.370699	-0.620942	-0.614212	-0.753935	0.233081
59124	7.291505	-6.366557	2.237074	0.157775	-0.212656	0.383600	-0.385677	0.542161	0.746535	-0.690176	0.367444	-0.623412	-0.612300	-0.755676	0.232472
59125	7.206890	-6.162937	2.324683	0.085354	-0.203211	0.381749	-0.389530	0.542003	0.744647	-0.689236	0.364746	-0.626030	-0.610917	-0.757096	0.231489
59126	7.073401	-6.286933	2.399647	0.175315	-0.211156	0.379152	-0.393408	0.541760	0.742783	-0.688840	0.361379	-0.628415	-0.608876	-0.758882	0.231016
59127	7.407742	-6.124665	2.474252	0.118422	-0.203300	0.381781	-0.397321	0.541516	0.740876	-0.688115	0.358341	-0.630943	-0.607152	-0.760495	0.230249
59128	7.103588	-6.476161	2.131860	0.081744	-0.204466	0.375207	-0.401118	0.541280	0.738999	-0.687132	0.355704	-0.633501	-0.605767	-0.761899	0.229252
59129	7.292211	-6.287684	2.220655	0.163954	-0.214268	0.374258	-0.404876	0.541023	0.737137	-0.686577	0.352551	-0.635861	-0.603894	-0.763546	0.228714
59130	7.103660	-6.594426	1.962537	0.110177	-0.213130	0.376071	-0.408719	0.540695	0.735253	-0.685731	0.349691	-0.638349	-0.602264	-0.765091	0.227846
59131	7.204489	-6.075587	2.518227	0.154043	-0.210326	0.373793	-0.412524	0.540367	0.733367	-0.685141	0.346507	-0.640714	-0.600338	-0.766770	0.227286
59132	6.948255	-6.746467	2.290825	0.130719	-0.208970	0.374755	-0.416320	0.540038	0.731462	-0.684391	0.343496	-0.643132	-0.598570	-0.768355	0.226593
59133	7.232720	-5.997506	2.500740	0.123224	-0.208341	0.372626	-0.420061	0.539718	0.729557	-0.683569	0.340590	-0.645548	-0.596894	-0.769872	0.225866
59134	7.131086	-6.608391	2.208967	0.110912	-0.209206	0.371289	-0.423822	0.539347	0.727653	-0.682683	0.337749	-0.647973	-0.595247	-0.771382	0.225058
59135	7.074306	-6.509126	2.022141	0.141730	-0.214389	0.366347	-0.427574	0.538906	0.725783	-0.681986	0.334695	-0.650288	-0.593360	-0.773020	0.224419
59136	7.028678	-6.689086	2.211601	0.104206	-0.213708	0.370377	-0.431342	0.538469	0.723875	-0.681032	0.331910	-0.652710	-0.591725	-0.774524	0.223548
59137	7.036873	-6.279855	2.215875	0.164754	-0.215877	0.370453	-0.435188	0.537940	0.721964	-0.680463	0.328569	-0.654990	-0.589560	-0.776314	0.223059
59138	6.812053	-6.850503	2.159866	0.078341	-0.211341	0.369054	-0.438919	0.537488	0.720039	-0.679332	0.325992	-0.657448	-0.588097	-0.777712	0.222049
59139	7.126585	-6.181418	2.534248	0.144741	-0.214455	0.366640	-0.442679	0.536962	0.718128	-0.678605	0.322871	-0.659734	-0.586115	-0.779376	0.221457
59140	6.974626	-6.578350	2.079901	0.116538	-0.207316	0.368414	-0.446368	0.536511	0.716178	-0.677670	0.320001	-0.662090	-0.584396	-0.780868	0.220739
59141	6.865424	-6.948550	2.195773	0.107409	-0.216145	0.362919	-0.450126	0.535907	0.714276	-0.676726	0.317157	-0.664419	-0.582605	-0.782442	0.219901
59142	6.992942	-6.507014	1.944817	0.125902	-0.216136	0.365060	-0.453830	0.535349	0.712348	-0.675829	0.314232	-0.666718	-0.580770	-0.784002	0.219197
59143	6.807221	-6.875712	2.200171	0.141289	-0.218746	0.364131	-0.457536	0.534754	0.710422	-0.675010	0.311190	-0.668971	-0.578812	-0.785620	0.218584
59144	6.932182	-6.488075	2.170259	0.088686	-0.212274	0.361678	-0.461180	0.534189	0.708488	-0.673882	0.308576	-0.671315	-0.577231	-0.787034	0.217671
59145	6.790389	-6.690200	2.242059	0.170504	-0.214851	0.358449	-0.464811	0.533580	0.706572	-0.673226	0.305334	-0.673452	-0.575081	-0.788710	0.217297
59146	7.025685	-6.682630	2.194070	0.065385	-0.213408	0.358855	-0.468428	0.532969	0.704641	-0.671948	0.302921	-0.675814	-0.573639	-0.790052	0.216231
59147	6.755690	-6.857970	2.096318	0.092871	-0.211827	0.361526	-0.472037	0.532378	0.702677	-0.670795	0.300288	-0.678130	-0.572027	-0.791455	0.215370
59148	6.870402	-6.797548	1.983360	0.151756	-0.218126	0.357296	-0.475655	0.531700	0.700747	-0.669990	0.297201	-0.680283	-0.569969	-0.793074	0.214869
59149	6.675735	-6.987136	1.935074	0.081407	-0.218437	0.358399	-0.479276	0.531011	0.698800	-0.668764	0.294665	-0.682589	-0.568374	-0.794481	0.213895
59150	6.845041	-6.497262	2.352525	0.151819	-0.214942	0.359758	-0.482878	0.530339	0.696828	-0.667916	0.291565	-0.684747	-0.566319	-0.796072	0.213432
59151	6.702801	-7.093365	2.149863	0.092425	-0.217025	0.354800	-0.486435	0.529640	0.694883	-0.666732	0.288983	-0.686992	-0.564668	-0.797477	0.212557
59152	6.855655	-6.451002	2.384731	0.098013	-0.214101	0.354873	-0.489984	0.528936	0.692923	-0.665574	0.286338	-0.689218	-0.562962	-0.798898	0.211745
59153	6.703611	-6.954036	1.936991	0.118545	-0.212048	0.353450	-0.493591	0.528147	0.690962	-0.664569	0.283435	-0.691384	-0.560996	-0.800453	0.211089
59154	6.587547	-7.242251	2.040185	0.094140	-0.220455	0.353367	-0.497150	0.527361	0.689008	-0.663368	0.280832	-0.693596	-0.559271	-0.801887	0.210219
59155	6.729659	-6.764636	1.969368	0.112431	-0.217679	0.354470	-0.500694	0.526589	0.687030	-0.662249	0.278077	-0.695772	-0.557433	-0.803354	0.209502
59156	6.630613	-7.149851	1.988855	0.142465	-0.226916	0.351708	-0.504262	0.525721	0.685082	-0.661297	0.275096	-0.697859	-0.555343	-0.804947	0.208938
59157	6.588638	-6.704372	2.340279	0.079204	-0.210855	0.352656	-0.507795	0.524916	0.683087	-0.660003	0.272555	-0.700079	-0.553661	-0.806336	0.208044
59158	6.650948	-6.941422	2.111031	0.150327	-0.221493	0.344637	-0.511271	0.524046	0.681159	-0.659100	0.269550	-0.702090	-0.551534	-0.807910	0.207586
59159	6.656848	-7.087326	2.071020	0.043870	-0.212435	0.350935	-0.514710	0.523277	0.679158	-0.657554	0.267396	-0.704360	-0.550179	-0.809124	0.206451
59160	6.600842	-6.944127	2.172257	0.110367	-0.219355	0.343829	-0.518152	0.522399	0.677213	-0.656407	0.264720	-0.706437	-0.548314	-0.810569	0.205742
59161	6.522436	-7.276990	1.651365	0.122797	-0.222047	0.343909	-0.521602	0.521488	0.675264	-0.655314	0.261943	-0.708483	-0.546347	-0.812056	0.205109
59162	6.413922	-7.203543	2.213032	0.078699	-0.216158	0.353050	-0.525070	0.520637	0.673230	-0.653919	0.259479	-0.710676	-0.544693	-0.813393	0.204210
59163	6.611170	-6.797488	1.892907	0.156541	-0.223129	0.336626	-0.528479	0.519656	0.671318	-0.653028	0.256449	-0.712593	-0.542462	-0.814980	0.203822
59164	6.398637	-7.251946	2.124212	0.044517	-0.214350	0.350099	-0.531902	0.518786	0.669284	-0.651437	0.254283	-0.714822	-0.541027	-0.816211	0.202703
59165	6.552448	-6.808187	2.357579	0.144658	-0.219959	0.343180	-0.535302	0.517842	0.667301	-0.650410	0.251337	-0.716796	-0.538905	-0.817722	0.202268
59166	6.486032	-7.381918	1.750869	0.068400	-0.215439	0.340701	-0.538654	0.516917	0.665319	-0.648972	0.249030	-0.718902	-0.537296	-0.819013	0.201324
59167	6.304470	-7.326765	1.875797	0.056709	-0.216734	0.341600	-0.542010	0.515973	0.663323	-0.647454	0.246815	-0.721031	-0.535750	-0.820277	0.200292
59168	6.528299	-7.146809	2.068581	0.166688	-0.222851	0.336514	-0.545357	0.514953	0.661369	-0.646540	0.243727	-0.722900	-0.533453	-0.821840	0.200020
59169	6.269566	-7.520014	1.731161	0.052656	-0.222832	0.340346	-0.548721	0.513932	0.659377	-0.644982	0.241557	-0.725016	-0.531886	-0.823118	0.198929
59170	6.549700	-6.718770	2.282648	0.135915	-0.220244	0.336928	-0.552041	0.512912	0.657398	-0.643873	0.238722	-0.726938	-0.529791	-0.824580	0.198466
59171	6.265792	-7.563102	1.855309	0.072456	-0.217134	0.336100	-0.555252	0.511995	0.655406	-0.642383	0.236509	-0.728977	-0.528242	-0.825787	0.197575
59172	6.417092	-6.980213	2.243818	0.073160	-0.213908	0.336641	-0.558519	0.511005	0.653399	-0.640919	0.234197	-0.731010	-0.526574	-0.827058	0.196709
59173	6.295983	-7.347134	1.828153	0.126485	-0.217714	0.330323	-0.561758	0.509958	0.651438	-0.639757	0.231478	-0.732891	-0.524537	-0.828469	0.196215
59174	6.156576	-7.732164	1.743662	0.044364	-0.220198	0.335526	-0.565034	0.508891	0.649436	-0.638124	0.229416	-0.734960	-0.523005	-0.829698	0.195108
59175	6.414586	-6.965423	2.032654	0.130123	-0.224236	0.330312	-0.568294	0.507764	0.647471	-0.636957	0.226665	-0.736823	-0.520891	-0.831143	0.194612
59176	6.153031	-7.713094	1.774221	0.102252	-0.226145	0.330966	-0.571554	0.506615	0.645498	-0.635628	0.224151	-0.738738	-0.518944	-0.832525	0.193904
59177	6.314793	-6.892559	2.185722	0.081939	-0.212877	0.330555	-0.574736	0.505564	0.643493	-0.634182	0.221809	-0.740685	-0.517196	-0.833790	0.193138
59178	6.171599	-7.647322	1.833377	0.092390	-0.219337	0.330629	-0.577941	0.504450	0.641494	-0.632779	0.219383	-0.742605	-0.515339	-0.835106	0.192414
59179	6.246709	-7.228019	2.042305	0.044876	-0.211211	0.329813	-0.581098	0.503385	0.639476	-0.631125	0.217353	-0.744606	-0.513816	-0.836278	0.191395
59180	6.136879	-7.352997	1.809988	0.135761	-0.219921	0.324368	-0.584250	0.502231	0.637508	-0.629957	0.214600	-0.746392	-0.511671	-0.837682	0.191003
59181	5.976865	-7.985784	1.733937	0.030846	-0.218729	0.327068	-0.587405	0.501083	0.635509	-0.628223	0.212714	-0.748391	-0.510188	-0.838849	0.189842
59182	6.320222	-7.060344	1.990206	0.118601	-0.222189	0.321472	-0.590533	0.499884	0.633551	-0.626959	0.210124	-0.750180	-0.508127	-0.840217	0.189321
59183	5.984413	-7.871767	1.728406	0.099201	-0.223652	0.324990	-0.593682	0.498669	0.631562	-0.625563	0.207681	-0.752024	-0.506174	-0.841545	0.188652
59184	6.172827	-7.053109	2.232521	0.071569	-0.215546	0.328365	-0.596802	0.497518	0.629526	-0.623996	0.205457	-0.753934	-0.504436	-0.842771	0.187832
59185	6.066704	-7.741076	1.738291	0.101998	-0.217745	0.318353	-0.599863	0.496319	0.627560	-0.622630	0.203028	-0.755719	-0.502490	-0.844066	0.187234
59186	6.096007	-7.466848	1.997095	0.032918	-0.213230	0.321585	-0.602912	0.495155	0.625555	-0.620887	0.201170	-0.757648	-0.500996	-0.845194	0.186148
59187	6.031682	-7.441147	1.671613	0.140579	-0.220686	0.316571	-0.605959	0.493908	0.623593	-0.619702	0.198428	-0.759339	-0.498782	-0.846570	0.185836
59188	5.868579	-8.057663	1.571134	0.008138	-0.219612	0.319039	-0.609006	0.492665	0.621605	-0.617830	0.196799	-0.761285	-0.497390	-0.847674	0.184531
59189	6.167198	-7.193719	2.084460	0.137431	-0.222357	0.313294	-0.612037	0.491361	0.619657	-0.616630	0.194089	-0.762952	-0.495154	-0.849055	0.184198
59190	5.804562	-7.998253	1.631083	0.067947	-0.221766	0.320090	-0.615084	0.490081	0.617650	-0.615029	0.191955	-0.764783	-0.493367	-0.850279	0.183345
59191	6.080640	-7.117923	2.077528	0.082683	-0.217424	0.316360	-0.618079	0.488823	0.615655	-0.613511	0.189716	-0.766559	-0.491511	-0.851505	0.182639
59192	5.881495	-7.838340	1.845786	0.089169	-0.217140	0.314635	-0.621052	0.487553	0.613667	-0.612026	0.187434	-0.768305	-0.489611	-0.852737	0.181989
59193	5.910553	-7.601123	1.884421	0.063039	-0.214060	0.311870	-0.624052	0.486206	0.611689	-0.610443	0.185312	-0.770077	-0.487769	-0.853969	0.181156
59194	5.973226	-7.756761	1.613898	0.084572	-0.218253	0.312172	-0.626997	0.484903	0.609708	-0.608929	0.183088	-0.771806	-0.485881	-0.855189	0.180476
59195	5.755089	-7.913786	1.690374	0.028126	-0.212942	0.312848	-0.629913	0.483639	0.607703	-0.607125	0.181344	-0.773636	-0.484364	-0.856276	0.179398
59196	5.966283	-7.481194	1.798016	0.141451	-0.226828	0.305026	-0.632839	0.482231	0.605779	-0.605910	0.178673	-0.775209	-0.482066	-0.857630	0.179118
59197	5.688713	-8.089078	1.829092	0.049855	-0.220082	0.310433	-0.635757	0.480882	0.603792	-0.604207	0.176762	-0.776974	-0.480361	-0.858782	0.178175
59198	5.918402	-7.301385	1.866681	0.093598	-0.216913	0.307060	-0.638630	0.479545	0.601821	-0.602727	0.174497	-0.778634	-0.478406	-0.859993	0.177596
59199	5.704841	-7.915783	1.723382	0.050634	-0.214701	0.306895	-0.641483	0.478218	0.599839	-0.601031	0.172604	-0.780365	-0.476719	-0.861113	0.176702
59200	5.818169	-7.707294	1.797168	0.074850	-0.213822	0.307686	-0.644328	0.476891	0.597843	-0.599436	0.170503	-0.782052	-0.474888	-0.862266	0.176006
59201	5.791170	-7.933849	1.566588	0.069370	-0.218073	0.304795	-0.647167	0.475515	0.595870	-0.597823	0.168465	-0.783726	-0.473057	-0.863426	0.175249
59202	5.724956	-7.681875	1.844064	0.051740	-0.217378	0.301899	-0.649976	0.474130	0.593912	-0.596137	0.166597	-0.785408	-0.471330	-0.864549	0.174362
59203	5.711703	-8.061634	1.638439	0.108450	-0.220928	0.300036	-0.652782	0.472704	0.591968	-0.594720	0.164251	-0.786975	-0.469238	-0.865779	0.173906
59204	5.640713	-7.788110	1.804057	0.025366	-0.214217	0.305276	-0.655579	0.471335	0.589966	-0.592869	0.162603	-0.788712	-0.467678	-0.866835	0.172841
59205	5.713350	-7.654821	1.850647	0.137597	-0.220794	0.296210	-0.658422	0.469773	0.588042	-0.591617	0.159937	-0.790195	-0.465262	-0.868178	0.172620
59206	5.667086	-7.887588	1.712085	0.031911	-0.210880	0.302768	-0.661171	0.468411	0.586042	-0.589796	0.158253	-0.791894	-0.463674	-0.869222	0.171635
59207	5.631239	-7.851716	1.698756	0.072964	-0.215327	0.298844	-0.663909	0.466997	0.584072	-0.588181	0.156232	-0.793495	-0.461810	-0.870348	0.170955
59208	5.627709	-8.026431	1.657090	0.065197	-0.211720	0.296903	-0.666609	0.465602	0.582106	-0.586534	0.154292	-0.795092	-0.460011	-0.871441	0.170239
