// General information: 
//  MT Manager version: 2019.2.0 
//  XDA version: 2019.2.0 build 3853 rev 94535 built on 2019-09-09
// Device information: 
//  DeviceId: 00B44058
//  ProductCode: MTW2-3A7G6
//  Firmware Version: 4.3.5
//  Hardware Version: 1.1.0
// Device settings: 
//  Filter Profile: human(46.1)
//  Option Flags: Orientation Smoother Disabled, AHS Disabled, ICC Disabled
// Coordinate system: ENU
PacketCounter	Acc_X	Acc_Y	Acc_Z	Gyr_X	Gyr_Y	Gyr_Z	Mat[1][1]	Mat[2][1]	Mat[3][1]	Mat[1][2]	Mat[2][2]	Mat[3][2]	Mat[1][3]	Mat[2][3]	Mat[3][3]
58398	9.415536	0.318265	2.599741	-0.003024	0.003845	0.006606	-0.261989	-0.067181	0.962730	0.357776	-0.933251	0.032238	0.896302	0.352887	0.268538
58399	9.393095	0.327211	2.600367	-0.002405	0.001190	0.008013	-0.261971	-0.067193	0.962734	0.357776	-0.933252	0.032219	0.896308	0.352883	0.268525
58400	9.406102	0.294842	2.605811	-0.003469	0.002809	0.008031	-0.261968	-0.067211	0.962733	0.357767	-0.933256	0.032198	0.896312	0.352869	0.268529
58401	9.427398	0.342903	2.618440	-0.000671	-0.000215	0.003997	-0.261954	-0.067182	0.962739	0.357772	-0.933253	0.032222	0.896314	0.352882	0.268505
58402	9.396633	0.271975	2.611915	-0.003198	0.007539	0.003771	-0.262009	-0.067177	0.962725	0.357755	-0.933259	0.032243	0.896305	0.352867	0.268555
58403	9.395442	0.329860	2.625243	0.000828	0.001881	0.006270	-0.262001	-0.067176	0.962727	0.357778	-0.933250	0.032249	0.896298	0.352892	0.268547
58404	9.386038	0.307410	2.631063	-0.001962	0.002227	0.006587	-0.261999	-0.067178	0.962727	0.357779	-0.933249	0.032246	0.896298	0.352892	0.268545
58405	9.420360	0.323799	2.648982	-0.002407	0.001191	0.008012	-0.261983	-0.067191	0.962731	0.357780	-0.933250	0.032227	0.896303	0.352889	0.268535
58406	9.405797	0.291270	2.607313	-0.001517	0.003263	0.005160	-0.261994	-0.067184	0.962728	0.357781	-0.933249	0.032239	0.896299	0.352892	0.268543
58407	9.395282	0.327267	2.626142	-0.000236	0.003502	0.006288	-0.262005	-0.067188	0.962725	0.357797	-0.933242	0.032244	0.896289	0.352908	0.268554
58408	9.417590	0.317062	2.626135	-0.001072	0.004300	0.003734	-0.262032	-0.067171	0.962719	0.357799	-0.933241	0.032271	0.896281	0.352916	0.268573
58409	9.405551	0.289732	2.608371	-0.000236	0.003502	0.006288	-0.262037	-0.067175	0.962717	0.357813	-0.933236	0.032273	0.896274	0.352929	0.268578
58410	9.401894	0.342328	2.597680	-0.002853	0.000156	0.009437	-0.262006	-0.067197	0.962724	0.357813	-0.933237	0.032240	0.896283	0.352922	0.268557
58411	9.392560	0.319910	2.603208	-0.002172	-0.002310	0.001724	-0.261979	-0.067140	0.962735	0.357799	-0.933241	0.032281	0.896296	0.352922	0.268512
58412	9.392515	0.319473	2.603424	-0.002362	0.006743	0.006323	-0.262018	-0.067156	0.962724	0.357795	-0.933242	0.032280	0.896286	0.352916	0.268554
58413	9.385629	0.302009	2.633149	-0.000900	0.000608	0.006567	-0.261998	-0.067154	0.962729	0.357804	-0.933239	0.032277	0.896289	0.352925	0.268535
58414	9.421664	0.325241	2.574027	-0.002626	-0.000665	0.006865	-0.261968	-0.067149	0.962738	0.357800	-0.933241	0.032269	0.896299	0.352921	0.268505
58415	9.383056	0.295653	2.609545	-0.004307	0.003612	0.005475	-0.261983	-0.067145	0.962734	0.357777	-0.933249	0.032272	0.896304	0.352899	0.268518
58416	9.394960	0.321875	2.627958	-0.003244	0.001991	0.005457	-0.261982	-0.067136	0.962735	0.357764	-0.933254	0.032276	0.896309	0.352887	0.268515
58417	9.380330	0.289409	2.586481	-0.002362	0.006744	0.006322	-0.262021	-0.067149	0.962723	0.357762	-0.933255	0.032278	0.896299	0.352883	0.268556
58418	9.426619	0.332490	2.622583	0.001832	-0.002608	0.011655	-0.261957	-0.067181	0.962738	0.357810	-0.933238	0.032236	0.896298	0.352922	0.268507
58419	9.402686	0.278064	2.586401	-0.003861	0.004649	0.004049	-0.261987	-0.067168	0.962731	0.357788	-0.933245	0.032254	0.896298	0.352904	0.268530
58420	9.384323	0.355603	2.647596	-0.003026	0.003851	0.006602	-0.261999	-0.067176	0.962727	0.357780	-0.933249	0.032247	0.896298	0.352893	0.268545
58421	9.414483	0.303690	2.605294	-0.001518	0.003266	0.005159	-0.262012	-0.067170	0.962724	0.357782	-0.933248	0.032259	0.896294	0.352897	0.268554
58422	9.406604	0.344672	2.647753	-0.000902	0.000609	0.006566	-0.261995	-0.067166	0.962729	0.357792	-0.933244	0.032259	0.896294	0.352908	0.268537
58423	9.360241	0.300053	2.612061	-0.001746	0.004089	0.007729	-0.262004	-0.067186	0.962725	0.357798	-0.933242	0.032245	0.896289	0.352909	0.268552
58424	9.394512	0.316332	2.630233	-0.000465	0.004327	0.008856	-0.262012	-0.067217	0.962721	0.357818	-0.933235	0.032224	0.896279	0.352922	0.268571
58425	9.423657	0.322812	2.600824	-0.000010	0.002681	0.003715	-0.262023	-0.067195	0.962719	0.357829	-0.933230	0.032254	0.896271	0.352940	0.268572
58426	9.391898	0.310180	2.606769	-0.003294	-0.003557	0.007143	-0.261967	-0.067182	0.962736	0.357820	-0.933234	0.032241	0.896292	0.352932	0.268515
58427	9.416854	0.304818	2.630219	-0.003861	0.004651	0.004048	-0.261998	-0.067167	0.962728	0.357799	-0.933241	0.032261	0.896291	0.352916	0.268539
58428	9.401233	0.330732	2.601572	0.000596	0.002706	0.008838	-0.261991	-0.067193	0.962728	0.357829	-0.933230	0.032243	0.896281	0.352939	0.268542
58429	9.394333	0.313157	2.631252	-0.003027	0.003853	0.006600	-0.262003	-0.067204	0.962724	0.357820	-0.933234	0.032234	0.896281	0.352927	0.268557
58430	9.389135	0.302437	2.584038	-0.000685	0.002469	0.007710	-0.261999	-0.067218	0.962724	0.357835	-0.933229	0.032224	0.896276	0.352939	0.268558
58431	9.391648	0.306803	2.608069	-0.001519	0.003268	0.005157	-0.262010	-0.067211	0.962722	0.357835	-0.933228	0.032235	0.896273	0.352942	0.268565
58432	9.394141	0.311190	2.632169	-0.003028	0.003854	0.006599	-0.262022	-0.067219	0.962718	0.357827	-0.933232	0.032229	0.896273	0.352931	0.268580
58433	9.394107	0.310572	2.632364	0.001886	0.000262	0.006250	-0.262003	-0.067210	0.962724	0.357861	-0.933218	0.032241	0.896264	0.352969	0.268557
58434	9.403511	0.331784	2.626875	-0.001966	0.002233	0.006582	-0.262000	-0.067213	0.962724	0.357862	-0.933218	0.032237	0.896265	0.352969	0.268556
58435	9.391450	0.304323	2.609074	-0.001300	0.005127	0.006302	-0.262024	-0.067222	0.962717	0.357869	-0.933215	0.032240	0.896255	0.352974	0.268581
58436	9.420642	0.310715	2.579559	-0.002632	-0.000661	0.006861	-0.261995	-0.067217	0.962726	0.357864	-0.933217	0.032232	0.896266	0.352970	0.268552
58437	9.393993	0.307849	2.633091	-0.001133	0.001436	0.009133	-0.261975	-0.067240	0.962729	0.357880	-0.933212	0.032206	0.896265	0.352978	0.268542
58438	9.395676	0.313970	2.556433	-0.001519	0.003269	0.005156	-0.261987	-0.067233	0.962727	0.357881	-0.933211	0.032218	0.896261	0.352982	0.268551
58439	9.405890	0.333354	2.651735	-0.001966	0.002234	0.006581	-0.261984	-0.067235	0.962727	0.357881	-0.933211	0.032215	0.896262	0.352982	0.268548
58440	9.423117	0.312982	2.603981	-0.002185	0.000375	0.005436	-0.261969	-0.067221	0.962732	0.357877	-0.933212	0.032222	0.896268	0.352981	0.268529
58441	9.391248	0.300445	2.610251	-0.002134	0.005927	0.003749	-0.262010	-0.067210	0.962722	0.357870	-0.933214	0.032247	0.896259	0.352978	0.268563
58442	9.409972	0.343501	2.599593	-0.004091	0.005479	0.006615	-0.262036	-0.067224	0.962714	0.357852	-0.933222	0.032237	0.896258	0.352957	0.268594
58443	9.403060	0.325836	2.629231	-0.002862	0.000165	0.009429	-0.262005	-0.067245	0.962721	0.357853	-0.933222	0.032205	0.896267	0.352951	0.268573
58444	9.422846	0.310333	2.605277	-0.001520	0.003270	0.005155	-0.262017	-0.067238	0.962718	0.357854	-0.933222	0.032217	0.896263	0.352954	0.268581
58445	9.393513	0.302707	2.635399	-0.001301	0.005129	0.006300	-0.262043	-0.067249	0.962710	0.357861	-0.933219	0.032218	0.896253	0.352959	0.268609
58446	9.377937	0.328650	2.606752	-0.001968	0.002235	0.006579	-0.262040	-0.067251	0.962711	0.357862	-0.933219	0.032215	0.896253	0.352959	0.268607
58447	9.425182	0.313411	2.630085	-0.003029	0.003858	0.006596	-0.262049	-0.067264	0.962707	0.357851	-0.933223	0.032203	0.896255	0.352944	0.268621
58448	9.422542	0.307736	2.606685	0.001040	0.003744	0.007410	-0.262057	-0.067280	0.962704	0.357881	-0.933212	0.032200	0.896241	0.352971	0.268633
58449	9.400098	0.316898	2.607387	-0.005590	0.003385	0.004341	-0.262072	-0.067264	0.962701	0.357843	-0.933226	0.032210	0.896251	0.352937	0.268642
58450	9.400084	0.316316	2.607508	0.000155	-0.001009	0.006545	-0.262041	-0.067255	0.962711	0.357863	-0.933218	0.032213	0.896253	0.352959	0.268609
58451	9.393134	0.298971	2.637176	-0.003195	0.007551	0.003765	-0.262096	-0.067250	0.962696	0.357846	-0.933224	0.032233	0.896243	0.352945	0.268659
58452	9.380135	0.329945	2.632283	-0.001355	-0.000421	0.007985	-0.262065	-0.067256	0.962704	0.357856	-0.933221	0.032218	0.896249	0.352952	0.268632
58453	9.387917	0.287733	2.590132	-0.001521	0.003272	0.005154	-0.262073	-0.067248	0.962702	0.357856	-0.933221	0.032229	0.896246	0.352955	0.268637
58454	9.392968	0.297180	2.637968	-0.001521	0.003272	0.005154	-0.262085	-0.067241	0.962699	0.357857	-0.933220	0.032240	0.896242	0.352958	0.268645
58455	9.399824	0.313455	2.608791	-0.002188	0.000378	0.005433	-0.262071	-0.067226	0.962704	0.357854	-0.933221	0.032249	0.896248	0.352959	0.268627
58456	9.399771	0.312858	2.609055	-0.001302	0.005131	0.006298	-0.262095	-0.067237	0.962697	0.357860	-0.933218	0.032250	0.896238	0.352963	0.268653
58457	9.399678	0.312247	2.609463	-0.000241	0.003509	0.006281	-0.262105	-0.067240	0.962694	0.357875	-0.933212	0.032254	0.896229	0.352978	0.268663
58458	9.397068	0.306681	2.585953	0.000820	0.001886	0.006264	-0.262100	-0.067239	0.962695	0.357900	-0.933202	0.032262	0.896220	0.353005	0.268657
58459	9.412425	0.279498	2.615417	-0.000635	0.008026	0.006018	-0.262150	-0.067256	0.962680	0.357911	-0.933198	0.032267	0.896201	0.353013	0.268710
58460	9.377079	0.320268	2.610878	-0.003917	-0.000892	0.005729	-0.262123	-0.067240	0.962689	0.357892	-0.933205	0.032267	0.896217	0.352997	0.268679
58461	9.411475	0.336535	2.628723	-0.002419	0.001204	0.008001	-0.262106	-0.067250	0.962693	0.357893	-0.933205	0.032251	0.896222	0.352994	0.268667
58462	9.389977	0.287206	2.616305	-0.001970	0.002239	0.006577	-0.262104	-0.067252	0.962694	0.357894	-0.933205	0.032248	0.896222	0.352994	0.268666
58463	9.433779	0.325363	2.628747	-0.003250	0.002002	0.005449	-0.262103	-0.067241	0.962695	0.357881	-0.933210	0.032255	0.896227	0.352984	0.268661
58464	9.389899	0.285904	2.616728	-0.000691	0.002475	0.007704	-0.262098	-0.067255	0.962695	0.357896	-0.933205	0.032244	0.896223	0.352995	0.268662
58465	9.433684	0.324040	2.629251	-0.005591	0.003390	0.004338	-0.262114	-0.067243	0.962691	0.357857	-0.933219	0.032250	0.896234	0.352959	0.268673
58466	9.396688	0.301395	2.587957	0.000589	0.002712	0.008831	-0.262107	-0.067268	0.962691	0.357887	-0.933208	0.032232	0.896224	0.352983	0.268675
58467	9.376845	0.315431	2.612308	-0.001971	0.002240	0.006576	-0.262102	-0.067267	0.962693	0.357888	-0.933208	0.032232	0.896225	0.352984	0.268670
58468	9.411190	0.331737	2.630352	-0.001971	0.002240	0.006576	-0.262100	-0.067269	0.962693	0.357889	-0.933208	0.032229	0.896225	0.352984	0.268669
58469	9.401703	0.309283	2.636075	-0.000910	0.000616	0.006559	-0.262079	-0.067265	0.962699	0.357897	-0.933205	0.032227	0.896228	0.352994	0.268648
58470	9.374219	0.308516	2.589027	-0.003251	0.002004	0.005448	-0.262079	-0.067257	0.962700	0.357884	-0.933210	0.032232	0.896233	0.352982	0.268644
58471	9.399093	0.303018	2.612657	-0.000692	0.002477	0.007703	-0.262071	-0.067268	0.962701	0.357898	-0.933205	0.032222	0.896230	0.352993	0.268640
58472	9.420559	0.350881	2.625484	-0.001972	0.002241	0.006575	-0.262068	-0.067270	0.962702	0.357899	-0.933204	0.032219	0.896230	0.352994	0.268639
58473	9.399042	0.301781	2.612982	-0.000680	-0.000209	0.003991	-0.262052	-0.067240	0.962708	0.357904	-0.933201	0.032243	0.896233	0.353007	0.268613
58474	9.408467	0.323017	2.607657	-0.004093	0.005489	0.006608	-0.262078	-0.067255	0.962700	0.357886	-0.933209	0.032234	0.896232	0.352985	0.268643
58475	9.396357	0.295600	2.589823	0.000818	0.001887	0.006262	-0.262070	-0.067251	0.962703	0.357910	-0.933199	0.032241	0.896225	0.353010	0.268633
58476	9.401433	0.304964	2.637541	-0.003252	0.002005	0.005447	-0.262069	-0.067242	0.962704	0.357896	-0.933204	0.032245	0.896231	0.352999	0.268630
58477	9.405768	0.316144	2.584648	-0.000693	0.002478	0.007702	-0.262063	-0.067256	0.962704	0.357911	-0.933199	0.032234	0.896227	0.353010	0.268629
58478	9.385933	0.330262	2.608979	-0.003252	0.002006	0.005446	-0.262062	-0.067247	0.962705	0.357897	-0.933204	0.032238	0.896233	0.352998	0.268625
58479	9.423669	0.293209	2.637824	-0.003252	0.002006	0.005446	-0.262060	-0.067236	0.962707	0.357884	-0.933209	0.032244	0.896239	0.352987	0.268620
58480	9.376384	0.307008	2.614963	-0.001374	0.002270	0.011691	-0.262040	-0.067286	0.962709	0.357903	-0.933204	0.032194	0.896237	0.352993	0.268618
58481	9.421042	0.286627	2.614502	-0.000012	0.002686	0.003711	-0.262051	-0.067263	0.962707	0.357914	-0.933198	0.032223	0.896229	0.353011	0.268620
58482	9.410721	0.322626	2.633161	-0.005432	-0.000297	0.007164	-0.262023	-0.067262	0.962715	0.357886	-0.933210	0.032205	0.896249	0.352980	0.268595
58483	9.385782	0.326810	2.609959	0.001487	0.004782	0.005983	-0.262044	-0.067266	0.962709	0.357916	-0.933198	0.032219	0.896231	0.353011	0.268614
58484	9.410611	0.321358	2.633710	-0.001973	0.002243	0.006573	-0.262042	-0.067268	0.962709	0.357917	-0.933198	0.032216	0.896231	0.353011	0.268613
58485	9.360779	0.330492	2.587057	-0.000463	0.001653	0.005134	-0.262038	-0.067256	0.962711	0.357927	-0.933193	0.032229	0.896228	0.353025	0.268605
58486	9.423373	0.288524	2.639399	-0.001754	0.004104	0.007717	-0.262048	-0.067276	0.962707	0.357932	-0.933192	0.032215	0.896223	0.353026	0.268621
58487	9.400947	0.297667	2.640106	-0.000244	0.003513	0.006277	-0.262059	-0.067283	0.962703	0.357948	-0.933186	0.032218	0.896213	0.353041	0.268634
58488	9.407824	0.313966	2.611079	-0.002802	0.003042	0.004022	-0.262073	-0.067264	0.962701	0.357935	-0.933190	0.032237	0.896215	0.353032	0.268640
58489	9.407867	0.313303	2.611005	0.000305	-0.004697	0.009368	-0.262001	-0.067269	0.962720	0.357964	-0.933180	0.032214	0.896224	0.353059	0.268574
58490	9.376004	0.300693	2.617061	-0.003192	0.007561	0.003760	-0.262057	-0.067264	0.962706	0.357946	-0.933186	0.032235	0.896215	0.353044	0.268624
58491	9.430081	0.302261	2.611269	-0.001974	0.002245	0.006572	-0.262051	-0.067266	0.962707	0.357946	-0.933186	0.032231	0.896217	0.353043	0.268619
58492	9.382822	0.316224	2.588359	-0.002425	0.001211	0.007994	-0.262034	-0.067278	0.962711	0.357946	-0.933186	0.032213	0.896221	0.353040	0.268608
58493	9.385351	0.320447	2.612296	-0.001974	0.002245	0.006572	-0.262029	-0.067280	0.962712	0.357946	-0.933187	0.032209	0.896223	0.353039	0.268604
58494	9.405104	0.304978	2.588402	-0.001975	0.002245	0.006571	-0.262026	-0.067282	0.962712	0.357947	-0.933186	0.032206	0.896223	0.353039	0.268603
58495	9.407632	0.309197	2.612339	-0.002426	0.001212	0.007994	-0.262007	-0.067293	0.962717	0.357947	-0.933187	0.032188	0.896229	0.353035	0.268589
58496	9.414518	0.325410	2.583347	-0.002132	0.005938	0.003743	-0.262048	-0.067282	0.962707	0.357939	-0.933189	0.032211	0.896220	0.353031	0.268624
58497	9.410068	0.312876	2.636668	-0.001818	-0.001446	0.009399	-0.262003	-0.067300	0.962718	0.357948	-0.933187	0.032180	0.896230	0.353034	0.268588
58498	9.410008	0.312191	2.636964	-0.003192	0.007563	0.003759	-0.262058	-0.067295	0.962703	0.357931	-0.933193	0.032200	0.896220	0.353019	0.268638
58499	9.372975	0.289637	2.595706	-0.002878	0.000179	0.009415	-0.262027	-0.067317	0.962710	0.357931	-0.933194	0.032168	0.896229	0.353012	0.268617
58500	9.385032	0.315529	2.614041	-0.000696	0.002482	0.007698	-0.262023	-0.067331	0.962710	0.357946	-0.933188	0.032157	0.896225	0.353024	0.268618
58501	9.427155	0.290146	2.589680	-0.002647	-0.000647	0.006848	-0.261993	-0.067325	0.962718	0.357942	-0.933190	0.032150	0.896235	0.353020	0.268588
58502	9.385010	0.314098	2.614292	-0.003035	0.003872	0.006586	-0.262005	-0.067333	0.962715	0.357933	-0.933194	0.032144	0.896235	0.353009	0.268603
58503	9.404744	0.298731	2.590438	-0.001744	0.001420	0.004004	-0.262004	-0.067309	0.962717	0.357929	-0.933195	0.032166	0.896237	0.353012	0.268593
58504	9.391945	0.329885	2.585230	-0.001136	-0.001239	0.005410	-0.261975	-0.067288	0.962726	0.357934	-0.933192	0.032176	0.896243	0.353022	0.268557
58505	9.407320	0.302441	2.614254	-0.003939	0.001807	0.009430	-0.261958	-0.067319	0.962728	0.357925	-0.933197	0.032138	0.896252	0.353003	0.268554
58506	9.384884	0.311584	2.615046	-0.003191	0.007565	0.003758	-0.262014	-0.067314	0.962714	0.357907	-0.933203	0.032158	0.896243	0.352988	0.268604
58507	9.414159	0.317885	2.585594	-0.000761	-0.003070	0.009381	-0.261958	-0.067325	0.962728	0.357928	-0.933196	0.032132	0.896251	0.353004	0.268556
58508	9.384840	0.310139	2.615376	-0.005374	0.005265	0.005474	-0.261987	-0.067328	0.962720	0.357895	-0.933209	0.032130	0.896256	0.352971	0.268585
58509	9.394292	0.331256	2.610183	-0.001977	0.002248	0.006569	-0.261985	-0.067333	0.962720	0.357895	-0.933209	0.032125	0.896256	0.352969	0.268585
58510	9.414039	0.315775	2.586290	-0.001977	0.002248	0.006569	-0.261982	-0.067335	0.962721	0.357896	-0.933209	0.032122	0.896257	0.352969	0.268583
58511	9.394197	0.329904	2.610696	-0.003036	0.003875	0.006585	-0.261994	-0.067343	0.962717	0.357887	-0.933212	0.032117	0.896256	0.352959	0.268597
58512	9.416505	0.319297	2.610527	-0.001370	-0.000410	0.007974	-0.261963	-0.067349	0.962725	0.357897	-0.933209	0.032102	0.896262	0.352966	0.268570
58513	9.379529	0.296872	2.569009	-0.002804	0.003047	0.004019	-0.261977	-0.067329	0.962722	0.357885	-0.933213	0.032122	0.896262	0.352959	0.268577
58514	9.429153	0.286590	2.616383	-0.003191	0.007567	0.003757	-0.262033	-0.067324	0.962708	0.357867	-0.933219	0.032143	0.896253	0.352944	0.268627
58515	9.371638	0.337447	2.612156	0.000141	-0.001003	0.006536	-0.261999	-0.067312	0.962718	0.357887	-0.933211	0.032148	0.896255	0.352967	0.268590
58516	9.418859	0.321906	2.635276	-0.001151	0.001451	0.009117	-0.261980	-0.067336	0.962721	0.357902	-0.933207	0.032122	0.896255	0.352975	0.268581
58517	9.381836	0.299354	2.593935	-0.001305	0.005144	0.006290	-0.262006	-0.067345	0.962714	0.357909	-0.933204	0.032125	0.896244	0.352981	0.268608
58518	9.386854	0.308686	2.641801	-0.000466	0.001656	0.005130	-0.262003	-0.067332	0.962715	0.357919	-0.933199	0.032140	0.896241	0.352995	0.268601
58519	9.416150	0.315095	2.612320	-0.003257	0.002016	0.005440	-0.262010	-0.067240	0.962720	0.357768	-0.933255	0.032187	0.896299	0.352864	0.268578
58520	9.368918	0.329269	2.589428	-0.001978	0.002250	0.006567	-0.262007	-0.067243	0.962720	0.357769	-0.933255	0.032184	0.896300	0.352864	0.268577
58521	9.440890	0.308989	2.636359	-0.002131	0.005943	0.003740	-0.262048	-0.067229	0.962710	0.357761	-0.933257	0.032210	0.896291	0.352861	0.268611
58522	9.381586	0.296430	2.595172	-0.000767	-0.003068	0.009378	-0.261988	-0.067239	0.962726	0.357780	-0.933251	0.032183	0.896301	0.352876	0.268558
58523	9.393711	0.322237	2.613401	-0.002212	0.003079	0.009131	-0.261984	-0.067267	0.962725	0.357786	-0.933250	0.032156	0.896300	0.352874	0.268564
58524	9.393608	0.321488	2.613862	-0.003643	0.006537	0.005177	-0.262025	-0.067271	0.962714	0.357768	-0.933256	0.032162	0.896295	0.352855	0.268604
58525	9.406253	0.289122	2.619594	-0.000481	0.004347	0.008837	-0.262033	-0.067303	0.962709	0.357787	-0.933250	0.032140	0.896285	0.352867	0.268623
58526	9.413242	0.305137	2.590462	-0.001374	-0.000408	0.007971	-0.262002	-0.067310	0.962717	0.357797	-0.933247	0.032125	0.896290	0.352874	0.268596
58527	9.383883	0.297489	2.620275	-0.004317	0.003645	0.005454	-0.262015	-0.067306	0.962714	0.357773	-0.933256	0.032126	0.896296	0.352850	0.268607
58528	9.415748	0.308788	2.614518	-0.001141	-0.001236	0.005406	-0.261985	-0.067285	0.962723	0.357778	-0.933254	0.032136	0.896303	0.352860	0.268572
58529	9.390871	0.313120	2.591208	-0.003038	0.003879	0.006581	-0.261996	-0.067291	0.962720	0.357769	-0.933257	0.032132	0.896303	0.352850	0.268585
58530	9.390770	0.312409	2.591660	-0.004097	0.005507	0.006597	-0.262023	-0.067306	0.962712	0.357751	-0.933265	0.032123	0.896303	0.352828	0.268615
58531	9.393235	0.316700	2.615787	0.000811	0.001892	0.006256	-0.262018	-0.067302	0.962713	0.357776	-0.933255	0.032132	0.896294	0.352855	0.268608
58532	9.415513	0.306101	2.615683	-0.003492	0.002848	0.008001	-0.262016	-0.067319	0.962713	0.357766	-0.933259	0.032111	0.896298	0.352840	0.268613
58533	9.405897	0.283541	2.621481	-0.000702	0.002487	0.007692	-0.262006	-0.067331	0.962714	0.357780	-0.933254	0.032100	0.896296	0.352850	0.268608
58534	9.400162	0.331307	2.587113	0.000357	0.000860	0.007677	-0.261988	-0.067339	0.962719	0.357804	-0.933245	0.032093	0.896292	0.352873	0.268593
58535	9.370815	0.323649	2.616850	-0.003713	0.000987	0.006857	-0.261975	-0.067341	0.962722	0.357789	-0.933251	0.032081	0.896301	0.352856	0.268582
58536	9.424981	0.324982	2.610860	-0.001526	0.003286	0.005144	-0.261987	-0.067334	0.962720	0.357790	-0.933250	0.032093	0.896298	0.352860	0.268590
58537	9.383484	0.290773	2.622456	-0.000922	0.000626	0.006548	-0.261969	-0.067330	0.962725	0.357801	-0.933246	0.032093	0.896298	0.352871	0.268572
58538	9.415313	0.301951	2.616884	-0.004097	0.005509	0.006595	-0.261996	-0.067344	0.962716	0.357782	-0.933254	0.032084	0.896298	0.352849	0.268603
58539	9.361032	0.299349	2.623432	0.000810	0.001893	0.006255	-0.261990	-0.067346	0.962718	0.357806	-0.933244	0.032088	0.896290	0.352873	0.268598
58540	9.402471	0.332389	2.612216	-0.003259	0.002021	0.005436	-0.261990	-0.067337	0.962719	0.357792	-0.933250	0.032092	0.896296	0.352861	0.268595
58541	9.412626	0.295193	2.593850	-0.003260	0.002021	0.005436	-0.261988	-0.067332	0.962719	0.357777	-0.933255	0.032092	0.896302	0.352847	0.268592
58542	9.380088	0.341032	2.612963	-0.000703	0.002489	0.007691	-0.261984	-0.067345	0.962720	0.357792	-0.933250	0.032082	0.896297	0.352858	0.268592
58543	9.424649	0.320494	2.612614	-0.003040	0.003883	0.006579	-0.262000	-0.067354	0.962715	0.357785	-0.933253	0.032077	0.896296	0.352849	0.268610
58544	9.392693	0.307924	2.618781	-0.000703	0.002489	0.007690	-0.261995	-0.067368	0.962715	0.357800	-0.933248	0.032067	0.896291	0.352860	0.268611
58545	9.392631	0.307205	2.619086	-0.003040	0.003884	0.006578	-0.262010	-0.067376	0.962710	0.357792	-0.933251	0.032062	0.896290	0.352851	0.268627
58546	9.424511	0.318395	2.613367	0.000134	-0.001000	0.006532	-0.261978	-0.067367	0.962720	0.357812	-0.933243	0.032065	0.896291	0.352872	0.268594
58547	9.414920	0.295945	2.618983	-0.004773	0.002619	0.006870	-0.261976	-0.067374	0.962720	0.357787	-0.933253	0.032050	0.896302	0.352845	0.268596
58548	9.395092	0.310176	2.643364	-0.002805	0.003054	0.004014	-0.261990	-0.067355	0.962717	0.357773	-0.933258	0.032069	0.896303	0.352836	0.268602
58549	9.389964	0.299729	2.596076	-0.000704	0.002490	0.007690	-0.261985	-0.067368	0.962718	0.357789	-0.933252	0.032059	0.896299	0.352849	0.268601
58550	9.392437	0.303900	2.620167	-0.001762	0.004118	0.007705	-0.261995	-0.067387	0.962714	0.357794	-0.933250	0.032046	0.896293	0.352849	0.268618
58551	9.392381	0.303268	2.620442	-0.000470	0.001660	0.005126	-0.261991	-0.067375	0.962716	0.357803	-0.933247	0.032059	0.896291	0.352862	0.268609
58552	9.399433	0.319570	2.591236	-0.002203	0.000395	0.005419	-0.261976	-0.067360	0.962721	0.357799	-0.933248	0.032066	0.896297	0.352861	0.268590
58553	9.399397	0.318938	2.591445	-0.003041	0.003886	0.006577	-0.261985	-0.067367	0.962718	0.357789	-0.933252	0.032060	0.896298	0.352849	0.268602
58554	9.392226	0.301321	2.621222	-0.001543	0.005981	0.008847	-0.262008	-0.067404	0.962709	0.357799	-0.933249	0.032037	0.896287	0.352851	0.268636
58555	9.399215	0.317435	2.592288	0.000808	0.001894	0.006253	-0.262003	-0.067400	0.962711	0.357825	-0.933239	0.032046	0.896279	0.352878	0.268629
58556	9.424034	0.311773	2.615884	-0.003717	0.000993	0.006853	-0.261988	-0.067401	0.962715	0.357811	-0.933244	0.032035	0.896289	0.352862	0.268616
58557	9.411298	0.342736	2.610921	-0.003041	0.003887	0.006576	-0.261999	-0.067409	0.962711	0.357802	-0.933248	0.032029	0.896289	0.352851	0.268629
58558	9.401630	0.320263	2.616752	-0.000706	0.002492	0.007688	-0.261995	-0.067422	0.962711	0.357817	-0.933243	0.032019	0.896284	0.352863	0.268630
58559	9.367149	0.302857	2.599037	-0.003262	0.002025	0.005433	-0.261993	-0.067414	0.962712	0.357803	-0.933248	0.032022	0.896291	0.352851	0.268625
58560	9.421342	0.304123	2.593003	-0.000927	0.000630	0.006545	-0.261976	-0.067410	0.962717	0.357813	-0.933244	0.032022	0.896292	0.352861	0.268608
58561	9.389434	0.291668	2.598909	-0.000927	0.000630	0.006545	-0.261959	-0.067405	0.962722	0.357824	-0.933240	0.032024	0.896292	0.352874	0.268590
58562	9.401521	0.317654	2.617461	-0.004099	0.005517	0.006590	-0.261986	-0.067419	0.962714	0.357805	-0.933247	0.032015	0.896292	0.352851	0.268620
58563	9.436425	0.275451	2.622679	-0.001749	0.001428	0.003997	-0.261985	-0.067397	0.962716	0.357800	-0.933249	0.032034	0.896294	0.352852	0.268612
58564	9.388753	0.348153	2.612727	-0.002441	0.001228	0.007979	-0.261969	-0.067409	0.962719	0.357800	-0.933249	0.032016	0.896299	0.352848	0.268601
58565	9.401410	0.315757	2.618091	-0.003263	0.002027	0.005432	-0.261968	-0.067400	0.962720	0.357786	-0.933255	0.032020	0.896305	0.352836	0.268597
58566	9.391773	0.293390	2.623742	-0.000928	0.000631	0.006544	-0.261951	-0.067397	0.962725	0.357796	-0.933251	0.032020	0.896306	0.352847	0.268580
58567	9.401377	0.314485	2.618363	-0.001985	0.002260	0.006559	-0.261950	-0.067401	0.962725	0.357797	-0.933250	0.032017	0.896305	0.352847	0.268581
58568	9.414033	0.282210	2.623684	-0.003483	0.000165	0.004288	-0.261937	-0.067374	0.962730	0.357778	-0.933257	0.032032	0.896317	0.352834	0.268560
58569	9.403888	0.318002	2.642389	-0.001399	0.002293	0.011668	-0.261919	-0.067422	0.962732	0.357799	-0.933251	0.031985	0.896314	0.352842	0.268559
58570	9.401292	0.312334	2.618923	-0.001072	0.004323	0.003720	-0.261945	-0.067405	0.962726	0.357800	-0.933249	0.032012	0.896306	0.352849	0.268577
58571	9.391594	0.290064	2.624754	-0.001985	0.002261	0.006558	-0.261944	-0.067407	0.962726	0.357801	-0.933249	0.032010	0.896305	0.352850	0.268577
58572	9.401199	0.311070	2.619408	-0.002442	0.001230	0.007977	-0.261928	-0.067419	0.962730	0.357802	-0.933249	0.031992	0.896310	0.352846	0.268566
58573	9.410814	0.332197	2.614025	-0.001750	0.001430	0.003996	-0.261929	-0.067394	0.962731	0.357799	-0.933250	0.032016	0.896311	0.352850	0.268559
58574	9.401134	0.309943	2.619776	-0.000251	0.003525	0.006266	-0.261939	-0.067398	0.962728	0.357814	-0.933244	0.032020	0.896302	0.352865	0.268569
58575	9.401099	0.309326	2.619973	-0.000929	0.000632	0.006543	-0.261925	-0.067397	0.962732	0.357824	-0.933240	0.032019	0.896302	0.352876	0.268555
58576	9.420845	0.293892	2.595986	-0.000472	0.001663	0.005123	-0.261922	-0.067384	0.962734	0.357835	-0.933235	0.032034	0.896298	0.352890	0.268547
58577	9.388413	0.339720	2.615057	-0.003957	0.001830	0.009411	-0.261907	-0.067412	0.962736	0.357825	-0.933240	0.031998	0.896307	0.352871	0.268544
58578	9.410712	0.328910	2.614808	-0.002664	-0.000631	0.006834	-0.261878	-0.067406	0.962744	0.357820	-0.933242	0.031990	0.896317	0.352867	0.268515
58579	9.423328	0.296660	2.620184	-0.001072	0.004324	0.003719	-0.261902	-0.067389	0.962739	0.357821	-0.933241	0.032016	0.896310	0.352873	0.268531
58580	9.408098	0.322899	2.591465	-0.003721	0.000999	0.006848	-0.261887	-0.067390	0.962743	0.357806	-0.933247	0.032006	0.896320	0.352857	0.268518
58581	9.432857	0.317193	2.615220	-0.002586	0.004924	0.005153	-0.261911	-0.067389	0.962736	0.357796	-0.933251	0.032013	0.896317	0.352848	0.268540
58582	9.383152	0.326703	2.568632	-0.001987	0.002263	0.006557	-0.261909	-0.067392	0.962737	0.357797	-0.933251	0.032010	0.896318	0.352848	0.268539
58583	9.403342	0.309041	2.645392	-0.001987	0.002263	0.006556	-0.261907	-0.067394	0.962737	0.357797	-0.933251	0.032006	0.896318	0.352847	0.268538
58584	9.400739	0.303600	2.621936	-0.005141	0.004459	0.002897	-0.261937	-0.067370	0.962731	0.357760	-0.933264	0.032030	0.896324	0.352816	0.268559
58585	9.410366	0.324671	2.616582	-0.001846	-0.001429	0.009379	-0.261892	-0.067387	0.962742	0.357769	-0.933262	0.032000	0.896334	0.352819	0.268523
58586	9.398128	0.297347	2.598603	-0.003185	0.007586	0.003748	-0.261947	-0.067382	0.962727	0.357751	-0.933268	0.032020	0.896325	0.352804	0.268573
58587	9.400586	0.301725	2.622701	0.000126	-0.000997	0.006526	-0.261916	-0.067371	0.962736	0.357771	-0.933260	0.032025	0.896326	0.352827	0.268539
58588	9.420358	0.286139	2.598618	-0.002445	0.001233	0.007974	-0.261899	-0.067382	0.962740	0.357771	-0.933261	0.032007	0.896331	0.352823	0.268528
58589	9.378300	0.310247	2.623200	-0.001988	0.002264	0.006556	-0.261896	-0.067383	0.962741	0.357772	-0.933261	0.032005	0.896331	0.352823	0.268525
58590	9.387902	0.331426	2.617953	-0.002807	0.003063	0.004009	-0.261910	-0.067365	0.962738	0.357758	-0.933265	0.032024	0.896333	0.352815	0.268532
58591	9.410146	0.320817	2.617851	-0.002446	0.001234	0.007974	-0.261892	-0.067376	0.962742	0.357757	-0.933266	0.032006	0.896338	0.352810	0.268519
58592	9.407602	0.315302	2.594199	-0.001751	0.001432	0.003994	-0.261892	-0.067352	0.962744	0.357753	-0.933267	0.032029	0.896340	0.352813	0.268510
58593	9.422769	0.287806	2.623178	-0.001848	-0.001427	0.009377	-0.261846	-0.067366	0.962756	0.357763	-0.933264	0.032000	0.896350	0.352817	0.268473
58594	9.385286	0.323926	2.594815	-0.003185	0.007588	0.003748	-0.261902	-0.067361	0.962741	0.357745	-0.933270	0.032021	0.896340	0.352802	0.268523
58595	9.393213	0.279639	2.653430	-0.005459	-0.000260	0.007136	-0.261875	-0.067358	0.962748	0.357717	-0.933281	0.032006	0.896359	0.352773	0.268498
58596	9.397815	0.290808	2.600475	-0.000711	0.002497	0.007682	-0.261871	-0.067372	0.962749	0.357732	-0.933276	0.031995	0.896355	0.352785	0.268499
58597	9.407446	0.311925	2.595173	-0.000474	0.001665	0.005121	-0.261867	-0.067358	0.962751	0.357742	-0.933272	0.032010	0.896352	0.352799	0.268490
58598	9.402797	0.299360	2.648439	-0.000712	0.002498	0.007682	-0.261863	-0.067371	0.962751	0.357757	-0.933266	0.032000	0.896347	0.352810	0.268490
58599	9.385082	0.320664	2.595958	-0.001531	0.003296	0.005136	-0.261873	-0.067363	0.962749	0.357758	-0.933266	0.032012	0.896344	0.352814	0.268496
58600	9.419468	0.336850	2.614297	-0.001072	0.004327	0.003718	-0.261899	-0.067346	0.962743	0.357759	-0.933264	0.032039	0.896336	0.352821	0.268515
58601	9.400069	0.292753	2.625568	-0.001171	0.001468	0.009099	-0.261882	-0.067371	0.962746	0.357774	-0.933259	0.032013	0.896335	0.352829	0.268507
58602	9.384928	0.319005	2.596718	-0.004306	0.000970	0.001738	-0.261885	-0.067324	0.962748	0.357741	-0.933271	0.032050	0.896347	0.352808	0.268494
58603	9.389986	0.328221	2.644334	-0.000115	-0.000163	0.009084	-0.261853	-0.067340	0.962755	0.357766	-0.933262	0.032029	0.896346	0.352828	0.268470
58604	9.409737	0.312696	2.620302	-0.001752	0.001434	0.003993	-0.261853	-0.067316	0.962757	0.357761	-0.933263	0.032051	0.896348	0.352830	0.268461
58605	9.400027	0.290421	2.625977	-0.001990	0.002267	0.006553	-0.261851	-0.067321	0.962757	0.357761	-0.933263	0.032046	0.896349	0.352829	0.268461
58606	9.377700	0.299824	2.626552	-0.001531	0.003298	0.005135	-0.261863	-0.067313	0.962755	0.357762	-0.933262	0.032058	0.896345	0.352832	0.268469
58607	9.409611	0.310886	2.620969	-0.002449	0.001237	0.007971	-0.261848	-0.067326	0.962758	0.357762	-0.933263	0.032040	0.896349	0.352828	0.268460
58608	9.416766	0.327000	2.591783	-0.000934	0.000636	0.006538	-0.261831	-0.067322	0.962763	0.357772	-0.933259	0.032040	0.896350	0.352839	0.268442
58609	9.387301	0.319493	2.621590	-0.003046	0.003900	0.006567	-0.261843	-0.067328	0.962759	0.357763	-0.933263	0.032037	0.896350	0.352828	0.268456
58610	9.429253	0.293917	2.597485	-0.001990	0.002268	0.006552	-0.261841	-0.067330	0.962760	0.357764	-0.933263	0.032034	0.896351	0.352828	0.268455
58611	9.394327	0.335007	2.592964	-0.001310	0.005162	0.006277	-0.261865	-0.067338	0.962753	0.357770	-0.933260	0.032037	0.896341	0.352833	0.268479
58612	9.374914	0.290887	2.604164	-0.002671	-0.000625	0.006827	-0.261836	-0.067332	0.962761	0.357765	-0.933262	0.032030	0.896352	0.352829	0.268451
58613	9.416563	0.323730	2.592931	-0.000476	0.001667	0.005120	-0.261833	-0.067320	0.962762	0.357775	-0.933258	0.032044	0.896348	0.352843	0.268444
58614	9.384574	0.311432	2.598916	-0.001991	0.002269	0.006552	-0.261831	-0.067322	0.962763	0.357776	-0.933258	0.032041	0.896349	0.352842	0.268442
58615	9.416499	0.322567	2.593310	-0.000476	0.001667	0.005119	-0.261830	-0.067311	0.962764	0.357786	-0.933253	0.032054	0.896345	0.352856	0.268436
58616	9.384491	0.310309	2.599350	-0.000255	0.003531	0.006261	-0.261840	-0.067315	0.962761	0.357801	-0.933247	0.032059	0.896336	0.352871	0.268447
58617	9.384415	0.309664	2.599704	-0.003047	0.003902	0.006566	-0.261849	-0.067322	0.962758	0.357791	-0.933251	0.032053	0.896337	0.352860	0.268458
58618	9.416360	0.320794	2.594035	-0.002434	-0.001457	0.004267	-0.261822	-0.067289	0.962768	0.357782	-0.933254	0.032071	0.896349	0.352858	0.268421
58619	9.386921	0.313278	2.623699	-0.002230	0.003104	0.009110	-0.261816	-0.067317	0.962767	0.357787	-0.933253	0.032044	0.896349	0.352855	0.268426
58620	9.374638	0.285957	2.605703	-0.001532	0.003300	0.005133	-0.261828	-0.067309	0.962764	0.357787	-0.933253	0.032056	0.896345	0.352858	0.268434
58621	9.425947	0.340510	2.589210	-0.001992	0.002270	0.006551	-0.261825	-0.067312	0.962765	0.357787	-0.933253	0.032052	0.896346	0.352857	0.268432
58622	9.384250	0.306506	2.600673	-0.000477	0.001668	0.005119	-0.261822	-0.067299	0.962767	0.357798	-0.933248	0.032067	0.896343	0.352872	0.268424
58623	9.386739	0.310842	2.624641	-0.003269	0.002039	0.005423	-0.261821	-0.067289	0.962768	0.357783	-0.933254	0.032072	0.896349	0.352860	0.268420
58624	9.408924	0.300246	2.624674	-0.002587	0.004933	0.005147	-0.261847	-0.067287	0.962761	0.357775	-0.933257	0.032081	0.896344	0.352852	0.268445
58625	9.386616	0.309797	2.625205	-0.000699	-0.000196	0.003976	-0.261832	-0.067255	0.962767	0.357780	-0.933254	0.032108	0.896347	0.352866	0.268418
58626	9.413489	0.311179	2.572101	-0.004103	0.005536	0.006579	-0.261859	-0.067269	0.962759	0.357762	-0.933261	0.032099	0.896346	0.352844	0.268449
58627	9.393710	0.325342	2.596430	0.002671	-0.000531	0.008776	-0.261823	-0.067280	0.962768	0.357811	-0.933243	0.032089	0.896337	0.352890	0.268418
58628	9.383943	0.302956	2.602196	-0.003643	0.006567	0.005161	-0.261864	-0.067284	0.962756	0.357793	-0.933249	0.032095	0.896332	0.352872	0.268458
58629	9.418335	0.318934	2.620619	-0.003270	0.002041	0.005422	-0.261863	-0.067274	0.962758	0.357778	-0.933255	0.032100	0.896338	0.352860	0.268454
58630	9.396041	0.328332	2.621131	-0.001993	0.002272	0.006549	-0.261861	-0.067277	0.962758	0.357779	-0.933255	0.032097	0.896339	0.352859	0.268453
58631	9.386288	0.305947	2.626829	-0.001993	0.002272	0.006549	-0.261856	-0.067282	0.962759	0.357777	-0.933256	0.032089	0.896341	0.352855	0.268450
58632	9.415702	0.312090	2.597481	-0.001993	0.002272	0.006549	-0.261854	-0.067284	0.962759	0.357777	-0.933256	0.032087	0.896342	0.352855	0.268449
58633	9.393433	0.321544	2.597905	-0.003492	0.000178	0.004279	-0.261840	-0.067257	0.962765	0.357758	-0.933262	0.032102	0.896353	0.352842	0.268428
58634	9.418197	0.315924	2.621479	-0.001755	0.001438	0.003990	-0.261840	-0.067233	0.962767	0.357754	-0.933263	0.032124	0.896355	0.352845	0.268418
58635	9.418196	0.315233	2.621565	-0.002915	0.000214	0.009382	-0.261807	-0.067255	0.962774	0.357752	-0.933265	0.032089	0.896365	0.352835	0.268396
58636	9.395905	0.324602	2.622085	-0.001072	0.004332	0.003715	-0.261834	-0.067239	0.962768	0.357753	-0.933264	0.032116	0.896357	0.352842	0.268415
58637	9.393319	0.319246	2.598601	-0.003270	0.002042	0.005420	-0.261834	-0.067231	0.962768	0.357739	-0.933269	0.032120	0.896362	0.352830	0.268412
58638	9.383577	0.296879	2.604216	0.000337	0.000871	0.007661	-0.261815	-0.067239	0.962773	0.357764	-0.933260	0.032112	0.896358	0.352853	0.268397
58639	9.405528	0.344524	2.617201	-0.003271	0.002043	0.005420	-0.261812	-0.067229	0.962775	0.357749	-0.933265	0.032116	0.896365	0.352840	0.268391
58640	9.405771	0.285590	2.604260	-0.003271	0.002043	0.005420	-0.261811	-0.067220	0.962775	0.357735	-0.933271	0.032120	0.896371	0.352828	0.268388
58641	9.393233	0.316731	2.599219	-0.000940	0.000641	0.006533	-0.261795	-0.067217	0.962780	0.357745	-0.933267	0.032120	0.896371	0.352839	0.268371
58642	9.420494	0.315715	2.646666	-0.004787	0.002648	0.006850	-0.261795	-0.067223	0.962779	0.357721	-0.933276	0.032107	0.896381	0.352812	0.268374
58643	9.393092	0.315354	2.599894	-0.000628	0.008061	0.005998	-0.261847	-0.067241	0.962764	0.357732	-0.933272	0.032112	0.896361	0.352820	0.268429
58644	9.402744	0.336333	2.594810	-0.004194	-0.000014	0.008252	-0.261818	-0.067252	0.962771	0.357718	-0.933278	0.032087	0.896376	0.352801	0.268407
58645	9.415251	0.303795	2.600098	-0.001995	0.002275	0.006547	-0.261817	-0.067255	0.962771	0.357718	-0.933278	0.032084	0.896376	0.352801	0.268407
58646	9.402703	0.334890	2.595147	-0.001995	0.002275	0.006547	-0.261815	-0.067257	0.962772	0.357719	-0.933278	0.032081	0.896376	0.352801	0.268406
58647	9.390417	0.307736	2.577012	-0.000479	0.001670	0.005116	-0.261813	-0.067242	0.962773	0.357730	-0.933273	0.032098	0.896372	0.352816	0.268398
58648	9.415166	0.301979	2.600619	-0.000941	0.000642	0.006532	-0.261796	-0.067239	0.962778	0.357739	-0.933270	0.032098	0.896373	0.352827	0.268381
58649	9.382896	0.348067	2.619740	-0.005603	0.003448	0.004305	-0.261812	-0.067222	0.962775	0.357701	-0.933284	0.032108	0.896384	0.352792	0.268390
58650	9.415106	0.300679	2.600985	-0.000127	-0.000157	0.009076	-0.261779	-0.067239	0.962783	0.357725	-0.933276	0.032086	0.896384	0.352811	0.268365
58651	9.363354	0.303333	2.631032	-0.001072	0.004334	0.003714	-0.261806	-0.067222	0.962777	0.357727	-0.933274	0.032114	0.896375	0.352819	0.268384
58652	9.415039	0.299517	2.601364	-0.002680	-0.000617	0.006820	-0.261777	-0.067217	0.962785	0.357722	-0.933276	0.032107	0.896386	0.352814	0.268355
58653	9.402504	0.330618	2.596416	-0.001312	0.005169	0.006271	-0.261804	-0.067228	0.962777	0.357729	-0.933273	0.032107	0.896375	0.352819	0.268384
58654	9.392680	0.308266	2.602234	-0.001996	0.002276	0.006545	-0.261802	-0.067231	0.962777	0.357729	-0.933273	0.032105	0.896376	0.352818	0.268383
58655	9.427128	0.324135	2.620547	-0.000258	0.003536	0.006257	-0.261813	-0.067233	0.962774	0.357745	-0.933267	0.032111	0.896367	0.352834	0.268393
58656	9.370341	0.317317	2.603001	-0.001516	0.000605	0.001430	-0.261814	-0.067181	0.962777	0.357736	-0.933269	0.032159	0.896370	0.352840	0.268376
58657	9.395009	0.311696	2.626855	-0.002366	0.006804	0.006285	-0.261853	-0.067196	0.962766	0.357733	-0.933270	0.032159	0.896359	0.352834	0.268418
58658	9.392394	0.306128	2.603517	-0.004789	0.002653	0.006847	-0.261854	-0.067202	0.962765	0.357709	-0.933280	0.032146	0.896369	0.352808	0.268421
58659	9.404660	0.332000	2.621937	0.000111	-0.000991	0.006517	-0.261821	-0.067193	0.962774	0.357728	-0.933272	0.032148	0.896370	0.352829	0.268388
58660	9.394884	0.309571	2.627555	-0.000499	0.004372	0.008814	-0.261830	-0.067224	0.962770	0.357748	-0.933265	0.032127	0.896360	0.352841	0.268406
58661	9.379832	0.335773	2.598901	-0.003273	0.002048	0.005417	-0.261829	-0.067214	0.962771	0.357734	-0.933271	0.032132	0.896366	0.352829	0.268402
58662	9.424270	0.315032	2.598522	-0.003273	0.002048	0.005416	-0.261829	-0.067205	0.962772	0.357720	-0.933276	0.032137	0.896372	0.352817	0.268399
58663	9.370014	0.312776	2.604725	-0.002460	0.001250	0.007960	-0.261813	-0.067216	0.962775	0.357720	-0.933276	0.032120	0.896376	0.352813	0.268388
58664	9.392211	0.302034	2.604654	-0.001535	0.003307	0.005128	-0.261825	-0.067209	0.962772	0.357721	-0.933276	0.032132	0.896372	0.352817	0.268397
58665	9.414377	0.291471	2.604670	-0.002811	0.003077	0.004000	-0.261839	-0.067189	0.962770	0.357707	-0.933280	0.032152	0.896374	0.352808	0.268403
58666	9.394629	0.305697	2.628919	-0.002924	0.000222	0.009375	-0.261809	-0.067211	0.962777	0.357707	-0.933282	0.032120	0.896383	0.352801	0.268383
58667	9.394584	0.304979	2.629161	-0.003865	0.004712	0.004014	-0.261836	-0.067198	0.962770	0.357682	-0.933290	0.032135	0.896385	0.352780	0.268404
58668	9.404259	0.326106	2.624111	0.001017	0.003767	0.007383	-0.261844	-0.067214	0.962767	0.357712	-0.933279	0.032132	0.896370	0.352807	0.268417
58669	9.399149	0.315798	2.576932	-0.002589	0.004943	0.005141	-0.261871	-0.067211	0.962760	0.357703	-0.933282	0.032142	0.896366	0.352800	0.268441
58670	9.369578	0.308424	2.606814	-0.001999	0.002280	0.006543	-0.261869	-0.067213	0.962760	0.357704	-0.933282	0.032140	0.896366	0.352799	0.268440
58671	9.401522	0.319357	2.601374	-0.003052	0.003915	0.006556	-0.261882	-0.067220	0.962756	0.357696	-0.933285	0.032136	0.896366	0.352789	0.268455
58672	9.394211	0.301788	2.630863	-0.003738	0.001022	0.006830	-0.261868	-0.067221	0.962760	0.357681	-0.933291	0.032125	0.896376	0.352774	0.268442
58673	9.408718	0.334946	2.572552	-0.000019	0.002701	0.003698	-0.261877	-0.067197	0.962759	0.357691	-0.933286	0.032154	0.896369	0.352791	0.268442
58674	9.371894	0.310776	2.631589	-0.004792	0.002658	0.006843	-0.261878	-0.067204	0.962758	0.357667	-0.933296	0.032141	0.896378	0.352764	0.268446
58675	9.401392	0.316776	2.602161	0.002659	-0.000531	0.008770	-0.261843	-0.067218	0.962767	0.357715	-0.933278	0.032129	0.896370	0.352809	0.268417
58676	9.391591	0.294355	2.607768	-0.003053	0.003916	0.006555	-0.261855	-0.067226	0.962763	0.357706	-0.933282	0.032123	0.896370	0.352797	0.268432
58677	9.381592	0.330344	2.626694	-0.003275	0.002051	0.005414	-0.261853	-0.067218	0.962764	0.357691	-0.933287	0.032125	0.896376	0.352784	0.268428
58678	9.403781	0.319582	2.626629	-0.000724	0.002511	0.007669	-0.261849	-0.067232	0.962764	0.357705	-0.933282	0.032114	0.896371	0.352795	0.268428
58679	9.403725	0.318950	2.626906	-0.001536	0.003309	0.005126	-0.261862	-0.067224	0.962761	0.357707	-0.933281	0.032128	0.896367	0.352799	0.268437
58680	9.393867	0.296734	2.632667	-0.001536	0.003310	0.005126	-0.261874	-0.067216	0.962758	0.357707	-0.933280	0.032140	0.896363	0.352802	0.268446
58681	9.401078	0.313027	2.603749	-0.000261	0.003539	0.006254	-0.261885	-0.067221	0.962755	0.357723	-0.933274	0.032143	0.896354	0.352817	0.268457
58682	9.393746	0.295741	2.633211	-0.004310	0.000986	0.001729	-0.261888	-0.067174	0.962758	0.357690	-0.933286	0.032181	0.896366	0.352796	0.268444
58683	9.378809	0.322078	2.604321	-0.002928	0.000226	0.009371	-0.261858	-0.067197	0.962764	0.357689	-0.933287	0.032147	0.896375	0.352788	0.268424
58684	9.403507	0.315953	2.628049	-0.001778	0.004147	0.007682	-0.261868	-0.067216	0.962760	0.357695	-0.933286	0.032134	0.896370	0.352789	0.268441
58685	9.435477	0.326748	2.622585	-0.002465	0.001255	0.007955	-0.261852	-0.067230	0.962764	0.357694	-0.933287	0.032114	0.896375	0.352783	0.268430
58686	9.378711	0.319691	2.604967	-0.002001	0.002283	0.006540	-0.261850	-0.067232	0.962764	0.357694	-0.933287	0.032111	0.896376	0.352783	0.268429
58687	9.393578	0.292050	2.634222	-0.003054	0.003919	0.006553	-0.261861	-0.067240	0.962760	0.357684	-0.933291	0.032105	0.896377	0.352771	0.268443
58688	9.403319	0.313109	2.629059	0.000792	0.001904	0.006240	-0.261857	-0.067238	0.962762	0.357709	-0.933281	0.032112	0.896368	0.352797	0.268437
58689	9.378533	0.317629	2.605859	-0.003296	0.004757	0.009109	-0.261865	-0.067273	0.962757	0.357703	-0.933284	0.032080	0.896368	0.352782	0.268458
58690	9.422869	0.296694	2.605753	-0.003865	0.004718	0.004010	-0.261894	-0.067260	0.962750	0.357680	-0.933292	0.032097	0.896368	0.352763	0.268481
58691	9.378427	0.316161	2.606418	0.001726	-0.002586	0.011597	-0.261830	-0.067293	0.962765	0.357727	-0.933276	0.032054	0.896369	0.352799	0.268433
58692	9.425377	0.299930	2.629712	-0.004330	0.003691	0.005425	-0.261845	-0.067290	0.962761	0.357703	-0.933285	0.032056	0.896374	0.352776	0.268446
58693	9.400597	0.304531	2.606493	-0.000726	0.002513	0.007667	-0.261840	-0.067304	0.962762	0.357717	-0.933280	0.032045	0.896369	0.352787	0.268446
58694	9.403079	0.308676	2.630444	-0.000949	0.000648	0.006525	-0.261824	-0.067300	0.962766	0.357727	-0.933276	0.032045	0.896370	0.352798	0.268429
58695	9.380845	0.318144	2.630866	-0.002002	0.002285	0.006539	-0.261826	-0.067303	0.962766	0.357729	-0.933275	0.032044	0.896369	0.352799	0.268432
58696	9.388107	0.334489	2.601869	-0.000020	0.002704	0.003696	-0.261838	-0.067280	0.962764	0.357740	-0.933270	0.032073	0.896361	0.352817	0.268434
58697	9.434999	0.318407	2.625332	-0.003985	0.001867	0.009380	-0.261822	-0.067308	0.962766	0.357730	-0.933275	0.032037	0.896370	0.352798	0.268430
58698	9.368379	0.289776	2.613256	-0.001072	0.004340	0.003709	-0.261849	-0.067291	0.962760	0.357731	-0.933274	0.032064	0.896361	0.352805	0.268449
58699	9.415186	0.332012	2.649933	-0.002933	0.000231	0.009366	-0.261820	-0.067313	0.962767	0.357731	-0.933275	0.032032	0.896370	0.352798	0.268430
58700	9.378131	0.310056	2.608216	-0.001537	0.003313	0.005124	-0.261832	-0.067305	0.962764	0.357731	-0.933275	0.032044	0.896366	0.352801	0.268438
58701	9.390375	0.335960	2.626933	-0.003055	0.003923	0.006551	-0.261846	-0.067311	0.962760	0.357723	-0.933278	0.032042	0.896365	0.352791	0.268454
58702	9.390383	0.276956	2.614015	-0.002003	0.002286	0.006537	-0.261844	-0.067313	0.962760	0.357723	-0.933278	0.032039	0.896366	0.352791	0.268453
58703	9.407490	0.314824	2.579575	-0.002003	0.002286	0.006537	-0.261839	-0.067314	0.962761	0.357723	-0.933278	0.032036	0.896368	0.352790	0.268448
58704	9.402601	0.302081	2.632915	-0.001780	0.004152	0.007678	-0.261850	-0.067334	0.962757	0.357728	-0.933277	0.032023	0.896362	0.352790	0.268465
58705	9.412343	0.323028	2.627874	-0.003056	0.003924	0.006550	-0.261860	-0.067340	0.962754	0.357719	-0.933280	0.032018	0.896363	0.352779	0.268478
58706	9.409828	0.317549	2.604216	0.000101	-0.000987	0.006511	-0.261829	-0.067330	0.962763	0.357738	-0.933273	0.032021	0.896364	0.352801	0.268445
58707	9.399928	0.295348	2.609959	-0.003177	0.007616	0.003735	-0.261885	-0.067324	0.962748	0.357720	-0.933279	0.032043	0.896355	0.352786	0.268495
58708	9.380102	0.309726	2.634517	-0.000729	0.002516	0.007664	-0.261881	-0.067338	0.962748	0.357734	-0.933274	0.032032	0.896351	0.352797	0.268496
58709	9.419436	0.337414	2.599821	-0.002004	0.002288	0.006536	-0.261879	-0.067341	0.962748	0.357735	-0.933274	0.032029	0.896351	0.352796	0.268495
58710	9.387342	0.325247	2.605797	-0.000263	0.003544	0.006250	-0.261889	-0.067345	0.962745	0.357750	-0.933268	0.032034	0.896342	0.352811	0.268505
58711	9.387287	0.324618	2.606074	-0.002005	0.002288	0.006536	-0.261888	-0.067345	0.962746	0.357751	-0.933268	0.032033	0.896342	0.352812	0.268505
58712	9.411949	0.318666	2.629817	-0.003280	0.002060	0.005408	-0.261888	-0.067336	0.962746	0.357737	-0.933273	0.032038	0.896348	0.352800	0.268502
58713	9.379840	0.306368	2.635843	-0.003300	0.004765	0.009103	-0.261898	-0.067375	0.962741	0.357731	-0.933276	0.032002	0.896347	0.352784	0.268526
58714	9.409285	0.312364	2.606804	-0.003866	0.004725	0.004007	-0.261927	-0.067362	0.962734	0.357708	-0.933284	0.032019	0.896348	0.352764	0.268549
58715	9.406718	0.306949	2.583335	0.003338	0.002363	0.008492	-0.261920	-0.067387	0.962734	0.357761	-0.933265	0.032007	0.896329	0.352812	0.268549
58716	9.409197	0.311131	2.607267	-0.002228	0.000423	0.005394	-0.261905	-0.067372	0.962739	0.357756	-0.933266	0.032015	0.896335	0.352810	0.268530
58717	9.386979	0.320667	2.607671	-0.002005	0.002289	0.006535	-0.261906	-0.067375	0.962739	0.357757	-0.933266	0.032013	0.896334	0.352811	0.268531
58718	9.421480	0.336303	2.626016	-0.000731	0.002518	0.007662	-0.261902	-0.067389	0.962739	0.357772	-0.933261	0.032002	0.896330	0.352822	0.268532
58719	9.386882	0.319299	2.608187	-0.000264	0.003545	0.006249	-0.261940	-0.067330	0.962733	0.357832	-0.933235	0.032092	0.896294	0.352902	0.268545
58720	9.399197	0.286855	2.613537	-0.000954	0.000652	0.006521	-0.261924	-0.067326	0.962737	0.357841	-0.933231	0.032092	0.896295	0.352913	0.268528
58721	9.386813	0.318069	2.608585	-0.000264	0.003545	0.006248	-0.261933	-0.067329	0.962735	0.357856	-0.933225	0.032097	0.896287	0.352928	0.268537
58722	9.418809	0.328949	2.603178	-0.002006	0.002291	0.006534	-0.261931	-0.067331	0.962735	0.357856	-0.933225	0.032094	0.896287	0.352927	0.268536
58723	9.374299	0.290402	2.590949	-0.003176	0.007621	0.003732	-0.261986	-0.067326	0.962720	0.357838	-0.933231	0.032115	0.896278	0.352912	0.268586
58724	9.418607	0.327898	2.604041	-0.002230	0.000425	0.005393	-0.261972	-0.067311	0.962725	0.357834	-0.933233	0.032122	0.896284	0.352911	0.268567
58725	9.408755	0.305627	2.609512	-0.000955	0.000653	0.006521	-0.261955	-0.067308	0.962730	0.357843	-0.933229	0.032122	0.896286	0.352921	0.268549
58726	9.386541	0.315139	2.609921	-0.002007	0.002291	0.006533	-0.261953	-0.067310	0.962731	0.357843	-0.933229	0.032120	0.896286	0.352920	0.268548
58727	9.411150	0.309180	2.633808	-0.002591	0.004957	0.005132	-0.261980	-0.067307	0.962723	0.357834	-0.933232	0.032130	0.896282	0.352913	0.268573
58728	9.381431	0.304310	2.562927	-0.000955	0.000653	0.006520	-0.261964	-0.067304	0.962728	0.357844	-0.933228	0.032130	0.896283	0.352923	0.268556
58729	9.420921	0.329635	2.628864	-0.000265	0.003547	0.006247	-0.261975	-0.067308	0.962725	0.357860	-0.933222	0.032135	0.896273	0.352939	0.268568
58730	9.378938	0.295790	2.640253	-0.004801	0.002676	0.006830	-0.261976	-0.067314	0.962724	0.357836	-0.933232	0.032122	0.896283	0.352912	0.268572
58731	9.388759	0.316739	2.635085	-0.002007	0.002292	0.006532	-0.261975	-0.067315	0.962724	0.357836	-0.933232	0.032120	0.896283	0.352912	0.268571
58732	9.437962	0.307878	2.581862	0.000202	0.004573	0.004834	-0.261999	-0.067310	0.962718	0.357852	-0.933225	0.032140	0.896269	0.352931	0.268591
58733	9.388576	0.315683	2.635862	-0.002592	0.004958	0.005131	-0.262027	-0.067308	0.962711	0.357843	-0.933228	0.032150	0.896265	0.352923	0.268616
58734	9.405738	0.295292	2.588257	-0.000957	0.000654	0.006520	-0.262010	-0.067304	0.962715	0.357853	-0.933224	0.032150	0.896266	0.352934	0.268599
58735	9.395889	0.331327	2.607050	-0.003283	0.002065	0.005404	-0.262009	-0.067297	0.962716	0.357838	-0.933230	0.032152	0.896272	0.352920	0.268596
58736	9.363745	0.319147	2.613099	-0.002836	0.005799	0.007684	-0.262034	-0.067322	0.962708	0.357834	-0.933232	0.032136	0.896266	0.352910	0.268629
58737	9.408099	0.298051	2.612751	-0.001648	-0.002239	0.006792	-0.261991	-0.067311	0.962720	0.357838	-0.933231	0.032131	0.896277	0.352916	0.268584
58738	9.390796	0.319626	2.560135	-0.001317	0.005187	0.006259	-0.262016	-0.067321	0.962713	0.357844	-0.933229	0.032133	0.896268	0.352920	0.268611
58739	9.420360	0.323172	2.631674	-0.004802	0.002679	0.006828	-0.262017	-0.067327	0.962712	0.357820	-0.933238	0.032120	0.896277	0.352893	0.268616
58740	9.375885	0.284508	2.619181	-0.002009	0.002294	0.006531	-0.262016	-0.067329	0.962712	0.357820	-0.933238	0.032118	0.896277	0.352893	0.268615
58741	9.417793	0.317016	2.608326	-0.003283	0.002067	0.005403	-0.262012	-0.067317	0.962714	0.357806	-0.933243	0.032124	0.896284	0.352881	0.268608
58742	9.385670	0.304947	2.614258	-0.000267	0.003548	0.006246	-0.262023	-0.067321	0.962711	0.357821	-0.933237	0.032129	0.896275	0.352896	0.268618
58743	9.393019	0.321260	2.585295	-0.000490	0.001682	0.005106	-0.262022	-0.067308	0.962712	0.357831	-0.933233	0.032144	0.896271	0.352911	0.268612
58744	9.407770	0.293637	2.614437	-0.002009	0.002295	0.006530	-0.262020	-0.067310	0.962712	0.357831	-0.933233	0.032142	0.896271	0.352910	0.268611
58745	9.397901	0.329732	2.633362	-0.002815	0.003094	0.003990	-0.262036	-0.067290	0.962709	0.357818	-0.933237	0.032163	0.896272	0.352903	0.268619
58746	9.390397	0.314766	2.562200	-0.002010	0.002295	0.006530	-0.262034	-0.067292	0.962710	0.357818	-0.933237	0.032160	0.896272	0.352902	0.268618
58747	9.387919	0.306849	2.639245	-0.002010	0.002295	0.006530	-0.262030	-0.067292	0.962711	0.357819	-0.933237	0.032159	0.896273	0.352903	0.268615
58748	9.385395	0.301382	2.615659	-0.002010	0.002296	0.006530	-0.262029	-0.067294	0.962711	0.357819	-0.933237	0.032157	0.896274	0.352902	0.268614
58749	9.439611	0.301982	2.609968	-0.002010	0.002296	0.006530	-0.262027	-0.067294	0.962712	0.357819	-0.933237	0.032157	0.896274	0.352903	0.268612
58750	9.382838	0.295337	2.592262	-0.000491	0.001682	0.005105	-0.262025	-0.067280	0.962713	0.357829	-0.933233	0.032172	0.896271	0.352917	0.268605
58751	9.419844	0.315817	2.634416	-0.002010	0.002296	0.006529	-0.262025	-0.067280	0.962713	0.357831	-0.933232	0.032173	0.896270	0.352919	0.268605
58752	9.414789	0.305718	2.587186	-0.003398	0.005761	0.002589	-0.262068	-0.067257	0.962703	0.357809	-0.933239	0.032204	0.896266	0.352903	0.268638
58753	9.395053	0.320087	2.611464	-0.001898	-0.001395	0.009341	-0.262020	-0.067272	0.962715	0.357816	-0.933238	0.032174	0.896277	0.352905	0.268598
58754	9.385126	0.297585	2.617061	0.001230	0.005645	0.008512	-0.262041	-0.067304	0.962707	0.357851	-0.933225	0.032161	0.896257	0.352933	0.268628
58755	9.394953	0.318646	2.611999	-0.001765	0.001456	0.003976	-0.262043	-0.067278	0.962708	0.357847	-0.933225	0.032187	0.896258	0.352937	0.268620
58756	9.417055	0.307869	2.612085	-0.004112	0.005577	0.006552	-0.262071	-0.067291	0.962700	0.357829	-0.933233	0.032178	0.896258	0.352915	0.268652
58757	9.404701	0.339070	2.607317	-0.003285	0.002070	0.005400	-0.262070	-0.067281	0.962701	0.357815	-0.933238	0.032184	0.896263	0.352903	0.268648
58758	9.394737	0.316773	2.613002	-0.003062	0.003938	0.006540	-0.262083	-0.067289	0.962697	0.357806	-0.933241	0.032178	0.896263	0.352892	0.268663
58759	9.394655	0.316078	2.613382	-0.003062	0.003938	0.006540	-0.262094	-0.067294	0.962693	0.357797	-0.933245	0.032175	0.896263	0.352882	0.268676
58760	9.416785	0.305115	2.613383	-0.002481	0.001272	0.007940	-0.262078	-0.067306	0.962697	0.357797	-0.933246	0.032158	0.896268	0.352877	0.268665
58761	9.406797	0.282854	2.619122	-0.002123	0.005990	0.003716	-0.262117	-0.067292	0.962687	0.357788	-0.933248	0.032183	0.896260	0.352874	0.268696
58762	9.401916	0.330997	2.585040	0.002637	-0.000528	0.008759	-0.262082	-0.067305	0.962696	0.357836	-0.933230	0.032171	0.896251	0.352918	0.268667
58763	9.394485	0.313501	2.614304	-0.004560	0.001845	0.004271	-0.262082	-0.067282	0.962697	0.357807	-0.933241	0.032185	0.896263	0.352895	0.268660
58764	9.433958	0.341310	2.579711	-0.002817	0.003097	0.003987	-0.262097	-0.067264	0.962695	0.357794	-0.933245	0.032205	0.896264	0.352887	0.268667
58765	9.404159	0.275803	2.596135	-0.002012	0.002299	0.006527	-0.262095	-0.067264	0.962695	0.357794	-0.933245	0.032204	0.896264	0.352887	0.268665
58766	9.394318	0.311780	2.615110	-0.003063	0.003940	0.006539	-0.262108	-0.067272	0.962691	0.357785	-0.933249	0.032198	0.896264	0.352876	0.268680
58767	9.416427	0.300880	2.615162	-0.002013	0.002299	0.006527	-0.262106	-0.067272	0.962692	0.357786	-0.933248	0.032198	0.896264	0.352877	0.268679
58768	9.372061	0.320547	2.615844	-0.001209	0.001501	0.009066	-0.262088	-0.067295	0.962695	0.357800	-0.933244	0.032173	0.896264	0.352885	0.268670
58769	9.391718	0.304945	2.591988	-0.005364	0.002645	0.001731	-0.262105	-0.067254	0.962693	0.357757	-0.933259	0.032206	0.896276	0.352852	0.268673
58770	9.416315	0.299075	2.615772	0.000781	0.001911	0.006231	-0.262101	-0.067252	0.962694	0.357782	-0.933249	0.032213	0.896267	0.352878	0.268667
58771	9.401567	0.325666	2.586985	-0.001767	0.001458	0.003975	-0.262103	-0.067226	0.962696	0.357779	-0.933250	0.032239	0.896268	0.352882	0.268659
58772	9.426140	0.319706	2.610867	-0.001320	0.005193	0.006254	-0.262128	-0.067236	0.962688	0.357785	-0.933247	0.032241	0.896259	0.352886	0.268686
58773	9.361857	0.296259	2.622539	-0.000270	0.003552	0.006242	-0.262137	-0.067240	0.962685	0.357799	-0.933242	0.032244	0.896250	0.352901	0.268696
58774	9.448156	0.308235	2.611315	-0.002014	0.002301	0.006525	-0.262135	-0.067242	0.962686	0.357800	-0.933242	0.032242	0.896250	0.352900	0.268695
58775	9.371668	0.316635	2.617728	-0.004338	0.003715	0.005409	-0.262150	-0.067239	0.962682	0.357776	-0.933250	0.032244	0.896255	0.352878	0.268709
58776	9.393789	0.305688	2.617726	-0.002485	0.001276	0.007936	-0.262135	-0.067251	0.962685	0.357776	-0.933251	0.032226	0.896260	0.352873	0.268698
58777	9.425810	0.316492	2.612451	-0.002123	0.005993	0.003714	-0.262175	-0.067239	0.962675	0.357767	-0.933254	0.032251	0.896251	0.352869	0.268732
58778	9.371486	0.314635	2.618621	-0.002956	0.000251	0.009347	-0.262145	-0.067260	0.962682	0.357767	-0.933255	0.032218	0.896261	0.352861	0.268712
58779	9.413475	0.346897	2.607885	-0.001320	0.005195	0.006253	-0.262168	-0.067270	0.962675	0.357772	-0.933253	0.032219	0.896252	0.352865	0.268737
58780	9.393524	0.302968	2.618995	-0.002015	0.002302	0.006524	-0.262167	-0.067272	0.962675	0.357772	-0.933253	0.032217	0.896252	0.352864	0.268736
58781	9.400916	0.319222	2.590155	-0.002594	0.004969	0.005125	-0.262191	-0.067270	0.962668	0.357762	-0.933257	0.032225	0.896249	0.352856	0.268758
58782	9.405779	0.328174	2.638132	-0.002015	0.002302	0.006524	-0.262190	-0.067272	0.962669	0.357762	-0.933257	0.032223	0.896249	0.352855	0.268757
58783	9.403249	0.322714	2.614620	-0.003065	0.003944	0.006535	-0.262203	-0.067282	0.962664	0.357753	-0.933260	0.032215	0.896249	0.352843	0.268774
58784	9.413138	0.343761	2.609518	-0.000495	0.001686	0.005101	-0.262201	-0.067268	0.962666	0.357763	-0.933256	0.032231	0.896246	0.352857	0.268767
58785	9.390688	0.295131	2.596853	-0.002371	0.006838	0.006263	-0.262239	-0.067284	0.962655	0.357759	-0.933258	0.032228	0.896236	0.352850	0.268808
58786	9.415423	0.347430	2.634136	-0.001768	0.001460	0.003973	-0.262239	-0.067260	0.962656	0.357755	-0.933259	0.032251	0.896238	0.352852	0.268799
58787	9.412713	0.283685	2.597231	-0.002264	0.003146	0.009074	-0.262234	-0.067287	0.962656	0.357759	-0.933258	0.032224	0.896238	0.352849	0.268804
58788	9.402908	0.319630	2.616226	-0.001545	0.003328	0.005112	-0.262247	-0.067279	0.962653	0.357760	-0.933257	0.032237	0.896234	0.352852	0.268813
58789	9.390411	0.292537	2.598146	-0.000519	0.004398	0.008790	-0.262259	-0.067308	0.962647	0.357781	-0.933250	0.032219	0.896222	0.352866	0.268835
58790	9.427388	0.312756	2.640480	-0.003290	0.002078	0.005394	-0.262259	-0.067299	0.962648	0.357766	-0.933255	0.032224	0.896227	0.352854	0.268832
58791	9.405170	0.322327	2.641020	-0.001793	0.004172	0.007662	-0.262266	-0.067316	0.962645	0.357771	-0.933254	0.032212	0.896223	0.352854	0.268845
58792	9.402637	0.316749	2.617547	-0.003538	0.002922	0.007944	-0.262265	-0.067333	0.962644	0.357761	-0.933258	0.032191	0.896228	0.352839	0.268850
58793	9.400118	0.311383	2.594001	-0.000024	0.002712	0.003689	-0.262275	-0.067312	0.962643	0.357771	-0.933254	0.032219	0.896221	0.352855	0.268852
58794	9.422265	0.300648	2.593846	0.000082	-0.000980	0.006500	-0.262244	-0.067302	0.962652	0.357789	-0.933246	0.032222	0.896222	0.352877	0.268819
58795	9.402547	0.315185	2.618059	-0.001074	0.004354	0.003701	-0.262271	-0.067285	0.962646	0.357791	-0.933244	0.032250	0.896214	0.352885	0.268837
58796	9.402493	0.314628	2.618321	-0.003762	0.001054	0.006804	-0.262257	-0.067285	0.962649	0.357777	-0.933250	0.032240	0.896224	0.352869	0.268825
58797	9.402470	0.313926	2.618488	-0.002017	0.002305	0.006522	-0.262253	-0.067289	0.962650	0.357776	-0.933251	0.032235	0.896225	0.352866	0.268822
58798	9.394905	0.296346	2.647978	-0.001794	0.004174	0.007661	-0.262264	-0.067308	0.962646	0.357781	-0.933250	0.032222	0.896220	0.352867	0.268839
58799	9.429558	0.314336	2.565799	-0.000969	0.000663	0.006510	-0.262246	-0.067303	0.962651	0.357790	-0.933246	0.032223	0.896221	0.352878	0.268821
58800	9.402354	0.311942	2.619143	-0.000497	0.001688	0.005099	-0.262244	-0.067289	0.962653	0.357800	-0.933241	0.032238	0.896218	0.352892	0.268813
58801	9.402298	0.311348	2.619413	-0.003067	0.003949	0.006532	-0.262259	-0.067296	0.962648	0.357792	-0.933245	0.032235	0.896217	0.352882	0.268830
58802	9.404660	0.315458	2.643667	-0.001322	0.005200	0.006250	-0.262284	-0.067305	0.962641	0.357798	-0.933242	0.032237	0.896207	0.352886	0.268856
58803	9.379976	0.320365	2.620418	0.000776	0.001914	0.006227	-0.262280	-0.067304	0.962642	0.357822	-0.933233	0.032244	0.896199	0.352912	0.268851
58804	9.421792	0.294407	2.596280	-0.003764	0.001056	0.006802	-0.262266	-0.067304	0.962646	0.357808	-0.933239	0.032234	0.896209	0.352896	0.268839
58805	9.382374	0.323766	2.644626	-0.003068	0.003950	0.006531	-0.262278	-0.067311	0.962642	0.357799	-0.933242	0.032230	0.896209	0.352885	0.268853
58806	9.426628	0.302591	2.644376	-0.002243	0.000438	0.005381	-0.262264	-0.067295	0.962647	0.357794	-0.933244	0.032238	0.896215	0.352884	0.268834
58807	9.387355	0.334607	2.592062	-0.003068	0.003950	0.006531	-0.262275	-0.067301	0.962643	0.357785	-0.933248	0.032234	0.896215	0.352873	0.268847
58808	9.399480	0.302003	2.597418	0.000303	0.000890	0.007637	-0.262257	-0.067308	0.962648	0.357809	-0.933239	0.032227	0.896211	0.352895	0.268832
58809	9.406823	0.315643	2.669082	-0.000274	0.003558	0.006238	-0.262270	-0.067314	0.962644	0.357824	-0.933233	0.032231	0.896201	0.352910	0.268845
58810	9.401846	0.305485	2.621725	-0.002019	0.002308	0.006519	-0.262268	-0.067316	0.962644	0.357824	-0.933233	0.032228	0.896202	0.352910	0.268844
58811	9.401834	0.304697	2.621859	-0.008306	0.000202	0.007376	-0.262243	-0.067318	0.962651	0.357770	-0.933254	0.032201	0.896230	0.352852	0.268824
58812	9.399332	0.299292	2.598268	-0.001074	0.004357	0.003699	-0.262270	-0.067301	0.962645	0.357771	-0.933253	0.032228	0.896222	0.352859	0.268843
58813	9.409232	0.320433	2.593289	-0.000274	0.003558	0.006237	-0.262282	-0.067306	0.962641	0.357787	-0.933247	0.032232	0.896212	0.352875	0.268855
58814	9.401645	0.302939	2.622741	-0.002020	0.002309	0.006519	-0.262281	-0.067308	0.962641	0.357787	-0.933247	0.032230	0.896213	0.352874	0.268855
58815	9.381900	0.317304	2.647091	-0.003069	0.003952	0.006529	-0.262292	-0.067318	0.962638	0.357777	-0.933251	0.032222	0.896213	0.352861	0.268869
58816	9.443623	0.334524	2.612494	-0.003069	0.003953	0.006529	-0.262305	-0.067326	0.962633	0.357768	-0.933255	0.032216	0.896213	0.352850	0.268885
58817	9.354723	0.316718	2.600283	-0.000972	0.000666	0.006507	-0.262287	-0.067321	0.962639	0.357777	-0.933251	0.032217	0.896215	0.352860	0.268866
58818	9.401400	0.300269	2.623926	-0.001323	0.005203	0.006247	-0.262312	-0.067331	0.962631	0.357783	-0.933249	0.032218	0.896205	0.352864	0.268893
58819	9.423420	0.289355	2.624192	-0.001323	0.005203	0.006247	-0.262338	-0.067341	0.962623	0.357788	-0.933247	0.032220	0.896195	0.352868	0.268920
58820	9.396352	0.289482	2.576923	-0.001670	-0.002227	0.006778	-0.262295	-0.067330	0.962636	0.357792	-0.933245	0.032216	0.896207	0.352873	0.268876
58821	9.401266	0.298394	2.624620	-0.001547	0.003334	0.005108	-0.262308	-0.067324	0.962633	0.357793	-0.933245	0.032227	0.896202	0.352877	0.268885
58822	9.386625	0.325048	2.595918	-0.000499	0.001690	0.005097	-0.262306	-0.067310	0.962634	0.357803	-0.933240	0.032242	0.896199	0.352891	0.268878
58823	9.379045	0.307605	2.625277	-0.002021	0.002311	0.006517	-0.262303	-0.067315	0.962635	0.357802	-0.933241	0.032236	0.896200	0.352888	0.268877
58824	9.430844	0.303223	2.595803	-0.000973	0.000667	0.006506	-0.262287	-0.067311	0.962640	0.357812	-0.933237	0.032236	0.896201	0.352899	0.268861
58825	9.386495	0.323105	2.596630	0.000173	0.007299	0.008513	-0.262319	-0.067349	0.962628	0.357835	-0.933229	0.032219	0.896182	0.352914	0.268903
58826	9.400981	0.295333	2.625986	-0.001772	0.001466	0.003968	-0.262319	-0.067324	0.962630	0.357831	-0.933230	0.032242	0.896184	0.352916	0.268894
58827	9.378776	0.305115	2.626527	-0.001324	0.005205	0.006246	-0.262344	-0.067333	0.962622	0.357837	-0.933227	0.032244	0.896174	0.352921	0.268921
58828	9.410876	0.315727	2.621192	-0.001448	-0.000356	0.007915	-0.262314	-0.067339	0.962630	0.357845	-0.933224	0.032230	0.896180	0.352927	0.268895
58829	9.400868	0.293473	2.626601	-0.000500	0.001691	0.005096	-0.262310	-0.067326	0.962632	0.357854	-0.933221	0.032244	0.896177	0.352940	0.268885
58830	9.388731	0.324780	2.621617	-0.003769	0.001063	0.006797	-0.262296	-0.067326	0.962636	0.357839	-0.933227	0.032234	0.896187	0.352924	0.268873
58831	9.410823	0.313844	2.621609	-0.001548	0.003336	0.005107	-0.262308	-0.067318	0.962633	0.357840	-0.933226	0.032246	0.896184	0.352927	0.268882
58832	9.378599	0.301894	2.627532	-0.001798	0.004182	0.007654	-0.262320	-0.067337	0.962629	0.357845	-0.933225	0.032234	0.896178	0.352927	0.268899
58833	9.410660	0.312468	2.622359	-0.003071	0.003957	0.006526	-0.262329	-0.067344	0.962626	0.357835	-0.933229	0.032228	0.896179	0.352915	0.268911
58834	9.383608	0.312557	2.575098	0.002618	-0.000526	0.008751	-0.262294	-0.067357	0.962634	0.357882	-0.933211	0.032216	0.896171	0.352960	0.268881
58835	9.413047	0.315754	2.646584	-0.004119	0.005603	0.006536	-0.262321	-0.067368	0.962626	0.357864	-0.933218	0.032210	0.896170	0.352939	0.268911
58836	9.385974	0.315892	2.599399	-0.003994	-0.000805	0.005657	-0.262294	-0.067351	0.962635	0.357844	-0.933226	0.032210	0.896186	0.352922	0.268881
58837	9.388409	0.320062	2.623349	-0.001548	0.003337	0.005106	-0.262306	-0.067344	0.962632	0.357845	-0.933225	0.032221	0.896182	0.352925	0.268889
58838	9.422581	0.277259	2.628509	-0.003296	0.002089	0.005386	-0.262306	-0.067335	0.962633	0.357830	-0.933230	0.032226	0.896188	0.352912	0.268887
58839	9.398349	0.340575	2.618458	-0.000501	0.001692	0.005095	-0.262305	-0.067323	0.962634	0.357840	-0.933226	0.032240	0.896185	0.352926	0.268880
58840	9.407955	0.303197	2.599985	-0.002274	0.003160	0.009062	-0.262301	-0.067352	0.962633	0.357844	-0.933225	0.032212	0.896184	0.352922	0.268888
58841	9.398211	0.339216	2.619129	-0.002122	0.006006	0.003707	-0.262341	-0.067342	0.962622	0.357835	-0.933228	0.032234	0.896176	0.352916	0.268922
58842	9.397805	0.280279	2.605902	-0.000879	-0.003022	0.009311	-0.262282	-0.067351	0.962638	0.357853	-0.933222	0.032208	0.896186	0.352930	0.268869
58843	9.388165	0.316320	2.624675	-0.001074	0.004361	0.003696	-0.262309	-0.067334	0.962632	0.357854	-0.933221	0.032235	0.896178	0.352937	0.268888
58844	9.417763	0.322360	2.595754	-0.001324	0.005208	0.006243	-0.262334	-0.067344	0.962624	0.357859	-0.933219	0.032237	0.896168	0.352941	0.268915
58845	9.400047	0.283316	2.630650	-0.001549	0.003338	0.005105	-0.262345	-0.067335	0.962622	0.357860	-0.933218	0.032250	0.896165	0.352945	0.268922
58846	9.387905	0.314659	2.625805	-0.002025	0.002315	0.006513	-0.262344	-0.067337	0.962622	0.357860	-0.933218	0.032248	0.896165	0.352944	0.268921
58847	9.432089	0.293407	2.625644	-0.001549	0.003339	0.005105	-0.262359	-0.067334	0.962618	0.357860	-0.933218	0.032256	0.896161	0.352946	0.268934
58848	9.419943	0.324909	2.620816	-0.000026	0.002717	0.003686	-0.262371	-0.067312	0.962617	0.357871	-0.933213	0.032286	0.896153	0.352963	0.268937
58849	9.387789	0.313070	2.626411	-0.004472	-0.001825	0.007064	-0.262330	-0.067303	0.962628	0.357850	-0.933221	0.032272	0.896173	0.352943	0.268897
58850	9.409927	0.302064	2.626206	0.000770	0.001918	0.006222	-0.262326	-0.067301	0.962630	0.357875	-0.933212	0.032280	0.896165	0.352968	0.268891
58851	9.387737	0.311878	2.626740	-0.003869	0.004761	0.003986	-0.262354	-0.067288	0.962623	0.357852	-0.933220	0.032296	0.896165	0.352949	0.268914
58852	9.407315	0.296269	2.603098	-0.000278	0.003564	0.006232	-0.262365	-0.067292	0.962620	0.357867	-0.933214	0.032301	0.896156	0.352964	0.268924
58853	9.387587	0.310751	2.627408	-0.003297	0.002092	0.005384	-0.262366	-0.067281	0.962620	0.357853	-0.933219	0.032309	0.896161	0.352953	0.268922
58854	9.429758	0.342992	2.616755	-0.002026	0.002317	0.006512	-0.262365	-0.067283	0.962620	0.357853	-0.933219	0.032306	0.896162	0.352953	0.268921
58855	9.412046	0.303878	2.651529	-0.004345	0.003738	0.005394	-0.262378	-0.067277	0.962617	0.357829	-0.933228	0.032309	0.896167	0.352930	0.268933
58856	9.387401	0.308751	2.628308	-0.000529	0.004412	0.008778	-0.262388	-0.067308	0.962612	0.357849	-0.933221	0.032289	0.896157	0.352942	0.268952
58857	9.392493	0.320289	2.575668	-0.000027	0.002717	0.003685	-0.262398	-0.067285	0.962611	0.357858	-0.933216	0.032318	0.896150	0.352959	0.268952
58858	9.397361	0.329110	2.623464	-0.002978	0.000272	0.009328	-0.262368	-0.067306	0.962618	0.357857	-0.933218	0.032286	0.896159	0.352951	0.268932
58859	9.417030	0.313343	2.599516	-0.001775	0.001470	0.003965	-0.262365	-0.067282	0.962620	0.357852	-0.933219	0.032307	0.896162	0.352952	0.268921
58860	9.384785	0.301518	2.605393	-0.004121	0.005610	0.006531	-0.262393	-0.067296	0.962612	0.357833	-0.933227	0.032298	0.896161	0.352929	0.268953
58861	9.419312	0.316775	2.624076	-0.000755	0.002542	0.007639	-0.262386	-0.067306	0.962613	0.357847	-0.933222	0.032290	0.896158	0.352940	0.268949
58862	9.384643	0.300162	2.606062	-0.001550	0.003341	0.005103	-0.262398	-0.067298	0.962610	0.357847	-0.933221	0.032302	0.896154	0.352943	0.268958
58863	9.419199	0.315550	2.624629	-0.002027	0.002319	0.006511	-0.262392	-0.067301	0.962611	0.357846	-0.933222	0.032297	0.896156	0.352941	0.268954
58864	9.416718	0.310152	2.601027	-0.002027	0.002319	0.006510	-0.262391	-0.067303	0.962612	0.357846	-0.933222	0.032295	0.896157	0.352941	0.268953
58865	9.394514	0.319898	2.601652	0.000422	0.006459	0.005961	-0.262428	-0.067311	0.962601	0.357867	-0.933214	0.032307	0.896138	0.352961	0.268989
58866	9.406536	0.287222	2.606925	-0.000887	-0.003019	0.009306	-0.262368	-0.067320	0.962617	0.357884	-0.933208	0.032281	0.896148	0.352975	0.268937
58867	9.396894	0.323241	2.625865	-0.003168	0.007658	0.003714	-0.262423	-0.067314	0.962602	0.357867	-0.933214	0.032302	0.896139	0.352960	0.268986
58868	9.396802	0.322743	2.626255	-0.002252	0.000449	0.005372	-0.262408	-0.067299	0.962607	0.357862	-0.933215	0.032310	0.896146	0.352959	0.268967
58869	9.399187	0.326915	2.650345	-0.002598	0.004989	0.005112	-0.262433	-0.067298	0.962600	0.357852	-0.933219	0.032317	0.896142	0.352950	0.268991
58870	9.428849	0.332851	2.621339	-0.003300	0.002096	0.005381	-0.262434	-0.067288	0.962601	0.357838	-0.933224	0.032322	0.896148	0.352937	0.268988
58871	9.384127	0.294715	2.608541	0.000767	0.001920	0.006220	-0.262426	-0.067285	0.962603	0.357861	-0.933215	0.032329	0.896141	0.352962	0.268979
58872	9.374462	0.330916	2.627569	-0.005141	0.004542	0.002854	-0.262458	-0.067261	0.962596	0.357823	-0.933229	0.032354	0.896146	0.352931	0.269001
58873	9.438314	0.294362	2.603303	0.000607	-0.000924	0.011571	-0.262405	-0.067300	0.962608	0.357859	-0.933217	0.032307	0.896148	0.352955	0.268965
58874	9.374412	0.329336	2.627949	-0.001327	0.005214	0.006239	-0.262431	-0.067310	0.962600	0.357864	-0.933215	0.032309	0.896138	0.352959	0.268992
58875	9.416071	0.303380	2.604166	-0.001074	0.004366	0.003693	-0.262454	-0.067292	0.962595	0.357864	-0.933214	0.032335	0.896131	0.352965	0.269007
58876	9.403954	0.334732	2.599473	-0.000533	0.004416	0.008775	-0.262463	-0.067322	0.962591	0.357884	-0.933207	0.032315	0.896121	0.352977	0.269026
58877	9.383744	0.290762	2.610361	-0.003778	0.001075	0.006787	-0.262445	-0.067324	0.962596	0.357866	-0.933214	0.032301	0.896133	0.352958	0.269010
58878	9.425987	0.322872	2.599705	-0.002029	0.002322	0.006508	-0.262443	-0.067326	0.962596	0.357866	-0.933214	0.032299	0.896133	0.352957	0.269010
58879	9.393807	0.311053	2.605276	-0.001208	-0.001196	0.005360	-0.262412	-0.067305	0.962606	0.357870	-0.933212	0.032308	0.896141	0.352966	0.268973
58880	9.393826	0.310381	2.605287	-0.002507	0.001300	0.007915	-0.262397	-0.067316	0.962609	0.357870	-0.933213	0.032291	0.896146	0.352962	0.268962
58881	9.418352	0.303954	2.629034	-0.003779	0.001077	0.006787	-0.262383	-0.067314	0.962613	0.357855	-0.933219	0.032283	0.896156	0.352946	0.268949
58882	9.393787	0.308786	2.605617	-0.002282	0.003171	0.009053	-0.262380	-0.067343	0.962612	0.357859	-0.933218	0.032256	0.896155	0.352943	0.268957
58883	9.428370	0.324051	2.624161	-0.001777	0.001474	0.003962	-0.262383	-0.067319	0.962613	0.357855	-0.933219	0.032279	0.896155	0.352946	0.268951
58884	9.418206	0.301941	2.629788	-0.001327	0.005216	0.006238	-0.262409	-0.067329	0.962605	0.357861	-0.933217	0.032281	0.896146	0.352950	0.268978
58885	9.381579	0.339001	2.601462	-0.001552	0.003345	0.005100	-0.262421	-0.067319	0.962602	0.357862	-0.933216	0.032294	0.896142	0.352953	0.268986
58886	9.393526	0.306477	2.606830	-0.003302	0.002100	0.005379	-0.262421	-0.067310	0.962603	0.357847	-0.933221	0.032299	0.896148	0.352941	0.268984
58887	9.405995	0.332139	2.625651	-0.003077	0.003971	0.006516	-0.262433	-0.067319	0.962599	0.357837	-0.933226	0.032292	0.896148	0.352928	0.268998
58888	9.417954	0.299575	2.630962	-0.003527	0.000229	0.004240	-0.262421	-0.067292	0.962604	0.357817	-0.933232	0.032308	0.896160	0.352915	0.268978
58889	9.455335	0.322211	2.572745	-0.003330	0.004821	0.009061	-0.262432	-0.067327	0.962599	0.357812	-0.933235	0.032277	0.896158	0.352900	0.269002
58890	9.314122	0.305818	2.690640	-0.004826	0.002727	0.006794	-0.262434	-0.067333	0.962598	0.357788	-0.933245	0.032264	0.896168	0.352873	0.269006
58891	9.428262	0.321529	2.525919	0.000511	0.002771	0.008763	-0.262428	-0.067358	0.962598	0.357817	-0.933235	0.032247	0.896158	0.352896	0.269008
58892	9.408183	0.333128	2.650824	-0.000760	0.002548	0.007634	-0.262424	-0.067371	0.962598	0.357831	-0.933230	0.032237	0.896153	0.352907	0.269009
58893	9.403279	0.323001	2.603395	-0.002031	0.002325	0.006506	-0.262422	-0.067373	0.962598	0.357831	-0.933230	0.032234	0.896154	0.352906	0.269008
58894	9.393131	0.300754	2.608919	-0.002031	0.002325	0.006505	-0.262421	-0.067375	0.962599	0.357831	-0.933230	0.032232	0.896154	0.352906	0.269008
58895	9.412741	0.284859	2.585155	-0.002285	0.003175	0.009050	-0.262418	-0.067404	0.962597	0.357835	-0.933229	0.032204	0.896153	0.352902	0.269015
58896	9.415145	0.288832	2.609164	-0.002257	0.000454	0.005367	-0.262403	-0.067388	0.962602	0.357830	-0.933231	0.032212	0.896160	0.352901	0.268997
58897	9.393014	0.298530	2.609594	-0.000536	0.004420	0.008771	-0.262412	-0.067419	0.962598	0.357849	-0.933224	0.032191	0.896149	0.352912	0.269015
58898	9.403072	0.319482	2.604579	-0.001778	0.001476	0.003960	-0.262412	-0.067394	0.962599	0.357845	-0.933225	0.032214	0.896151	0.352915	0.269006
58899	9.422697	0.303902	2.580718	-0.004574	0.001880	0.004248	-0.262415	-0.067373	0.962600	0.357816	-0.933236	0.032226	0.896162	0.352891	0.269002
58900	9.402987	0.318457	2.605011	-0.000282	0.003571	0.006226	-0.262425	-0.067377	0.962597	0.357831	-0.933230	0.032231	0.896153	0.352905	0.269013
58901	9.392779	0.296358	2.610689	0.000197	0.004593	0.004820	-0.262450	-0.067371	0.962591	0.357847	-0.933223	0.032251	0.896139	0.352924	0.269033
58902	9.425516	0.365258	2.618888	-0.000987	0.000678	0.006495	-0.262434	-0.067368	0.962596	0.357856	-0.933220	0.032251	0.896140	0.352934	0.269016
58903	9.403395	0.374999	2.619309	-0.003078	0.003976	0.006513	-0.262447	-0.067375	0.962591	0.357846	-0.933224	0.032246	0.896140	0.352923	0.269031
58904	9.393169	0.352679	2.625074	-0.002853	0.005847	0.007651	-0.262473	-0.067401	0.962583	0.357842	-0.933226	0.032230	0.896135	0.352912	0.269065
58905	9.390720	0.347236	2.601420	-0.001692	-0.002215	0.006763	-0.262429	-0.067389	0.962595	0.357846	-0.933225	0.032226	0.896146	0.352917	0.269020
58906	9.402718	0.314237	2.606492	-0.000705	0.001580	0.014117	-0.262394	-0.067459	0.962600	0.357877	-0.933215	0.032153	0.896144	0.352930	0.269012
58907	9.401458	0.196231	2.579925	0.005083	0.005366	0.018360	-0.262377	-0.067583	0.962596	0.357972	-0.933182	0.032056	0.896111	0.352993	0.269038
58908	9.402586	0.082577	2.577218	0.013046	0.002163	0.025388	-0.262306	-0.067760	0.962603	0.358157	-0.933116	0.031912	0.896058	0.353133	0.269031
58909	9.449780	0.122204	2.614265	0.031649	0.001769	0.040031	-0.262179	-0.068073	0.962615	0.358546	-0.932974	0.031677	0.895939	0.353447	0.269014
58910	9.402533	0.076862	2.577586	0.049935	0.003204	0.050723	-0.262027	-0.068491	0.962627	0.359128	-0.932760	0.031389	0.895751	0.353931	0.269005
58911	9.403206	0.131327	2.591164	0.064708	0.002168	0.061959	-0.261825	-0.069009	0.962645	0.359871	-0.932486	0.031032	0.895512	0.354553	0.268982
58912	9.424573	0.058154	2.577712	0.076929	0.000700	0.070928	-0.261576	-0.069606	0.962670	0.360746	-0.932161	0.030622	0.895232	0.355289	0.268942
58913	9.404172	0.009995	2.588552	0.090860	0.003226	0.083276	-0.261305	-0.070327	0.962691	0.361778	-0.931777	0.030130	0.894894	0.356154	0.268921
58914	9.414366	0.025977	2.583270	0.101812	-0.001161	0.087415	-0.260979	-0.071070	0.962725	0.362919	-0.931350	0.029628	0.894528	0.357123	0.268856
58915	9.413449	-0.038026	2.570280	0.116378	0.005248	0.092970	-0.260689	-0.071888	0.962743	0.364203	-0.930864	0.029111	0.894090	0.358223	0.268848
58916	9.404047	-0.007303	2.589016	0.129650	-0.001458	0.104672	-0.260296	-0.072790	0.962781	0.365636	-0.930321	0.028517	0.893620	0.359450	0.268773
58917	9.404026	-0.013906	2.589064	0.148794	0.002165	0.112404	-0.259905	-0.073776	0.962812	0.367258	-0.929700	0.027900	0.893068	0.360852	0.268728
58918	9.350756	0.037365	2.607776	0.161163	-0.000013	0.118715	-0.259469	-0.074812	0.962849	0.369007	-0.929027	0.027256	0.892474	0.362370	0.268660
58919	9.415610	-0.059929	2.594646	0.176528	-0.000684	0.125832	-0.258999	-0.075912	0.962890	0.370909	-0.928289	0.026584	0.891822	0.364030	0.268582
58920	9.400272	-0.098822	2.552589	0.181527	-0.003222	0.132972	-0.258478	-0.077067	0.962938	0.372873	-0.927522	0.025856	0.891154	0.365737	0.268480
58921	9.398744	-0.276971	2.538646	0.198541	0.001073	0.136922	-0.257977	-0.078273	0.962975	0.374996	-0.926686	0.025136	0.890408	0.367596	0.268416
58922	9.415408	-0.083203	2.594736	0.206282	-0.001805	0.143722	-0.257423	-0.079531	0.963020	0.377204	-0.925810	0.024371	0.889635	0.369528	0.268324
58923	9.368959	-0.074853	2.571088	0.220494	0.000187	0.144257	-0.256880	-0.080800	0.963060	0.379536	-0.924875	0.023639	0.888800	0.371589	0.268249
58924	9.435565	-0.168639	2.582695	0.235779	-0.003949	0.154045	-0.256261	-0.082142	0.963111	0.382028	-0.923868	0.022853	0.887911	0.373791	0.268132
58925	9.353628	-0.011387	2.630419	0.246927	-0.003372	0.153699	-0.255645	-0.083482	0.963160	0.384614	-0.922813	0.022100	0.886971	0.376094	0.268021
58926	9.406284	-0.078334	2.612415	0.260611	-0.005912	0.158372	-0.254984	-0.084854	0.963215	0.387330	-0.921694	0.021339	0.885979	0.378523	0.267884
58927	9.346926	-0.096538	2.570465	0.268683	-0.003965	0.160786	-0.254326	-0.086253	0.963264	0.390119	-0.920534	0.020575	0.884943	0.381021	0.267765
58928	9.439350	-0.137256	2.618137	0.301942	-0.007370	0.164343	-0.253621	-0.087670	0.963323	0.393208	-0.919235	0.019865	0.883778	0.383825	0.267610
58929	9.414962	-0.139809	2.593923	0.291372	-0.009633	0.170573	-0.252866	-0.089133	0.963387	0.396215	-0.917960	0.019067	0.882651	0.386530	0.267436
58930	9.393566	0.081884	2.667973	0.297391	-0.010725	0.172115	-0.252090	-0.090604	0.963453	0.399274	-0.916649	0.018269	0.881493	0.389288	0.267254
58931	9.388031	-0.156426	2.545482	0.318192	-0.008258	0.166386	-0.251354	-0.092029	0.963510	0.402497	-0.915252	0.017581	0.880237	0.392230	0.267094
58932	9.434738	-0.235377	2.481468	0.319638	-0.007275	0.172103	-0.250599	-0.093507	0.963564	0.405742	-0.913832	0.016842	0.878961	0.395180	0.266945
58933	9.424471	-0.372503	2.412907	0.321096	-0.008373	0.167782	-0.249846	-0.094940	0.963620	0.408984	-0.912399	0.016147	0.877673	0.398140	0.266788
58934	9.383303	-0.405507	2.449186	0.337324	-0.011018	0.171897	-0.249048	-0.096396	0.963682	0.412373	-0.910884	0.015456	0.876313	0.401245	0.266605
58935	9.399028	-0.274718	2.463591	0.333749	-0.013894	0.169630	-0.248229	-0.097818	0.963750	0.415718	-0.909373	0.014776	0.874963	0.404316	0.266397
58936	9.401234	-0.435322	2.527024	0.327923	-0.012549	0.169845	-0.247415	-0.099243	0.963814	0.419008	-0.907873	0.014078	0.873624	0.407328	0.266205
58937	9.368992	-0.132206	2.552481	0.327852	-0.013668	0.173362	-0.246571	-0.100694	0.963879	0.422300	-0.906358	0.013344	0.872276	0.410336	0.266005
58938	9.328544	0.001904	2.747397	0.362236	-0.023842	0.174405	-0.245630	-0.102108	0.963971	0.425887	-0.904687	0.012692	0.870796	0.413661	0.265705
58939	9.384346	0.095937	2.611325	0.395083	-0.016112	0.168768	-0.244773	-0.103501	0.964040	0.429740	-0.902871	0.012179	0.869143	0.417268	0.265477
58940	9.467168	-0.176503	2.544236	0.401885	-0.018510	0.170062	-0.243884	-0.104890	0.964115	0.433647	-0.901007	0.011672	0.867451	0.420932	0.265227
58941	9.316678	-0.369539	2.433194	0.399942	-0.020629	0.173777	-0.242955	-0.106301	0.964196	0.437537	-0.899131	0.011121	0.865756	0.424574	0.264959
58942	9.409564	-0.303681	2.452730	0.378366	-0.023220	0.171367	-0.242008	-0.107675	0.964281	0.441227	-0.897334	0.010536	0.864147	0.428017	0.264671
58943	9.356637	-0.197319	2.528330	0.386190	-0.023759	0.169810	-0.241057	-0.109029	0.964367	0.444973	-0.895488	0.009985	0.862491	0.431525	0.264378
58944	9.405775	-0.003039	2.592184	0.425573	-0.022882	0.163627	-0.240135	-0.110327	0.964450	0.449035	-0.893462	0.009597	0.860641	0.435377	0.264093
58945	9.398237	-0.178367	2.588898	0.414895	-0.027600	0.166295	-0.239155	-0.111624	0.964544	0.453003	-0.891462	0.009153	0.858833	0.439130	0.263764
58946	9.383735	0.044723	2.547939	0.417236	-0.023749	0.162410	-0.238221	-0.112900	0.964627	0.456972	-0.889438	0.008752	0.856988	0.442892	0.263474
58947	9.426094	-0.192572	2.532495	0.428381	-0.028668	0.165805	-0.237222	-0.114179	0.964722	0.461035	-0.887343	0.008346	0.855086	0.446750	0.263138
58948	9.348600	-0.032110	2.541594	0.462286	-0.031834	0.166890	-0.236185	-0.115449	0.964825	0.465380	-0.885075	0.008017	0.853017	0.450904	0.262769
58949	9.351299	-0.194348	2.432880	0.464749	-0.032359	0.163328	-0.235154	-0.116680	0.964929	0.469726	-0.882778	0.007726	0.850917	0.455069	0.262397
58950	9.446342	-0.442913	2.314977	0.462998	-0.034784	0.158076	-0.234122	-0.117849	0.965038	0.474034	-0.880475	0.007480	0.848810	0.459212	0.262003
58951	9.369323	-0.493815	2.234711	0.425946	-0.035655	0.160557	-0.233064	-0.119031	0.965149	0.478022	-0.878319	0.007111	0.846862	0.463020	0.261604
58952	9.371284	-0.525136	2.473568	0.404730	-0.039887	0.162430	-0.231957	-0.120204	0.965270	0.481826	-0.876242	0.006666	0.845009	0.466638	0.261168
58953	9.391460	-0.028778	2.565031	0.417630	-0.040050	0.162428	-0.230843	-0.121373	0.965391	0.485728	-0.874087	0.006253	0.843077	0.470361	0.260731
58954	9.295964	0.005150	2.664798	0.470098	-0.044299	0.156695	-0.229716	-0.122465	0.965522	0.490049	-0.871674	0.006030	0.840882	0.474539	0.260251
58955	9.517439	-0.230977	2.399261	0.451435	-0.043943	0.151271	-0.228612	-0.123507	0.965651	0.494189	-0.869335	0.005808	0.838757	0.478542	0.259777
58956	9.320474	-0.065563	2.598354	0.498773	-0.047083	0.157389	-0.227448	-0.124581	0.965788	0.498728	-0.866740	0.005648	0.836384	0.482950	0.259270
58957	9.305163	0.087404	2.439071	0.502673	-0.045223	0.155718	-0.226300	-0.125644	0.965920	0.503281	-0.864105	0.005511	0.833964	0.487377	0.258782
58958	9.500914	-0.164307	2.469590	0.503919	-0.053921	0.154577	-0.225082	-0.126648	0.966074	0.507829	-0.861441	0.005386	0.831534	0.491812	0.258210
58959	9.245814	-0.186915	2.350257	0.481123	-0.052473	0.150997	-0.223887	-0.127622	0.966223	0.512165	-0.858871	0.005233	0.829193	0.496037	0.257654
58960	9.483918	-0.368974	2.326448	0.483473	-0.056406	0.150394	-0.222659	-0.128566	0.966382	0.516506	-0.856268	0.005089	0.826828	0.500275	0.257061
58961	9.333551	-0.226721	2.447471	0.465328	-0.055860	0.156428	-0.221399	-0.129557	0.966539	0.520698	-0.853727	0.004837	0.824534	0.504346	0.256474
58962	9.412004	0.055194	2.431810	0.493664	-0.058588	0.148750	-0.220151	-0.130463	0.966702	0.525093	-0.851032	0.004729	0.822077	0.508650	0.255861
58963	9.503332	-0.128036	2.481950	0.519242	-0.057949	0.151085	-0.218892	-0.131386	0.966863	0.529689	-0.848179	0.004660	0.819461	0.513156	0.255253
58964	9.292891	-0.009109	2.460677	0.517097	-0.062617	0.151282	-0.217588	-0.132279	0.967036	0.534252	-0.845313	0.004581	0.816842	0.517637	0.254600
58965	9.292093	-0.061317	2.474891	0.497518	-0.064157	0.149041	-0.216279	-0.133138	0.967211	0.538635	-0.842527	0.004469	0.814307	0.521941	0.253934
58966	9.440197	0.151825	2.522255	0.498192	-0.065957	0.145873	-0.214968	-0.133954	0.967391	0.543002	-0.839720	0.004387	0.811749	0.526239	0.253251
58967	9.398970	-0.199348	2.316552	0.516556	-0.068846	0.146030	-0.213628	-0.134750	0.967577	0.547504	-0.836792	0.004345	0.809075	0.530681	0.252538
58968	9.397435	-0.051700	2.357307	0.513605	-0.068631	0.143166	-0.212302	-0.135515	0.967762	0.551960	-0.833859	0.004321	0.806392	0.535083	0.251829
58969	9.490898	-0.124305	2.446251	0.531914	-0.079158	0.146953	-0.210865	-0.136249	0.967973	0.556555	-0.830799	0.004300	0.803606	0.539637	0.251016
58970	9.317783	-0.314735	2.224658	0.525722	-0.071749	0.148589	-0.209475	-0.137027	0.968165	0.561088	-0.827746	0.004245	0.800813	0.544115	0.250276
58971	9.480232	-0.023665	2.311378	0.538474	-0.080197	0.149222	-0.208008	-0.137757	0.968378	0.565706	-0.824596	0.004210	0.797941	0.548693	0.249453
58972	9.375173	0.045624	2.370690	0.540485	-0.075026	0.147105	-0.206592	-0.138490	0.968577	0.570318	-0.821413	0.004197	0.795020	0.553264	0.248680
58973	9.403443	0.202318	2.451790	0.546566	-0.078662	0.146905	-0.205142	-0.139193	0.968784	0.574961	-0.818170	0.004196	0.792046	0.557873	0.247872
58974	9.450375	-0.194759	2.234218	0.549113	-0.080319	0.140700	-0.203712	-0.139828	0.968994	0.579592	-0.814896	0.004257	0.789034	0.562488	0.247047
58975	9.432491	-0.123197	2.278956	0.544465	-0.085731	0.145408	-0.202208	-0.140462	0.969217	0.584177	-0.811615	0.004255	0.786034	0.567055	0.246170
58976	9.383902	-0.108551	2.299470	0.545542	-0.086605	0.146971	-0.200684	-0.141095	0.969442	0.588756	-0.808300	0.004236	0.783002	0.571615	0.245284
58977	9.450404	-0.310244	2.183384	0.529480	-0.089077	0.147164	-0.199136	-0.141707	0.969672	0.593191	-0.805051	0.004170	0.780044	0.576031	0.244374
58978	9.491243	-0.095077	2.204776	0.554239	-0.088687	0.143764	-0.197608	-0.142285	0.969900	0.597794	-0.801639	0.004194	0.776913	0.580629	0.243468
58979	9.318405	-0.083316	2.301575	0.548385	-0.094476	0.147595	-0.196008	-0.142852	0.970141	0.602339	-0.798230	0.004159	0.773801	0.585169	0.242505
58980	9.428447	0.054610	2.317398	0.528039	-0.097998	0.142629	-0.194408	-0.143349	0.970390	0.606698	-0.794921	0.004118	0.770793	0.589535	0.241509
58981	9.352231	-0.256082	2.142518	0.549773	-0.099126	0.145062	-0.192781	-0.143849	0.970640	0.611211	-0.791457	0.004100	0.767630	0.594056	0.240501
58982	9.533119	-0.172727	2.254044	0.535197	-0.102458	0.144022	-0.191133	-0.144312	0.970898	0.615590	-0.788056	0.004052	0.764537	0.598450	0.239461
58983	9.394324	0.266565	2.270679	0.570261	-0.098751	0.143870	-0.189510	-0.144787	0.971145	0.620218	-0.784419	0.004082	0.761194	0.603095	0.238455
58984	9.484459	-0.197575	2.091380	0.586008	-0.103049	0.145398	-0.187843	-0.145237	0.971402	0.624945	-0.780657	0.004129	0.757732	0.607849	0.237407
58985	9.465104	0.070952	2.169767	0.587413	-0.106051	0.148449	-0.186131	-0.145683	0.971664	0.629667	-0.776854	0.004143	0.754238	0.612596	0.236329
58986	9.362221	0.200472	2.249846	0.593183	-0.108370	0.144054	-0.184426	-0.146070	0.971931	0.634400	-0.772993	0.004207	0.750682	0.617369	0.235227
58987	9.413740	-0.044996	2.275154	0.575472	-0.112060	0.145125	-0.182684	-0.146432	0.972206	0.638980	-0.769212	0.004211	0.747216	0.621989	0.234090
58988	9.392192	-0.114053	2.137576	0.581559	-0.112100	0.147854	-0.180923	-0.146804	0.972479	0.643587	-0.765361	0.004197	0.743682	0.626634	0.232952
58989	9.571342	-0.055901	2.145621	0.574004	-0.119237	0.146184	-0.179116	-0.147108	0.972768	0.648112	-0.761533	0.004173	0.740181	0.631210	0.231745
58990	9.414507	-0.212951	2.194490	0.555125	-0.119160	0.145686	-0.177311	-0.147397	0.973054	0.652475	-0.757800	0.004105	0.736775	0.635621	0.230539
58991	9.447063	0.181624	2.240524	0.589382	-0.127589	0.151291	-0.175406	-0.147664	0.973359	0.657076	-0.753813	0.004051	0.733133	0.640282	0.229250
58992	9.416955	0.031893	2.033352	0.586437	-0.127023	0.154632	-0.173481	-0.147948	0.973661	0.661638	-0.749813	0.003952	0.729479	0.644897	0.227966
58993	9.457375	-0.096168	2.028545	0.557395	-0.127765	0.141521	-0.171635	-0.148118	0.973962	0.665942	-0.745993	0.003905	0.725991	0.649273	0.226677
58994	9.451890	-0.103253	2.050122	0.591366	-0.130323	0.148301	-0.169725	-0.148310	0.974268	0.670481	-0.741917	0.003863	0.722253	0.653884	0.225361
58995	9.565221	-0.128937	1.971741	0.573247	-0.130918	0.144112	-0.167836	-0.148456	0.974573	0.674857	-0.737938	0.003811	0.718609	0.658337	0.224039
58996	9.437609	0.033528	2.148863	0.577448	-0.130711	0.149704	-0.165911	-0.148632	0.974875	0.679250	-0.733898	0.003707	0.714908	0.662799	0.222720
58997	9.463830	0.133355	2.011991	0.620119	-0.132567	0.151353	-0.163959	-0.148797	0.975180	0.683924	-0.729544	0.003673	0.710891	0.667551	0.221381
58998	9.504177	0.059988	2.033919	0.600986	-0.138889	0.151297	-0.161962	-0.148906	0.975497	0.688435	-0.725289	0.003589	0.706984	0.672148	0.219981
58999	9.339363	0.222278	2.072327	0.584285	-0.136106	0.144853	-0.160028	-0.148975	0.975806	0.692791	-0.721130	0.003521	0.703158	0.676593	0.218609
59000	9.401382	-0.123343	1.997399	0.608441	-0.142483	0.144272	-0.158053	-0.148983	0.976127	0.697290	-0.716780	0.003504	0.699146	0.681198	0.217174
59001	9.642592	0.013530	2.107382	0.589553	-0.145425	0.147432	-0.156034	-0.148982	0.976452	0.701636	-0.712527	0.003405	0.695241	0.685645	0.215710
59002	9.523663	-0.119690	1.821001	0.575348	-0.149755	0.151095	-0.153959	-0.148965	0.976783	0.705863	-0.708341	0.003231	0.691414	0.689973	0.214205
59003	9.481764	-0.175107	1.881458	0.617006	-0.149774	0.151979	-0.151878	-0.148941	0.977113	0.710353	-0.703839	0.003128	0.687264	0.694570	0.212698
59004	9.468482	-0.152391	1.884747	0.581845	-0.149879	0.152504	-0.149792	-0.148906	0.977440	0.714574	-0.699554	0.002936	0.683335	0.698893	0.211192
59005	9.487048	0.266556	1.944110	0.589573	-0.153982	0.142737	-0.147748	-0.148762	0.977773	0.718807	-0.695203	0.002845	0.679328	0.703251	0.209646
59006	9.468953	-0.171377	1.837624	0.601992	-0.158055	0.145754	-0.145655	-0.148597	0.978112	0.723102	-0.690735	0.002743	0.675209	0.707675	0.208060
59007	9.538356	0.077126	1.997118	0.582536	-0.156674	0.145796	-0.143572	-0.148429	0.978446	0.727239	-0.686379	0.002588	0.671201	0.711935	0.206488
59008	9.557063	0.011089	1.839502	0.569483	-0.159014	0.152808	-0.141423	-0.148279	0.978781	0.731272	-0.682082	0.002329	0.667264	0.716085	0.204895
59009	9.518653	-0.120963	1.772824	0.608404	-0.159213	0.147482	-0.139311	-0.148079	0.979114	0.735530	-0.677489	0.002191	0.663014	0.720473	0.203298
59010	9.398139	0.020225	1.809368	0.589439	-0.165752	0.148243	-0.137153	-0.147823	0.979458	0.739635	-0.673005	0.001998	0.658885	0.724715	0.201639
59011	9.549300	0.447388	1.967153	0.605769	-0.166646	0.147949	-0.134990	-0.147545	0.979800	0.743819	-0.668379	0.001829	0.654607	0.729041	0.199971
59012	9.600487	-0.154481	1.724694	0.594284	-0.173471	0.142924	-0.132824	-0.147170	0.980153	0.747893	-0.663818	0.001677	0.650396	0.733272	0.198238
59013	9.530312	0.004147	1.857530	0.599935	-0.169449	0.145619	-0.130663	-0.146828	0.980494	0.751978	-0.659187	0.001498	0.646109	0.737506	0.196543
59014	9.618749	-0.076976	1.751315	0.574763	-0.171779	0.146078	-0.128488	-0.146459	0.980837	0.755873	-0.654717	0.001255	0.641986	0.741550	0.194827
59015	9.489664	-0.061498	1.725924	0.607159	-0.173722	0.150240	-0.126269	-0.146089	0.981180	0.759954	-0.649976	0.001023	0.637594	0.745781	0.193092
59016	9.406159	0.127084	1.870209	0.595062	-0.179749	0.149216	-0.124022	-0.145652	0.981531	0.763926	-0.645303	0.000768	0.633273	0.749913	0.191299
59017	9.586762	0.332628	1.766059	0.598051	-0.180471	0.147462	-0.121785	-0.145186	0.981881	0.767886	-0.640586	0.000523	0.628903	0.754036	0.189500
59018	9.615182	-0.250934	1.558706	0.593762	-0.184780	0.141140	-0.119574	-0.144631	0.982234	0.771783	-0.635886	0.000322	0.624543	0.758110	0.187659
59019	9.463335	-0.093211	1.651443	0.585783	-0.182760	0.141975	-0.117371	-0.144084	0.982580	0.775601	-0.631223	0.000085	0.620215	0.762101	0.185839
59020	9.681239	-0.084960	1.623702	0.569106	-0.189419	0.150550	-0.115063	-0.143526	0.982935	0.779299	-0.626652	-0.000277	0.615998	0.765968	0.183954
59021	9.520606	-0.087104	1.556456	0.602822	-0.187843	0.151561	-0.112759	-0.142973	0.983282	0.783176	-0.621800	-0.000600	0.611490	0.770016	0.182087
59022	9.534813	-0.061947	1.575506	0.580909	-0.191568	0.148077	-0.110464	-0.142354	0.983633	0.786886	-0.617098	-0.000939	0.607131	0.773903	0.180184
59023	9.543992	0.421995	1.736380	0.610325	-0.193327	0.142125	-0.108208	-0.141671	0.983982	0.790738	-0.612154	-0.001179	0.602516	0.777944	0.178264
59024	9.616107	-0.137211	1.538735	0.611510	-0.193665	0.143342	-0.105944	-0.140977	0.984328	0.794566	-0.607176	-0.001441	0.597863	0.781961	0.176343
59025	9.538513	-0.081807	1.661284	0.580833	-0.197133	0.141495	-0.103678	-0.140232	0.984676	0.798179	-0.602417	-0.001751	0.593431	0.785766	0.174387
59026	9.653277	0.013049	1.552743	0.574977	-0.203316	0.152012	-0.101296	-0.139486	0.985029	0.801740	-0.597669	-0.002187	0.589027	0.789516	0.172373
59027	9.583339	0.032769	1.536080	0.606609	-0.199181	0.141975	-0.099021	-0.138699	0.985372	0.805446	-0.592664	-0.002482	0.584339	0.793418	0.170401
59028	9.442646	-0.106245	1.516717	0.600998	-0.204214	0.146866	-0.096684	-0.137885	0.985718	0.809093	-0.587674	-0.002846	0.579673	0.797262	0.168381
59029	9.636487	0.316031	1.589939	0.596281	-0.210873	0.140273	-0.094365	-0.136966	0.986071	0.812675	-0.582709	-0.003168	0.575026	0.801056	0.166296
59030	9.732286	-0.065804	1.401711	0.598483	-0.210149	0.138251	-0.092073	-0.136025	0.986418	0.816236	-0.577708	-0.003477	0.570334	0.804830	0.164220
59031	9.483231	-0.156812	1.344876	0.580990	-0.210509	0.141971	-0.089752	-0.135089	0.986760	0.819671	-0.572822	-0.003866	0.565760	0.808472	0.162140
59032	9.702974	-0.177683	1.364450	0.573980	-0.210060	0.143238	-0.087430	-0.134149	0.987097	0.823038	-0.567971	-0.004290	0.561217	0.812043	0.160067
59033	9.517048	-0.084210	1.286290	0.602643	-0.209130	0.142459	-0.085123	-0.133198	0.987427	0.826534	-0.562868	-0.004674	0.556414	0.815744	0.158005
59034	9.588134	-0.277308	1.349246	0.577188	-0.222109	0.146542	-0.082717	-0.132148	0.987773	0.829861	-0.557947	-0.005151	0.551805	0.819287	0.155817
59035	9.640880	0.278224	1.506909	0.585328	-0.219463	0.141820	-0.080370	-0.131080	0.988109	0.833198	-0.552947	-0.005583	0.547103	0.822841	0.153656
59036	9.751426	0.060907	1.331582	0.608219	-0.225310	0.137116	-0.078037	-0.129922	0.988448	0.836625	-0.547744	-0.005945	0.542189	0.826497	0.151441
59037	9.575671	-0.097148	1.281243	0.587241	-0.223506	0.137749	-0.075714	-0.128769	0.988780	0.839906	-0.542694	-0.006360	0.537424	0.830001	0.149244
59038	9.537313	-0.198883	1.301201	0.569544	-0.221931	0.140013	-0.073389	-0.127626	0.989104	0.843064	-0.537769	-0.006836	0.532782	0.833376	0.147063
59039	9.479996	0.017880	1.259903	0.592542	-0.230575	0.142638	-0.071000	-0.126410	0.989434	0.846316	-0.532632	-0.007319	0.527929	0.836854	0.144800
59040	9.708449	-0.218945	1.162867	0.582283	-0.235679	0.141794	-0.068600	-0.125132	0.989766	0.849481	-0.527562	-0.007821	0.523141	0.840250	0.142488
59041	9.564440	0.235046	1.494239	0.563731	-0.231605	0.134482	-0.066288	-0.123836	0.990086	0.852513	-0.522640	-0.008292	0.518486	0.843512	0.140217
59042	9.793416	0.111554	1.204295	0.585707	-0.232722	0.133548	-0.063988	-0.122511	0.990402	0.855629	-0.517516	-0.008735	0.513620	0.846858	0.137939
59043	9.558124	-0.091599	1.159129	0.579565	-0.232070	0.137277	-0.061665	-0.121197	0.990711	0.858684	-0.512423	-0.009239	0.508783	0.850138	0.135668
59044	9.627757	-0.289702	1.089382	0.572608	-0.239028	0.136002	-0.059327	-0.119802	0.991024	0.861672	-0.507372	-0.009752	0.503986	0.853358	0.133331
59045	9.509990	-0.103904	1.213107	0.582799	-0.242280	0.142776	-0.056920	-0.118399	0.991333	0.864684	-0.502210	-0.010333	0.499081	0.856602	0.130964
59046	9.702561	-0.181205	0.840003	0.592850	-0.246255	0.137884	-0.054545	-0.116923	0.991642	0.867711	-0.496951	-0.010866	0.494068	0.859866	0.128562
59047	9.701455	0.069917	1.371907	0.552514	-0.244035	0.130670	-0.052251	-0.115416	0.991942	0.870504	-0.492030	-0.011395	0.489381	0.862894	0.126179
59048	9.547082	0.107493	1.141934	0.582206	-0.242925	0.134868	-0.049935	-0.113925	0.992234	0.873414	-0.486833	-0.011941	0.484412	0.866034	0.123813
59049	9.780996	0.054207	1.139147	0.563796	-0.250772	0.130657	-0.047625	-0.112331	0.992529	0.876201	-0.481784	-0.012483	0.479587	0.869060	0.121370
59050	9.461091	-0.151310	0.953103	0.579226	-0.246547	0.132641	-0.045328	-0.110769	0.992812	0.879033	-0.476583	-0.013039	0.474602	0.872123	0.118973
59051	9.632067	0.043942	1.122877	0.576970	-0.258795	0.136902	-0.042944	-0.109107	0.993102	0.881823	-0.471382	-0.013656	0.469621	0.875154	0.116456
59052	9.708318	-0.053892	0.930791	0.598370	-0.252056	0.130064	-0.040662	-0.107457	0.993378	0.884679	-0.465985	-0.014194	0.464424	0.878243	0.114012
59053	9.623006	-0.194825	1.031367	0.537623	-0.259257	0.131271	-0.038344	-0.105735	0.993655	0.887221	-0.461106	-0.014829	0.459748	0.881023	0.111491
59054	9.789561	-0.145869	0.854177	0.547356	-0.256383	0.130631	-0.036056	-0.104022	0.993921	0.889780	-0.456128	-0.015460	0.454963	0.883814	0.109002
59055	9.597944	-0.165019	0.863793	0.549218	-0.256341	0.130254	-0.033779	-0.102294	0.994181	0.892318	-0.451121	-0.016100	0.450143	0.886581	0.106517
59056	9.549719	-0.273263	0.786345	0.571781	-0.264527	0.128166	-0.031494	-0.100471	0.994441	0.894926	-0.445903	-0.016708	0.445103	0.889425	0.103957
59057	9.756567	-0.151663	0.860805	0.561647	-0.266291	0.132140	-0.029176	-0.098635	0.994696	0.897458	-0.440757	-0.017383	0.440134	0.892191	0.101381
59058	9.708025	0.122274	0.921902	0.590977	-0.266568	0.129434	-0.026892	-0.096772	0.994943	0.900087	-0.435338	-0.018014	0.434880	0.895051	0.098810
59059	9.692884	-0.264101	0.720849	0.545031	-0.264509	0.123283	-0.024682	-0.094886	0.995182	0.902482	-0.430323	-0.018647	0.430019	0.897674	0.096254
59060	9.720595	-0.222662	0.829381	0.546645	-0.272370	0.125973	-0.022425	-0.092928	0.995420	0.904856	-0.425279	-0.019317	0.425126	0.900279	0.093623
59061	9.677534	-0.194945	0.611267	0.543722	-0.269463	0.123879	-0.020209	-0.090974	0.995648	0.907188	-0.420251	-0.019986	0.420240	0.902836	0.091024
59062	9.684203	-0.212400	0.768302	0.560089	-0.277627	0.122876	-0.017980	-0.088930	0.995876	0.909558	-0.415064	-0.020643	0.415188	0.905435	0.088350
59063	9.546080	-0.171492	0.716349	0.558192	-0.280074	0.126402	-0.015719	-0.086864	0.996096	0.911889	-0.409880	-0.021354	0.410135	0.907994	0.085653
59064	9.922883	0.143928	0.722116	0.556235	-0.285709	0.120364	-0.013503	-0.084709	0.996314	0.914181	-0.404707	-0.022020	0.405080	0.910515	0.082904
59065	9.692415	-0.292708	0.544986	0.543881	-0.271797	0.120964	-0.011348	-0.082671	0.996512	0.916393	-0.399634	-0.022719	0.400119	0.912939	0.080294
59066	9.611132	-0.281002	0.543188	0.540950	-0.281781	0.114425	-0.009225	-0.080503	0.996712	0.918563	-0.394583	-0.023368	0.395167	0.915327	0.077587
59067	9.618806	-0.390235	0.476177	0.532743	-0.278889	0.121603	-0.007058	-0.078377	0.996899	0.920672	-0.389591	-0.024111	0.390273	0.917647	0.074910
59068	9.753391	-0.347267	0.517558	0.535921	-0.289217	0.119231	-0.004886	-0.076135	0.997086	0.922765	-0.384562	-0.024842	0.385333	0.919954	0.072134
59069	9.625593	-0.319600	0.615414	0.545996	-0.290186	0.123541	-0.002681	-0.073889	0.997263	0.924867	-0.379427	-0.025626	0.380282	0.922267	0.069354
59070	9.897134	0.239284	0.591385	0.546304	-0.288882	0.115104	-0.000573	-0.071609	0.997433	0.926940	-0.374285	-0.026338	0.375210	0.924545	0.066592
59071	9.665654	-0.371905	0.450270	0.541346	-0.287448	0.115954	0.001526	-0.069334	0.997592	0.928964	-0.369179	-0.027080	0.370167	0.926769	0.063845
59072	9.617047	-0.122098	0.445295	0.545982	-0.291359	0.114399	0.003612	-0.067005	0.997746	0.930975	-0.364021	-0.027816	0.365064	0.928978	0.061065
59073	9.627642	-0.404197	0.400794	0.526698	-0.291051	0.115792	0.005698	-0.064672	0.997890	0.932887	-0.359032	-0.028595	0.360124	0.931082	0.058286
59074	9.771581	-0.335477	0.246663	0.524683	-0.296918	0.110044	0.007738	-0.062252	0.998030	0.934764	-0.354057	-0.029331	0.355186	0.933150	0.055451
59075	9.700637	-0.307925	0.458367	0.536556	-0.306185	0.118172	0.009875	-0.059763	0.998164	0.936653	-0.348959	-0.030159	0.350120	0.935231	0.052531
59076	9.755831	0.092176	0.527399	0.527416	-0.295879	0.110599	0.011890	-0.057332	0.998284	0.938482	-0.343941	-0.030930	0.345124	0.937239	0.049715
59077	9.729004	-0.316426	0.218222	0.530430	-0.298864	0.106694	0.013867	-0.054848	0.998398	0.940293	-0.338890	-0.031677	0.340085	0.939226	0.046874
59078	9.672014	-0.113527	0.239515	0.530624	-0.301763	0.105534	0.015828	-0.052322	0.998505	0.942076	-0.333830	-0.032426	0.335027	0.941180	0.044008
59079	9.581100	-0.519229	0.280688	0.515445	-0.302834	0.108602	0.017809	-0.049786	0.998601	0.943779	-0.328903	-0.033229	0.330097	0.943050	0.041129
59080	9.802029	-0.427355	0.113485	0.517669	-0.306426	0.108128	0.019783	-0.047203	0.998689	0.945462	-0.323948	-0.034040	0.325131	0.944896	0.038220
59081	9.728600	-0.409177	0.201553	0.521020	-0.313079	0.109760	0.021782	-0.044552	0.998770	0.947128	-0.318955	-0.034884	0.320116	0.946722	0.035249
59082	9.794256	0.010422	0.379332	0.517960	-0.304956	0.104193	0.023687	-0.041950	0.998839	0.948757	-0.313986	-0.035686	0.315118	0.948501	0.032363
59083	9.658918	-0.316911	0.007494	0.539707	-0.309844	0.102478	0.025578	-0.039285	0.998901	0.950426	-0.308804	-0.036481	0.309898	0.950314	0.029439
59084	9.730164	-0.078242	0.178973	0.524078	-0.309192	0.098291	0.027411	-0.036603	0.998954	0.952018	-0.303766	-0.037253	0.304811	0.952043	0.026520
59085	9.670114	-0.499425	0.073450	0.505905	-0.313873	0.100648	0.029268	-0.033874	0.998997	0.953527	-0.298893	-0.038071	0.299883	0.953685	0.023552
59086	9.727792	-0.416453	0.045442	0.510547	-0.319768	0.102714	0.031146	-0.031085	0.999031	0.955022	-0.293970	-0.038921	0.294895	0.955309	0.020530
59087	9.859958	-0.536710	-0.179119	0.509254	-0.321827	0.104851	0.033038	-0.028272	0.999054	0.956485	-0.289053	-0.039810	0.289905	0.956895	0.017492
59088	9.722957	-0.223466	0.272333	0.494797	-0.313264	0.099566	0.034839	-0.025517	0.999067	0.957881	-0.284271	-0.040663	0.285043	0.958404	0.014538
59089	9.664831	-0.344175	-0.122437	0.501599	-0.314183	0.096867	0.036604	-0.022736	0.999071	0.959272	-0.279419	-0.041504	0.280104	0.959900	0.011582
59090	9.661650	-0.141110	0.019520	0.502180	-0.316938	0.094123	0.038334	-0.019911	0.999067	0.960638	-0.274558	-0.042331	0.275144	0.961364	0.008603
59091	9.686074	-0.559338	-0.169758	0.484512	-0.328661	0.096981	0.040110	-0.016973	0.999051	0.961929	-0.269861	-0.043205	0.270338	0.962750	0.005503
59092	9.725095	-0.513858	-0.110408	0.489608	-0.325161	0.097425	0.041865	-0.014061	0.999024	0.963209	-0.265111	-0.044096	0.265472	0.964115	0.002445
59093	9.919822	-0.423065	-0.301246	0.493721	-0.331337	0.095682	0.043607	-0.011076	0.998987	0.964474	-0.260318	-0.044986	0.260552	0.965459	-0.000669
59094	9.681931	-0.148190	-0.003725	0.483106	-0.320680	0.091709	0.045265	-0.008176	0.998942	0.965689	-0.255623	-0.045850	0.255728	0.966742	-0.003676
59095	9.718384	-0.404763	-0.300508	0.506339	-0.328368	0.089792	0.046912	-0.005187	0.998886	0.966937	-0.250701	-0.046713	0.250664	0.968051	-0.006745
59096	9.540196	-0.130852	-0.117106	0.496748	-0.328043	0.084277	0.048486	-0.002180	0.998821	0.968137	-0.245867	-0.047534	0.245681	0.969301	-0.009811
59097	9.777196	-0.660092	-0.364363	0.478554	-0.332775	0.094679	0.050160	0.000856	0.998741	0.969263	-0.241206	-0.048473	0.240861	0.970474	-0.012928
59098	9.681310	-0.487733	-0.172502	0.481750	-0.328643	0.087237	0.051735	0.003877	0.998653	0.970375	-0.236511	-0.049352	0.236001	0.971621	-0.015998
59099	9.927948	-0.477840	-0.527512	0.495278	-0.336563	0.087977	0.053321	0.006981	0.998553	0.971493	-0.231682	-0.050257	0.230996	0.972767	-0.019135
59100	9.690027	-0.273431	-0.174898	0.471012	-0.332202	0.087852	0.054879	0.010050	0.998442	0.972530	-0.227085	-0.051169	0.226217	0.973823	-0.022236
59101	9.753694	-0.389636	-0.579882	0.489864	-0.333441	0.080814	0.056358	0.013155	0.998324	0.973588	-0.222302	-0.052032	0.221245	0.974889	-0.025336
59102	9.573982	-0.280665	-0.333976	0.482353	-0.330146	0.081465	0.057818	0.016233	0.998195	0.974605	-0.217589	-0.052913	0.216337	0.975905	-0.028402
59103	9.725569	-0.682612	-0.519774	0.462281	-0.339651	0.082776	0.059298	0.019409	0.998052	0.975554	-0.213070	-0.053817	0.211610	0.976844	-0.031569
59104	9.751288	-0.481716	-0.388545	0.470126	-0.341835	0.085554	0.060792	0.022606	0.997894	0.976494	-0.208473	-0.054765	0.206796	0.977767	-0.034748
59105	9.759067	-0.509961	-0.606266	0.480880	-0.347761	0.085420	0.062282	0.025868	0.997723	0.977431	-0.203769	-0.055732	0.201864	0.978677	-0.037975
59106	9.750291	-0.287819	-0.408703	0.457183	-0.341451	0.078610	0.063676	0.029089	0.997547	0.978302	-0.199294	-0.056636	0.197157	0.979508	-0.041148
59107	9.700856	-0.543352	-0.717267	0.476749	-0.338715	0.073194	0.064997	0.032300	0.997363	0.979191	-0.194624	-0.057510	0.192253	0.980346	-0.044278
59108	9.543441	-0.326581	-0.526413	0.466043	-0.342735	0.075164	0.066327	0.035552	0.997164	0.980034	-0.190057	-0.058411	0.187441	0.981129	-0.047448
59109	9.693645	-0.700504	-0.644473	0.450946	-0.345714	0.077966	0.067676	0.038834	0.996951	0.980824	-0.185639	-0.059350	0.182768	0.981850	-0.050653
59110	9.765025	-0.475768	-0.633387	0.460209	-0.348938	0.077365	0.069008	0.042155	0.996725	0.981609	-0.181128	-0.060300	0.177993	0.982556	-0.053879
59111	9.719372	-0.579197	-0.828052	0.464026	-0.349888	0.079045	0.070343	0.045488	0.996485	0.982376	-0.176580	-0.061286	0.173172	0.983235	-0.057107
59112	9.710091	-0.428268	-0.572564	0.445430	-0.346150	0.072067	0.071585	0.048801	0.996240	0.983094	-0.172211	-0.062204	0.168528	0.983851	-0.060304
59113	9.659663	-0.560409	-0.928882	0.452753	-0.345188	0.069091	0.072782	0.052115	0.995985	0.983804	-0.167768	-0.063114	0.163805	0.984448	-0.063482
59114	9.665499	-0.465404	-0.862091	0.445768	-0.350773	0.066778	0.073948	0.055493	0.995717	0.984483	-0.163391	-0.064008	0.159140	0.984999	-0.066714
59115	9.667104	-0.766202	-0.803910	0.437290	-0.346329	0.069313	0.075118	0.058827	0.995438	0.985125	-0.159100	-0.064937	0.154554	0.985508	-0.069904
59116	9.893376	-0.511517	-0.874035	0.451808	-0.359045	0.069957	0.076295	0.062290	0.995138	0.985767	-0.154666	-0.065896	0.149809	0.986001	-0.073204
59117	9.500116	-0.670753	-0.878315	0.441762	-0.355471	0.073995	0.077493	0.065717	0.994825	0.986369	-0.150333	-0.066904	0.145158	0.986449	-0.076471
59118	9.886388	-0.446939	-0.850439	0.440909	-0.354104	0.065654	0.078588	0.069146	0.994506	0.986955	-0.146004	-0.067840	0.140511	0.986865	-0.079718
59119	9.492034	-0.688449	-1.043088	0.428850	-0.351850	0.065838	0.079668	0.072558	0.994177	0.987504	-0.141794	-0.068785	0.135977	0.987233	-0.082947
59120	9.583681	-0.529391	-1.047355	0.432649	-0.358286	0.065877	0.080739	0.076036	0.993831	0.988037	-0.137547	-0.069745	0.131395	0.987573	-0.086232
59121	9.713050	-0.739387	-0.930013	0.420955	-0.354292	0.058987	0.081723	0.079488	0.993480	0.988540	-0.133411	-0.070642	0.126926	0.987868	-0.089480
59122	9.759083	-0.571443	-1.080199	0.441724	-0.361334	0.065835	0.082765	0.083003	0.993106	0.989044	-0.129076	-0.071638	0.122239	0.988155	-0.092777
59123	9.636609	-0.601270	-0.920740	0.439721	-0.362375	0.060960	0.083745	0.086540	0.992722	0.989528	-0.124757	-0.072600	0.117566	0.988406	-0.096081
59124	9.826613	-0.500768	-1.112316	0.435124	-0.363033	0.059191	0.084690	0.090087	0.992326	0.989987	-0.120483	-0.073553	0.112933	0.988619	-0.099389
59125	9.565012	-0.689253	-1.242549	0.422671	-0.355833	0.055741	0.085579	0.093571	0.991928	0.990414	-0.116331	-0.074475	0.108423	0.988793	-0.102629
59126	9.534700	-0.725180	-1.232695	0.425244	-0.359506	0.053652	0.086432	0.097095	0.991515	0.990827	-0.112151	-0.075390	0.103880	0.988936	-0.105898
59127	9.710692	-0.935999	-1.304340	0.392210	-0.362233	0.057861	0.087317	0.100645	0.991083	0.991183	-0.108304	-0.076327	0.099657	0.989010	-0.109215
59128	9.654104	-0.978347	-1.558254	0.404607	-0.365418	0.059258	0.088201	0.104227	0.990635	0.991533	-0.104338	-0.077303	0.095303	0.989065	-0.112547
59129	9.838280	-0.830304	-1.265753	0.400196	-0.369582	0.057823	0.089061	0.107854	0.990170	0.991862	-0.100415	-0.078275	0.090986	0.989083	-0.115919
59130	9.557364	-0.594543	-1.231796	0.403240	-0.362240	0.057130	0.089889	0.111410	0.989701	0.992176	-0.096463	-0.079255	0.086640	0.989082	-0.119210
59131	9.800740	-0.518288	-1.237860	0.397558	-0.362146	0.048213	0.090616	0.114977	0.989227	0.992476	-0.092559	-0.080155	0.082346	0.989047	-0.122499
59132	9.290582	-0.740514	-1.504345	0.405812	-0.367691	0.050699	0.091353	0.118597	0.988731	0.992762	-0.088578	-0.081101	0.077962	0.988984	-0.125831
59133	9.754259	-0.655711	-1.323109	0.386981	-0.367905	0.046919	0.092040	0.122225	0.988226	0.993020	-0.084781	-0.082001	0.073760	0.988875	-0.129175
59134	9.719062	-0.872835	-1.503825	0.385269	-0.368562	0.049419	0.092734	0.125857	0.987705	0.993257	-0.081006	-0.082934	0.069572	0.988736	-0.132520
59135	9.647056	-0.522178	-1.331270	0.398265	-0.369632	0.050566	0.093427	0.129501	0.987168	0.993486	-0.077106	-0.083910	0.065250	0.988577	-0.135861
59136	9.701264	-0.644891	-1.531967	0.414771	-0.372454	0.046894	0.094067	0.133176	0.986618	0.993710	-0.073040	-0.084884	0.060758	0.988397	-0.139209
59137	9.542886	-0.603725	-1.400384	0.393021	-0.365349	0.046096	0.094681	0.136783	0.986066	0.993904	-0.069191	-0.085836	0.056486	0.988182	-0.142500
59138	9.503305	-0.757185	-1.775780	0.392791	-0.363734	0.041578	0.095231	0.140376	0.985508	0.994085	-0.065339	-0.086753	0.052214	0.987940	-0.145768
59139	9.771138	-0.704787	-1.584304	0.389123	-0.369285	0.040526	0.095760	0.144027	0.984930	0.994248	-0.061525	-0.087669	0.047971	0.987659	-0.149090
59140	9.491890	-0.784915	-1.486566	0.384229	-0.364631	0.044124	0.096305	0.147629	0.984343	0.994389	-0.057767	-0.088624	0.043779	0.987354	-0.152364
59141	9.714090	-0.726573	-1.837672	0.408612	-0.375281	0.041712	0.096816	0.151339	0.983729	0.994525	-0.053767	-0.089607	0.039331	0.987019	-0.155716
59142	9.486102	-0.912940	-1.602274	0.399609	-0.369490	0.044686	0.097337	0.154989	0.983109	0.994637	-0.049863	-0.090617	0.034976	0.986657	-0.159011
59143	9.567811	-0.820375	-1.886744	0.377741	-0.373435	0.039546	0.097793	0.158681	0.982475	0.994729	-0.046170	-0.091556	0.030832	0.986250	-0.162360
59144	9.723714	-0.853623	-1.806322	0.366170	-0.371246	0.037196	0.098209	0.162352	0.981833	0.994805	-0.042590	-0.092464	0.026804	0.985813	-0.165691
59145	9.327134	-0.966298	-1.779967	0.369632	-0.370868	0.036788	0.098607	0.166019	0.981180	0.994867	-0.038978	-0.093387	0.022740	0.985352	-0.169010
59146	9.685148	-0.929896	-1.778145	0.350132	-0.371265	0.039092	0.099011	0.169688	0.980511	0.994907	-0.035564	-0.094310	0.018868	0.984856	-0.172345
59147	9.512938	-1.022552	-2.198464	0.350963	-0.375879	0.040468	0.099418	0.173402	0.979820	0.994933	-0.032149	-0.095262	0.014981	0.984326	-0.175720
59148	9.583015	-0.805768	-1.712590	0.361392	-0.375076	0.039012	0.099793	0.177107	0.979119	0.994948	-0.028631	-0.096227	0.010990	0.983775	-0.179069
59149	9.598878	-0.736894	-2.040216	0.383304	-0.374942	0.033441	0.100099	0.180812	0.978411	0.994954	-0.024890	-0.097192	0.006780	0.983203	-0.182391
59150	9.489543	-0.798467	-1.870081	0.349886	-0.374875	0.030917	0.100362	0.184514	0.977692	0.994947	-0.021477	-0.098080	0.002901	0.982595	-0.185737
59151	9.503243	-0.972456	-2.046830	0.348458	-0.372091	0.029834	0.100603	0.188189	0.976967	0.994926	-0.018079	-0.098970	-0.000962	0.981966	-0.189053
59152	9.541869	-0.930178	-2.020270	0.336312	-0.375481	0.029874	0.100827	0.191895	0.976222	0.994893	-0.014804	-0.099845	-0.004708	0.981304	-0.192407
59153	9.513735	-0.895453	-2.107033	0.343195	-0.369383	0.032951	0.101070	0.195540	0.975474	0.994843	-0.011470	-0.100778	-0.008517	0.980629	-0.195690
59154	9.497360	-0.795616	-2.068280	0.366974	-0.378803	0.027893	0.101245	0.199274	0.974700	0.994782	-0.007896	-0.101717	-0.012573	0.979912	-0.199034
59155	9.442643	-0.845987	-1.984893	0.347551	-0.373636	0.033892	0.101468	0.202957	0.973916	0.994703	-0.004529	-0.102690	-0.016431	0.979177	-0.202342
59156	9.613517	-0.770261	-2.234819	0.354351	-0.384181	0.027303	0.101606	0.206741	0.973106	0.994616	-0.001084	-0.103621	-0.020368	0.978395	-0.205738
59157	9.450269	-0.924050	-2.193376	0.341992	-0.371817	0.026446	0.101725	0.210402	0.972308	0.994519	0.002237	-0.104533	-0.024169	0.977612	-0.209021
59158	9.386814	-1.072952	-2.206178	0.348505	-0.376777	0.026550	0.101828	0.214108	0.971488	0.994407	0.005619	-0.105469	-0.028040	0.976794	-0.212338
59159	9.455739	-1.043113	-2.225553	0.323552	-0.373440	0.027176	0.101926	0.217781	0.970661	0.994288	0.008751	-0.106371	-0.031660	0.975958	-0.215645
59160	9.555376	-1.106117	-2.385687	0.307815	-0.373659	0.027078	0.102008	0.221451	0.969821	0.994163	0.011728	-0.107246	-0.035123	0.975101	-0.218963
59161	9.507679	-0.799671	-2.165302	0.326537	-0.384083	0.024895	0.102052	0.225222	0.968948	0.994023	0.014887	-0.108154	-0.038784	0.974194	-0.222357
59162	9.300564	-0.882871	-2.426064	0.334491	-0.375990	0.022378	0.102059	0.228909	0.968083	0.993870	0.018127	-0.109063	-0.042514	0.973279	-0.225656
59163	9.613310	-0.748001	-2.215585	0.341244	-0.377670	0.016882	0.101998	0.232611	0.967207	0.993706	0.021441	-0.109948	-0.046313	0.972334	-0.228960
59164	9.319928	-1.006229	-2.552851	0.326917	-0.371534	0.020115	0.101955	0.236248	0.966329	0.993534	0.024604	-0.110841	-0.049962	0.971381	-0.232212
59165	9.367604	-0.999191	-2.378802	0.325324	-0.377730	0.019737	0.101894	0.239944	0.965425	0.993350	0.027749	-0.111739	-0.053601	0.970390	-0.235521
59166	9.455327	-1.087419	-2.564824	0.311138	-0.371642	0.021312	0.101837	0.243576	0.964521	0.993162	0.030750	-0.112626	-0.057092	0.969394	-0.238779
59167	9.522814	-1.194714	-2.703244	0.316862	-0.377603	0.014274	0.101695	0.247262	0.963597	0.992965	0.033818	-0.113472	-0.060645	0.968358	-0.242083
59168	9.385303	-0.999277	-2.321852	0.310530	-0.379143	0.018662	0.101580	0.250959	0.962653	0.992758	0.036812	-0.114353	-0.064135	0.967297	-0.245402
59169	9.318024	-1.083888	-2.752301	0.321350	-0.379609	0.022067	0.101487	0.254660	0.961690	0.992528	0.039897	-0.115306	-0.067733	0.966207	-0.248708
59170	9.527394	-1.023705	-2.513003	0.300924	-0.377559	0.018482	0.101345	0.258334	0.960725	0.992306	0.042791	-0.116182	-0.071124	0.965107	-0.252010
59171	9.181992	-1.179817	-2.726499	0.299041	-0.377025	0.015909	0.101166	0.262000	0.959751	0.992077	0.045668	-0.117041	-0.074495	0.963987	-0.255304
59172	9.441754	-1.004581	-2.564950	0.303203	-0.374729	0.013462	0.100950	0.265637	0.958773	0.991837	0.048589	-0.117894	-0.077903	0.962848	-0.258563
59173	9.377692	-0.927390	-2.659961	0.294948	-0.372503	0.012307	0.100714	0.269249	0.957790	0.991594	0.051430	-0.118727	-0.081226	0.961696	-0.261806
59174	9.365853	-1.164129	-2.945122	0.311162	-0.378909	0.012691	0.100462	0.272917	0.956778	0.991328	0.054422	-0.119613	-0.084714	0.960497	-0.265083
59175	9.364793	-1.087275	-2.564142	0.296298	-0.380544	0.011629	0.100186	0.276598	0.955749	0.991065	0.057269	-0.120462	-0.088055	0.959278	-0.268389
59176	9.181697	-1.147307	-2.931708	0.299807	-0.383532	0.014819	0.099925	0.280303	0.954696	0.990785	0.060138	-0.121359	-0.091431	0.958026	-0.271711
59177	9.422509	-1.070521	-2.820875	0.275482	-0.371715	0.007272	0.099589	0.283888	0.953672	0.990526	0.062791	-0.122129	-0.094553	0.956799	-0.274945
59178	9.177485	-1.142788	-2.846405	0.282501	-0.374555	0.008802	0.099252	0.287494	0.952626	0.990250	0.065504	-0.122940	-0.097745	0.955540	-0.278189
59179	9.330440	-1.078466	-2.942297	0.272056	-0.371725	0.009492	0.098915	0.291070	0.951574	0.989974	0.068111	-0.123740	-0.100829	0.954274	-0.281415
59180	9.362865	-0.997527	-2.929406	0.276274	-0.369565	0.005243	0.098524	0.294617	0.950523	0.989691	0.070767	-0.124518	-0.103951	0.952992	-0.284607
59181	9.162167	-1.268766	-3.050543	0.289707	-0.377348	0.008974	0.098152	0.298238	0.949432	0.989380	0.073536	-0.125381	-0.107211	0.951655	-0.287853
59182	9.338260	-1.092885	-2.887450	0.279560	-0.378010	0.008227	0.097757	0.301857	0.948328	0.989071	0.076207	-0.126214	-0.110368	0.950303	-0.291108
59183	9.205564	-1.132791	-3.172995	0.292186	-0.381261	0.007965	0.097347	0.305504	0.947202	0.988740	0.078995	-0.127094	-0.113652	0.948909	-0.294374
59184	9.267508	-1.116232	-3.028897	0.265102	-0.371071	0.000970	0.096864	0.309041	0.946103	0.988438	0.081543	-0.127834	-0.116654	0.947547	-0.297569
59185	9.176813	-1.221912	-3.079922	0.278007	-0.371850	0.007580	0.096437	0.312588	0.944981	0.988105	0.084189	-0.128687	-0.119783	0.946151	-0.300751
59186	9.294750	-1.228180	-3.224884	0.259132	-0.372735	0.001649	0.095937	0.316130	0.943853	0.987793	0.086672	-0.129433	-0.122724	0.944748	-0.303956
59187	9.276578	-1.108076	-3.099533	0.248204	-0.372099	0.000995	0.095422	0.319664	0.942714	0.987487	0.089050	-0.130150	-0.125553	0.943337	-0.307167
59188	9.190917	-1.342295	-3.305668	0.269476	-0.371953	0.002117	0.094905	0.323189	0.941564	0.987146	0.091622	-0.130949	-0.128589	0.941889	-0.310339
59189	9.225784	-1.040940	-3.027032	0.261631	-0.376575	0.001901	0.094371	0.326754	0.940386	0.986807	0.094116	-0.131732	-0.131550	0.940412	-0.313561
59190	9.012045	-1.254547	-3.463717	0.262329	-0.377565	0.006677	0.093870	0.330325	0.939188	0.986455	0.096598	-0.132569	-0.134515	0.938911	-0.316783
59191	9.302416	-1.029066	-3.088929	0.254393	-0.367089	-0.003554	0.093273	0.333784	0.938024	0.986116	0.099035	-0.133296	-0.137390	0.937433	-0.319913
59192	9.099845	-1.236656	-3.374797	0.253609	-0.365559	-0.000703	0.092694	0.337224	0.936850	0.985767	0.101453	-0.134052	-0.140251	0.935942	-0.323020
59193	9.126991	-1.198102	-3.286153	0.251132	-0.367346	-0.004651	0.092064	0.340673	0.935663	0.985419	0.103856	-0.134774	-0.143088	0.934428	-0.326144
59194	9.272075	-1.189665	-3.386316	0.242513	-0.370664	-0.004812	0.091416	0.344145	0.934456	0.985076	0.106176	-0.135471	-0.145839	0.932894	-0.329302
59195	9.016197	-1.541149	-3.675456	0.235762	-0.371134	-0.005212	0.090756	0.347617	0.933234	0.984736	0.108431	-0.136153	-0.148521	0.931346	-0.332470
59196	9.093468	-1.101600	-3.074569	0.254912	-0.370205	-0.000976	0.090126	0.351076	0.931999	0.984357	0.110847	-0.136944	-0.151387	0.929763	-0.335595
59197	9.119113	-1.258613	-3.675281	0.249970	-0.376825	-0.002688	0.089460	0.354592	0.930732	0.983980	0.113218	-0.137712	-0.154207	0.928141	-0.338783
59198	9.058751	-1.021781	-3.323819	0.239119	-0.367345	-0.003739	0.088787	0.358009	0.929487	0.983614	0.115489	-0.138440	-0.156909	0.926548	-0.341889
59199	9.064508	-1.364770	-3.674274	0.238214	-0.362798	-0.006417	0.088086	0.361379	0.928249	0.983245	0.117758	-0.139149	-0.159594	0.924953	-0.344951
59200	9.136303	-1.275025	-3.470138	0.233031	-0.366034	-0.008313	0.087350	0.364766	0.926993	0.982880	0.119982	-0.139828	-0.162227	0.923336	-0.348041
59201	9.126066	-1.228170	-3.508862	0.225534	-0.365472	-0.012195	0.086569	0.368140	0.925731	0.982523	0.122148	-0.140455	-0.164783	0.921712	-0.351132
59202	9.089626	-1.357538	-3.693446	0.214312	-0.361064	-0.007333	0.085832	0.371471	0.924469	0.982176	0.124190	-0.141092	-0.167221	0.920101	-0.354190
59203	8.980522	-1.274512	-3.664714	0.236881	-0.368893	-0.004593	0.085102	0.374874	0.923162	0.981783	0.126425	-0.141844	-0.169884	0.918415	-0.357285
59204	8.930188	-1.423008	-3.820819	0.223839	-0.367747	-0.004684	0.084361	0.378256	0.921849	0.981405	0.128538	-0.142553	-0.172414	0.916734	-0.360379
59205	9.012017	-1.153570	-3.549119	0.234165	-0.367262	-0.007523	0.083586	0.381627	0.920529	0.981006	0.130752	-0.143283	-0.175042	0.915022	-0.363450
59206	9.013735	-1.369632	-3.767318	0.206744	-0.356974	-0.009362	0.082799	0.384892	0.919240	0.980652	0.132720	-0.143901	-0.177388	0.913369	-0.366456
59207	8.981535	-1.295039	-3.711340	0.212564	-0.360879	-0.011623	0.081977	0.388186	0.917928	0.980283	0.134746	-0.144529	-0.179791	0.911677	-0.369486
59208	9.055428	-1.306840	-3.814959	0.215804	-0.357457	-0.014370	0.081123	0.391436	0.916623	0.979906	0.136810	-0.145148	-0.182219	0.909979	-0.372472
59209	9.032784	-1.272836	-3.801997	0.211932	-0.359658	-0.012713	0.080275	0.394705	0.915295	0.979528	0.138828	-0.145776	-0.184607	0.908259	-0.375480
59210	8.855006	-1.513418	-4.061212	0.214893	-0.361415	-0.011480	0.079426	0.397981	0.913949	0.979140	0.140866	-0.146431	-0.187021	0.906514	-0.378491
59211	8.845382	-1.246573	-3.667544	0.211780	-0.365238	-0.013285	0.078544	0.401286	0.912579	0.978753	0.142879	-0.147068	-0.189405	0.904740	-0.381538
59212	8.834715	-1.342064	-4.003869	0.217439	-0.364995	-0.007069	0.077714	0.404588	0.911191	0.978345	0.144916	-0.147787	-0.191839	0.902944	-0.384564
59213	9.038214	-1.179080	-3.846265	0.199883	-0.359845	-0.012210	0.076836	0.407832	0.909818	0.977969	0.146811	-0.148400	-0.194093	0.901177	-0.387567
59214	8.791336	-1.480399	-4.013811	0.197333	-0.352727	-0.014897	0.075936	0.410998	0.908468	0.977596	0.148692	-0.148983	-0.196313	0.899428	-0.390499
59215	9.048628	-1.331005	-3.930893	0.192110	-0.356015	-0.016530	0.075007	0.414188	0.907095	0.977230	0.150529	-0.149539	-0.198481	0.897658	-0.393466
59216	8.860536	-1.258079	-4.043406	0.201103	-0.356179	-0.017656	0.074058	0.417367	0.905715	0.976843	0.152449	-0.150125	-0.200732	0.895859	-0.396412
59217	8.796351	-1.411106	-4.092134	0.186230	-0.349020	-0.017616	0.073117	0.420480	0.904351	0.976480	0.154232	-0.150660	-0.202830	0.894097	-0.399313
