// General information: 
//  MT Manager version: 2019.2.0 
//  XDA version: 2019.2.0 build 3853 rev 94535 built on 2019-09-09
// Device information: 
//  DeviceId: 00B43F80
//  ProductCode: MTW2-3A7G6
//  Firmware Version: 4.3.5
//  Hardware Version: 1.1.0
// Device settings: 
//  Filter Profile: human(46.1)
//  Option Flags: Orientation Smoother Disabled, AHS Disabled, ICC Disabled
// Coordinate system: ENU
PacketCounter	Acc_X	Acc_Y	Acc_Z	Gyr_X	Gyr_Y	Gyr_Z	Mat[1][1]	Mat[2][1]	Mat[3][1]	Mat[1][2]	Mat[2][2]	Mat[3][2]	Mat[1][3]	Mat[2][3]	Mat[3][3]
58398	9.457342	-1.153454	2.276176	0.003264	0.001547	0.004834	-0.255766	0.041555	0.965845	-0.574368	-0.810158	-0.117242	0.777615	-0.584737	0.231079
58399	9.455715	-1.158253	2.221845	0.003076	-0.001004	0.005613	-0.255766	0.041552	0.965845	-0.574369	-0.810156	-0.117245	0.777614	-0.584739	0.231077
58400	9.445833	-1.158009	2.254910	0.000758	-0.000014	0.007216	-0.255780	0.041541	0.965842	-0.574382	-0.810145	-0.117267	0.777600	-0.584756	0.231079
58401	9.457196	-1.154938	2.276032	0.005207	-0.004544	0.004790	-0.255748	0.041524	0.965851	-0.574368	-0.810155	-0.117257	0.777621	-0.584743	0.231046
58402	9.461348	-1.179208	2.277623	0.002203	-0.001061	0.002849	-0.255732	0.041543	0.965855	-0.574383	-0.810148	-0.117235	0.777615	-0.584752	0.231042
58403	9.453058	-1.131562	2.273928	0.003076	-0.001003	0.005614	-0.255732	0.041540	0.965855	-0.574385	-0.810147	-0.117238	0.777614	-0.584754	0.231040
58404	9.435919	-1.158844	2.287558	0.005467	0.000487	0.007684	-0.255756	0.041527	0.965849	-0.574363	-0.810159	-0.117257	0.777622	-0.584737	0.231055
58405	9.478248	-1.153863	2.264002	0.003076	-0.001003	0.005614	-0.255756	0.041524	0.965849	-0.574364	-0.810158	-0.117260	0.777621	-0.584739	0.231053
58406	9.452878	-1.133086	2.273916	0.003076	-0.001003	0.005614	-0.255757	0.041523	0.965849	-0.574364	-0.810157	-0.117262	0.777621	-0.584740	0.231053
58407	9.462654	-1.134366	2.240764	0.003075	-0.001003	0.005615	-0.255757	0.041520	0.965849	-0.574366	-0.810156	-0.117265	0.777620	-0.584742	0.231051
58408	9.456930	-1.157849	2.275658	0.006912	-0.000560	0.003317	-0.255747	0.041538	0.965851	-0.574344	-0.810176	-0.117237	0.777639	-0.584714	0.231057
58409	9.442961	-1.133543	2.306794	-0.002280	-0.002877	0.008607	-0.255749	0.041500	0.965852	-0.574379	-0.810144	-0.117281	0.777612	-0.584760	0.231030
58410	9.456861	-1.159024	2.275343	0.003075	-0.001003	0.005615	-0.255749	0.041497	0.965852	-0.574379	-0.810144	-0.117283	0.777612	-0.584760	0.231028
58411	9.456819	-1.159424	2.275315	0.005924	-0.000688	0.005005	-0.255748	0.041501	0.965852	-0.574360	-0.810159	-0.117274	0.777627	-0.584739	0.231033
58412	9.477948	-1.157150	2.263579	0.005466	0.000488	0.007686	-0.255769	0.041488	0.965847	-0.574335	-0.810174	-0.117290	0.777638	-0.584719	0.231045
58413	9.419993	-1.142704	2.264003	0.002544	-0.002306	0.004623	-0.255753	0.041485	0.965852	-0.574343	-0.810169	-0.117285	0.777638	-0.584726	0.231030
58414	9.494939	-1.131370	2.249863	0.003605	0.000303	0.006609	-0.255766	0.041483	0.965848	-0.574334	-0.810175	-0.117293	0.777640	-0.584719	0.231040
58415	9.428095	-1.191615	2.267720	0.003264	0.001549	0.004836	-0.255782	0.041501	0.965843	-0.574336	-0.810174	-0.117287	0.777634	-0.584718	0.231063
58416	9.480868	-1.107339	2.281329	0.004063	-0.000874	0.003929	-0.255772	0.041510	0.965845	-0.574335	-0.810176	-0.117274	0.777637	-0.584715	0.231061
58417	9.418148	-1.191639	2.300914	0.004477	0.000362	0.009375	-0.255805	0.041484	0.965838	-0.574316	-0.810185	-0.117310	0.777641	-0.584705	0.231074
58418	9.455495	-1.087009	2.291102	0.003800	-0.005906	0.001036	-0.255739	0.041490	0.965855	-0.574321	-0.810188	-0.117265	0.777659	-0.584700	0.231025
58419	9.458948	-1.191320	2.222658	0.001476	0.003845	0.007432	-0.255787	0.041501	0.965842	-0.574330	-0.810178	-0.117289	0.777636	-0.584713	0.231068
58420	9.448114	-1.115522	2.271602	0.002884	-0.003552	0.006397	-0.255773	0.041477	0.965847	-0.574331	-0.810176	-0.117300	0.777640	-0.584718	0.231043
58421	9.460407	-1.188023	2.276952	0.001744	0.000118	0.005532	-0.255781	0.041482	0.965844	-0.574343	-0.810167	-0.117305	0.777629	-0.584730	0.231050
58422	9.452148	-1.140472	2.273261	0.001213	-0.001187	0.004539	-0.255770	0.041484	0.965847	-0.574359	-0.810155	-0.117302	0.777620	-0.584745	0.231040
58423	9.466027	-1.165665	2.241976	0.002732	0.000245	0.003844	-0.255770	0.041503	0.965846	-0.574368	-0.810151	-0.117288	0.777614	-0.584750	0.231050
58424	9.452086	-1.141041	2.273234	0.008240	-0.001679	0.003405	-0.255750	0.041512	0.965851	-0.574333	-0.810181	-0.117257	0.777647	-0.584708	0.231045
58425	9.473229	-1.138899	2.261386	-0.001221	-0.000263	0.010596	-0.255784	0.041473	0.965844	-0.574355	-0.810156	-0.117318	0.777619	-0.584745	0.231045
58426	9.434865	-1.168844	2.286816	0.007898	-0.000434	0.001632	-0.255764	0.041505	0.965848	-0.574327	-0.810183	-0.117270	0.777646	-0.584706	0.231053
58427	9.484533	-1.136172	2.282620	-0.002624	-0.001626	0.006838	-0.255766	0.041489	0.965848	-0.574369	-0.810149	-0.117298	0.777614	-0.584754	0.231039
58428	9.455981	-1.167106	2.274871	0.006793	-0.000628	0.007775	-0.255781	0.041470	0.965845	-0.574336	-0.810170	-0.117313	0.777634	-0.584726	0.231044
58429	9.447721	-1.119722	2.271170	0.002084	-0.001127	0.007307	-0.255790	0.041453	0.965843	-0.574341	-0.810164	-0.117335	0.777627	-0.584736	0.231040
58430	9.465650	-1.169169	2.241741	0.003604	0.000305	0.006612	-0.255805	0.041447	0.965839	-0.574337	-0.810164	-0.117348	0.777625	-0.584736	0.231049
58431	9.490015	-1.115349	2.247508	0.002541	-0.002305	0.004626	-0.255789	0.041445	0.965844	-0.574345	-0.810159	-0.117342	0.777624	-0.584743	0.231034
58432	9.434562	-1.171856	2.286526	0.004592	0.000431	0.004924	-0.255792	0.041451	0.965843	-0.574335	-0.810167	-0.117336	0.777630	-0.584731	0.231042
58433	9.457356	-1.122379	2.237913	0.002541	-0.002305	0.004626	-0.255777	0.041449	0.965847	-0.574343	-0.810162	-0.117331	0.777630	-0.584738	0.231026
58434	9.451592	-1.145958	2.272810	0.000414	0.001238	0.005448	-0.255791	0.041457	0.965843	-0.574366	-0.810145	-0.117340	0.777608	-0.584762	0.231040
58435	9.472712	-1.143854	2.261051	0.003944	-0.000940	0.008386	-0.255808	0.041432	0.965839	-0.574354	-0.810150	-0.117367	0.777612	-0.584757	0.231039
58436	9.455538	-1.171143	2.274637	0.003072	-0.000999	0.005620	-0.255806	0.041429	0.965840	-0.574352	-0.810151	-0.117368	0.777614	-0.584756	0.231036
58437	9.472620	-1.144810	2.260952	0.004060	-0.000873	0.003931	-0.255798	0.041440	0.965842	-0.574350	-0.810155	-0.117353	0.777618	-0.584750	0.231037
58438	9.461159	-1.148806	2.239720	0.002274	0.001425	0.006527	-0.255822	0.041442	0.965835	-0.574357	-0.810147	-0.117369	0.777605	-0.584760	0.231056
58439	9.430063	-1.151162	2.284708	0.001743	0.000120	0.005534	-0.255830	0.041446	0.965833	-0.574369	-0.810138	-0.117374	0.777593	-0.584772	0.231063
58440	9.461010	-1.149897	2.239790	0.002083	-0.001125	0.007309	-0.255837	0.041429	0.965832	-0.574371	-0.810134	-0.117393	0.777590	-0.584779	0.231057
58441	9.439818	-1.152965	2.251356	0.004326	-0.004602	0.002032	-0.255788	0.041434	0.965845	-0.574371	-0.810139	-0.117359	0.777605	-0.584772	0.231022
58442	9.462655	-1.146076	2.293630	0.005728	-0.003237	0.005793	-0.255775	0.041417	0.965849	-0.574355	-0.810150	-0.117360	0.777622	-0.584758	0.231004
58443	9.425920	-1.128926	2.282242	0.001285	0.001300	0.008216	-0.255808	0.041406	0.965840	-0.574364	-0.810139	-0.117392	0.777604	-0.584773	0.231022
58444	9.476407	-1.172193	2.262292	0.001551	-0.002429	0.006317	-0.255797	0.041385	0.965844	-0.574373	-0.810131	-0.117405	0.777601	-0.584787	0.230999
58445	9.451087	-1.151408	2.272158	0.001742	0.000121	0.005535	-0.255805	0.041389	0.965842	-0.574385	-0.810122	-0.117410	0.777590	-0.584799	0.231007
58446	9.468170	-1.125159	2.258478	0.001211	-0.001184	0.004542	-0.255797	0.041394	0.965844	-0.574403	-0.810109	-0.117407	0.777579	-0.584816	0.231000
58447	9.441191	-1.151350	2.305217	0.004591	0.000432	0.004926	-0.255804	0.041405	0.965841	-0.574394	-0.810117	-0.117400	0.777583	-0.584805	0.231014
58448	9.481946	-1.150840	2.227245	0.003071	-0.000998	0.005622	-0.255804	0.041400	0.965842	-0.574394	-0.810116	-0.117404	0.777583	-0.584806	0.231010
58449	9.418293	-1.159284	2.262648	0.002731	0.000246	0.003847	-0.255803	0.041419	0.965841	-0.574403	-0.810112	-0.117390	0.777577	-0.584811	0.231020
58450	9.485922	-1.175671	2.229057	0.000222	-0.001309	0.006232	-0.255801	0.041407	0.965842	-0.574423	-0.810095	-0.117405	0.777563	-0.584834	0.231008
58451	9.458197	-1.126215	2.291321	0.001136	-0.003669	0.000868	-0.255753	0.041427	0.965854	-0.574451	-0.810081	-0.117366	0.777558	-0.584853	0.230978
58452	9.450871	-1.154077	2.271701	0.004930	-0.000812	0.006701	-0.255759	0.041414	0.965853	-0.574435	-0.810091	-0.117375	0.777568	-0.584839	0.230978
58453	9.489180	-1.125162	2.246140	0.002538	-0.002303	0.004629	-0.255743	0.041412	0.965857	-0.574443	-0.810086	-0.117370	0.777567	-0.584846	0.230962
58454	9.425561	-1.133535	2.281439	0.004059	-0.000873	0.003934	-0.255731	0.041424	0.965860	-0.574435	-0.810095	-0.117350	0.777577	-0.584834	0.230962
58455	9.464661	-1.180204	2.240137	0.003409	-0.002242	0.007398	-0.255732	0.041400	0.965861	-0.574429	-0.810096	-0.117369	0.777581	-0.584834	0.230949
58456	9.436903	-1.130970	2.302482	0.006257	-0.001931	0.006788	-0.255734	0.041384	0.965861	-0.574403	-0.810114	-0.117375	0.777600	-0.584810	0.230945
58457	9.471923	-1.153655	2.259376	-0.000118	-0.000064	0.004457	-0.255735	0.041396	0.965860	-0.574432	-0.810094	-0.117375	0.777578	-0.584837	0.230949
58458	9.454709	-1.180737	2.273123	0.003262	0.001552	0.004840	-0.255748	0.041411	0.965856	-0.574434	-0.810092	-0.117371	0.777572	-0.584838	0.230968
58459	9.479172	-1.126765	2.278864	0.004854	-0.003297	0.003028	-0.255716	0.041416	0.965865	-0.574428	-0.810100	-0.117345	0.777587	-0.584827	0.230946
58460	9.439235	-1.160974	2.249686	0.004736	-0.003360	0.007486	-0.255707	0.041383	0.965868	-0.574410	-0.810111	-0.117361	0.777604	-0.584814	0.230922
58461	9.469364	-1.126702	2.311592	0.002730	0.000247	0.003848	-0.255706	0.041402	0.965868	-0.574418	-0.810107	-0.117348	0.777598	-0.584819	0.230932
58462	9.429365	-1.160981	2.282619	0.003408	-0.002240	0.007400	-0.255702	0.041372	0.965870	-0.574411	-0.810109	-0.117368	0.777604	-0.584818	0.230910
58463	9.496233	-1.101944	2.264655	0.003069	-0.000997	0.005624	-0.255702	0.041368	0.965870	-0.574413	-0.810107	-0.117371	0.777603	-0.584820	0.230908
58464	9.439067	-1.162901	2.249395	0.001741	0.000123	0.005538	-0.255709	0.041372	0.965868	-0.574424	-0.810099	-0.117376	0.777592	-0.584832	0.230914
58465	9.446389	-1.135634	2.268808	0.008233	-0.001682	0.003412	-0.255691	0.041383	0.965873	-0.574391	-0.810127	-0.117346	0.777623	-0.584793	0.230912
58466	9.464261	-1.184914	2.239340	0.000220	-0.001306	0.006234	-0.255692	0.041372	0.965873	-0.574415	-0.810107	-0.117363	0.777604	-0.584821	0.230903
58467	9.425108	-1.139297	2.280442	0.003939	-0.000934	0.008394	-0.255709	0.041347	0.965869	-0.574403	-0.810112	-0.117391	0.777608	-0.584816	0.230903
58468	9.492690	-1.155981	2.246840	-0.001107	-0.000186	0.006148	-0.255717	0.041343	0.965867	-0.574438	-0.810084	-0.117410	0.777580	-0.584854	0.230901
58469	9.446195	-1.137674	2.268594	0.006906	-0.000562	0.003326	-0.255707	0.041361	0.965869	-0.574415	-0.810104	-0.117382	0.777600	-0.584825	0.230908
58470	9.467344	-1.135431	2.256802	0.000752	0.000000	0.007228	-0.255725	0.041350	0.965865	-0.574431	-0.810089	-0.117407	0.777582	-0.584846	0.230913
58471	9.450129	-1.162563	2.270460	0.004057	-0.000872	0.003936	-0.255716	0.041361	0.965867	-0.574429	-0.810093	-0.117391	0.777587	-0.584841	0.230913
58472	9.467228	-1.136348	2.256824	0.005459	0.000496	0.007698	-0.255740	0.041349	0.965861	-0.574408	-0.810105	-0.117411	0.777594	-0.584825	0.230928
58473	9.445976	-1.139430	2.268625	0.005384	-0.001991	0.004023	-0.255724	0.041353	0.965865	-0.574396	-0.810116	-0.117393	0.777609	-0.584809	0.230919
58474	9.434520	-1.143386	2.247336	0.000414	0.001244	0.005452	-0.255740	0.041366	0.965860	-0.574416	-0.810101	-0.117399	0.777588	-0.584829	0.230937
58475	9.438532	-1.167733	2.249136	0.004851	-0.003297	0.003031	-0.255708	0.041370	0.965869	-0.574410	-0.810109	-0.117373	0.777603	-0.584818	0.230914
58476	9.463091	-1.113780	2.254655	0.002535	-0.002300	0.004633	-0.255690	0.041367	0.965873	-0.574417	-0.810105	-0.117366	0.777604	-0.584823	0.230898
58477	9.475164	-1.186230	2.260180	0.001741	0.000125	0.005539	-0.255699	0.041371	0.965871	-0.574429	-0.810096	-0.117372	0.777592	-0.584836	0.230905
58478	9.430393	-1.120904	2.245088	0.003067	-0.000995	0.005627	-0.255696	0.041367	0.965872	-0.574428	-0.810096	-0.117374	0.777594	-0.584836	0.230901
58479	9.475051	-1.187179	2.260154	0.001740	0.000125	0.005540	-0.255704	0.041371	0.965869	-0.574440	-0.810087	-0.117379	0.777582	-0.584848	0.230908
58480	9.455521	-1.143215	2.235118	0.003067	-0.000995	0.005627	-0.255704	0.041368	0.965870	-0.574438	-0.810088	-0.117380	0.777584	-0.584846	0.230906
58481	9.455475	-1.143659	2.235085	-0.000119	-0.000060	0.004460	-0.255704	0.041380	0.965869	-0.574467	-0.810068	-0.117379	0.777562	-0.584874	0.230909
58482	9.449667	-1.167113	2.270049	0.005915	-0.000686	0.005017	-0.255703	0.041384	0.965869	-0.574447	-0.810083	-0.117369	0.777577	-0.584852	0.230914
58483	9.478229	-1.137176	2.277615	0.002197	-0.001057	0.002857	-0.255687	0.041403	0.965873	-0.574462	-0.810076	-0.117348	0.777571	-0.584862	0.230910
58484	9.417026	-1.174063	2.260299	0.003210	-0.004785	0.008189	-0.255669	0.041353	0.965880	-0.574456	-0.810076	-0.117377	0.777582	-0.584865	0.230867
58485	9.458756	-1.093781	2.252101	0.003067	-0.000994	0.005628	-0.255669	0.041350	0.965880	-0.574458	-0.810074	-0.117380	0.777581	-0.584867	0.230865
58486	9.439784	-1.167904	2.302649	0.004588	0.000434	0.004931	-0.255673	0.041357	0.965878	-0.574448	-0.810082	-0.117373	0.777587	-0.584856	0.230874
58487	9.505101	-1.113314	2.230314	0.002534	-0.002299	0.004635	-0.255657	0.041355	0.965883	-0.574456	-0.810077	-0.117368	0.777586	-0.584863	0.230858
58488	9.449523	-1.169549	2.269394	0.004055	-0.000871	0.003938	-0.255650	0.041365	0.965884	-0.574458	-0.810078	-0.117355	0.777587	-0.584861	0.230859
58489	9.458651	-1.095229	2.251840	0.002534	-0.002299	0.004635	-0.255634	0.041362	0.965888	-0.574466	-0.810073	-0.117349	0.777586	-0.584868	0.230843
58490	9.445443	-1.146253	2.267405	0.003261	0.001555	0.004844	-0.255648	0.041381	0.965884	-0.574463	-0.810076	-0.117341	0.777584	-0.584863	0.230866
58491	9.456834	-1.142958	2.288651	0.004849	-0.003297	0.003033	-0.255615	0.041386	0.965892	-0.574457	-0.810084	-0.117315	0.777599	-0.584851	0.230844
58492	9.459210	-1.171904	2.235981	0.002077	-0.001116	0.007319	-0.255623	0.041367	0.965891	-0.574463	-0.810077	-0.117337	0.777592	-0.584863	0.230838
58493	9.466561	-1.144876	2.255314	0.003066	-0.000993	0.005629	-0.255623	0.041364	0.965891	-0.574464	-0.810075	-0.117341	0.777591	-0.584865	0.230836
58494	9.481939	-1.165722	2.278492	0.004588	0.000435	0.004932	-0.255629	0.041372	0.965889	-0.574459	-0.810079	-0.117336	0.777593	-0.584859	0.230846
58495	9.428080	-1.174907	2.280798	0.002533	-0.002299	0.004636	-0.255613	0.041370	0.965894	-0.574467	-0.810075	-0.117331	0.777592	-0.584866	0.230831
58496	9.462378	-1.122199	2.253473	0.004664	0.002925	0.008608	-0.255658	0.041364	0.965882	-0.574445	-0.810086	-0.117357	0.777594	-0.584849	0.230866
58497	9.470317	-1.170701	2.257340	0.005381	-0.001991	0.004027	-0.255641	0.041368	0.965886	-0.574433	-0.810098	-0.117339	0.777608	-0.584833	0.230857
58498	9.483503	-1.120471	2.241541	0.002869	-0.003540	0.006415	-0.255627	0.041345	0.965891	-0.574430	-0.810099	-0.117349	0.777615	-0.584834	0.230833
58499	9.423885	-1.152758	2.278729	0.005913	-0.000685	0.005020	-0.255626	0.041349	0.965891	-0.574411	-0.810114	-0.117339	0.777630	-0.584813	0.230837
58500	9.466237	-1.147949	2.255110	0.001739	0.000128	0.005542	-0.255632	0.041349	0.965890	-0.574424	-0.810103	-0.117347	0.777618	-0.584828	0.230840
58501	9.462759	-1.200030	2.237635	0.001739	0.000128	0.005542	-0.255640	0.041353	0.965887	-0.574436	-0.810093	-0.117352	0.777606	-0.584841	0.230847
58502	9.462116	-1.124980	2.253186	0.003401	-0.002234	0.007409	-0.255639	0.041328	0.965889	-0.574427	-0.810098	-0.117370	0.777613	-0.584837	0.230832
58503	9.433477	-1.155675	2.245432	0.002532	-0.002298	0.004638	-0.255623	0.041325	0.965893	-0.574435	-0.810093	-0.117365	0.777613	-0.584844	0.230817
58504	9.452319	-1.124954	2.285883	-0.000316	-0.002605	0.005248	-0.255609	0.041316	0.965897	-0.574464	-0.810071	-0.117373	0.777595	-0.584875	0.230796
58505	9.479861	-1.175423	2.223282	0.006249	-0.001926	0.006800	-0.255609	0.041298	0.965898	-0.574438	-0.810088	-0.117380	0.777615	-0.584852	0.230789
58506	9.452242	-1.125959	2.285708	0.000413	0.001249	0.005455	-0.255626	0.041307	0.965893	-0.574462	-0.810070	-0.117390	0.777592	-0.584877	0.230804
58507	9.465993	-1.151287	2.254432	0.004846	-0.003296	0.003036	-0.255593	0.041311	0.965901	-0.574456	-0.810078	-0.117363	0.777607	-0.584865	0.230782
58508	9.456193	-1.150670	2.287438	0.003597	0.000315	0.006624	-0.255608	0.041309	0.965898	-0.574448	-0.810082	-0.117373	0.777608	-0.584859	0.230793
58509	9.456134	-1.151254	2.287387	0.003400	-0.002233	0.007411	-0.255608	0.041284	0.965899	-0.574442	-0.810084	-0.117392	0.777612	-0.584859	0.230779
58510	9.469862	-1.176709	2.256122	0.002728	0.000250	0.003853	-0.255608	0.041302	0.965898	-0.574450	-0.810080	-0.117379	0.777607	-0.584863	0.230789
58511	9.419392	-1.134248	2.276120	0.005119	0.001742	0.005927	-0.255631	0.041313	0.965891	-0.574434	-0.810091	-0.117380	0.777610	-0.584847	0.230816
58512	9.444504	-1.156210	2.266263	0.002074	-0.001112	0.007323	-0.255639	0.041293	0.965890	-0.574441	-0.810082	-0.117404	0.777603	-0.584860	0.230809
58513	9.451869	-1.129155	2.285671	0.006444	0.000622	0.006016	-0.255654	0.041296	0.965886	-0.574415	-0.810101	-0.117403	0.777617	-0.584834	0.230827
58514	9.473612	-1.202579	2.258044	0.001800	-0.006150	0.004434	-0.255601	0.041338	0.965898	-0.574284	-0.810210	-0.117295	0.777731	-0.584681	0.230830
58515	9.429036	-1.136968	2.242708	0.002392	0.001492	0.002074	-0.255600	0.041378	0.965897	-0.574300	-0.810203	-0.117266	0.777720	-0.584687	0.230852
58516	9.440397	-1.133875	2.264016	0.001084	-0.001232	0.009015	-0.255617	0.041343	0.965894	-0.574310	-0.810189	-0.117308	0.777707	-0.584709	0.230842
58517	9.458082	-1.183476	2.234660	0.005911	-0.000684	0.005023	-0.255616	0.041347	0.965894	-0.574291	-0.810204	-0.117299	0.777721	-0.584688	0.230846
58518	9.472896	-1.128753	2.273499	0.002271	0.001437	0.006538	-0.255638	0.041352	0.965888	-0.574291	-0.810202	-0.117309	0.777714	-0.584690	0.230867
58519	9.479137	-1.181696	2.223042	0.003717	0.000371	0.002163	-0.255629	0.041385	0.965889	-0.574297	-0.810203	-0.117277	0.777713	-0.584686	0.230879
58520	9.447606	-1.107956	2.283551	0.003063	-0.000990	0.005634	-0.255628	0.041381	0.965889	-0.574290	-0.810208	-0.117278	0.777718	-0.584680	0.230876
58521	9.480686	-1.177920	2.277434	0.003596	0.000316	0.006627	-0.255644	0.041378	0.965885	-0.574285	-0.810210	-0.117289	0.777717	-0.584677	0.230888
58522	9.411395	-1.166598	2.256629	0.002194	-0.001055	0.002861	-0.255626	0.041397	0.965889	-0.574295	-0.810206	-0.117265	0.777714	-0.584682	0.230884
58523	9.455472	-1.157127	2.287160	0.001996	-0.003602	0.003648	-0.255595	0.041394	0.965897	-0.574310	-0.810197	-0.117252	0.777714	-0.584694	0.230856
58524	9.474978	-1.159597	2.220904	0.004129	0.001623	0.007620	-0.255629	0.041391	0.965888	-0.574297	-0.810204	-0.117272	0.777712	-0.584685	0.230882
58525	9.435976	-1.113655	2.262073	0.001204	-0.001175	0.004553	-0.255622	0.041396	0.965890	-0.574316	-0.810191	-0.117269	0.777701	-0.584702	0.230877
58526	9.463286	-1.206523	2.290818	0.002529	-0.002296	0.004642	-0.255602	0.041391	0.965896	-0.574330	-0.810182	-0.117264	0.777697	-0.584716	0.230856
58527	9.447363	-1.110902	2.283126	0.001737	0.000131	0.005546	-0.255610	0.041395	0.965893	-0.574341	-0.810173	-0.117270	0.777686	-0.584728	0.230863
58528	9.490195	-1.181716	2.243989	0.005574	0.000557	0.003245	-0.255608	0.041421	0.965893	-0.574324	-0.810189	-0.117242	0.777699	-0.584703	0.230880
58529	9.435851	-1.115092	2.261889	0.002528	-0.002295	0.004642	-0.255592	0.041418	0.965897	-0.574332	-0.810184	-0.117237	0.777699	-0.584710	0.230864
58530	9.464972	-1.160975	2.253751	0.003062	-0.000989	0.005635	-0.255593	0.041415	0.965897	-0.574333	-0.810183	-0.117241	0.777697	-0.584713	0.230863
58531	9.439757	-1.139990	2.263613	0.003062	-0.000989	0.005635	-0.255594	0.041412	0.965897	-0.574335	-0.810181	-0.117244	0.777696	-0.584715	0.230861
58532	9.468386	-1.110298	2.271093	0.003061	-0.000989	0.005635	-0.255593	0.041408	0.965897	-0.574330	-0.810185	-0.117245	0.777700	-0.584711	0.230860
58533	9.459035	-1.185366	2.288585	0.003061	-0.000989	0.005636	-0.255593	0.041405	0.965897	-0.574331	-0.810183	-0.117248	0.777699	-0.584713	0.230858
58534	9.460824	-1.138829	2.251656	0.001737	0.000132	0.005547	-0.255600	0.041406	0.965896	-0.574343	-0.810174	-0.117255	0.777688	-0.584726	0.230862
58535	9.443527	-1.165816	2.265410	0.005909	-0.000683	0.005026	-0.255599	0.041410	0.965896	-0.574324	-0.810189	-0.117245	0.777703	-0.584705	0.230866
58536	9.460736	-1.139556	2.251657	0.004051	-0.000869	0.003945	-0.255588	0.041419	0.965898	-0.574324	-0.810191	-0.117231	0.777706	-0.584701	0.230863
58537	9.464683	-1.163903	2.253456	0.002527	-0.002294	0.004643	-0.255572	0.041416	0.965902	-0.574332	-0.810186	-0.117226	0.777705	-0.584708	0.230847
58538	9.439456	-1.143007	2.263348	0.001280	0.001320	0.008232	-0.255603	0.041404	0.965895	-0.574339	-0.810176	-0.117257	0.777690	-0.584722	0.230863
58539	9.464575	-1.164933	2.253374	0.004841	-0.003296	0.003042	-0.255570	0.041408	0.965903	-0.574333	-0.810184	-0.117231	0.777706	-0.584711	0.230841
58540	9.423993	-1.123485	2.240001	0.002605	0.000200	0.008321	-0.255594	0.041389	0.965898	-0.574331	-0.810181	-0.117262	0.777699	-0.584717	0.230848
58541	9.475920	-1.162395	2.274493	0.004384	-0.002108	0.005726	-0.255586	0.041378	0.965900	-0.574322	-0.810187	-0.117263	0.777708	-0.584709	0.230837
58542	9.450740	-1.141288	2.284315	0.004050	-0.000869	0.003946	-0.255578	0.041389	0.965902	-0.574326	-0.810186	-0.117250	0.777708	-0.584709	0.230837
58543	9.443230	-1.169225	2.264894	0.001202	-0.001173	0.004555	-0.255571	0.041394	0.965904	-0.574345	-0.810174	-0.117247	0.777697	-0.584727	0.230831
58544	9.460445	-1.142956	2.251158	0.005573	0.000557	0.003247	-0.255570	0.041420	0.965903	-0.574329	-0.810188	-0.117220	0.777708	-0.584704	0.230849
58545	9.460395	-1.143260	2.251213	-0.000122	-0.000052	0.004466	-0.255571	0.041432	0.965902	-0.574358	-0.810168	-0.117219	0.777686	-0.584732	0.230852
58546	9.468229	-1.191797	2.255056	0.006775	-0.000616	0.007803	-0.255587	0.041415	0.965899	-0.574325	-0.810190	-0.117234	0.777706	-0.584703	0.230860
58547	9.435081	-1.122956	2.261209	0.001280	0.001322	0.008233	-0.255620	0.041404	0.965890	-0.574333	-0.810179	-0.117266	0.777689	-0.584718	0.230878
58548	9.450370	-1.144010	2.284485	0.001736	0.000134	0.005549	-0.255631	0.041410	0.965887	-0.574346	-0.810169	-0.117272	0.777675	-0.584732	0.230888
58549	9.456139	-1.121509	2.249452	0.003059	-0.000987	0.005638	-0.255631	0.041407	0.965887	-0.574348	-0.810167	-0.117275	0.777674	-0.584734	0.230886
58550	9.460037	-1.145971	2.251340	-0.000122	-0.000051	0.004466	-0.255631	0.041418	0.965887	-0.574373	-0.810150	-0.117273	0.777656	-0.584758	0.230889
58551	9.475362	-1.166885	2.274518	0.004917	-0.000801	0.006721	-0.255639	0.041408	0.965885	-0.574357	-0.810160	-0.117282	0.777665	-0.584745	0.230891
58552	9.428955	-1.148346	2.296275	0.002725	0.000253	0.003857	-0.255636	0.041426	0.965885	-0.574366	-0.810156	-0.117268	0.777659	-0.584749	0.230899
58553	9.434692	-1.125820	2.261407	0.000946	0.002563	0.006452	-0.255669	0.041438	0.965876	-0.574382	-0.810142	-0.117283	0.777637	-0.584767	0.230929
58554	9.471172	-1.144377	2.272874	0.003926	-0.000919	0.008414	-0.255685	0.041412	0.965873	-0.574369	-0.810147	-0.117311	0.777641	-0.584762	0.230929
58555	9.471154	-1.144820	2.272725	0.004838	-0.003296	0.003044	-0.255652	0.041417	0.965881	-0.574363	-0.810155	-0.117285	0.777656	-0.584751	0.230907
58556	9.459709	-1.148700	2.251324	-0.000122	-0.000050	0.004467	-0.255652	0.041430	0.965881	-0.574393	-0.810135	-0.117282	0.777634	-0.584778	0.230910
58557	9.427033	-1.155127	2.241846	0.002191	-0.001054	0.002865	-0.255636	0.041450	0.965884	-0.574408	-0.810127	-0.117260	0.777628	-0.584787	0.230907
58558	9.471074	-1.145830	2.272551	0.003592	0.000321	0.006633	-0.255654	0.041446	0.965880	-0.574405	-0.810127	-0.117273	0.777625	-0.584788	0.230919
58559	9.457903	-1.154517	2.196901	0.001201	-0.001171	0.004557	-0.255646	0.041451	0.965881	-0.574424	-0.810114	-0.117270	0.777613	-0.584805	0.230913
58560	9.455602	-1.126249	2.249342	0.004582	0.000439	0.004941	-0.255653	0.041464	0.965879	-0.574413	-0.810123	-0.117260	0.777619	-0.584791	0.230928
58561	9.463410	-1.174781	2.253158	0.003391	-0.002225	0.007423	-0.255654	0.041439	0.965880	-0.574407	-0.810125	-0.117280	0.777623	-0.584791	0.230914
58562	9.451564	-1.103291	2.247350	0.000411	0.001257	0.005460	-0.255671	0.041450	0.965875	-0.574434	-0.810104	-0.117290	0.777597	-0.584819	0.230931
58563	9.474718	-1.172257	2.274435	0.003058	-0.000985	0.005641	-0.255672	0.041447	0.965875	-0.574436	-0.810102	-0.117293	0.777596	-0.584821	0.230929
58564	9.422743	-1.134262	2.239828	0.004048	-0.000868	0.003949	-0.255664	0.041458	0.965876	-0.574441	-0.810100	-0.117281	0.777595	-0.584824	0.230928
58565	9.491935	-1.146552	2.260524	0.003390	-0.002224	0.007423	-0.255665	0.041433	0.965877	-0.574435	-0.810102	-0.117300	0.777599	-0.584824	0.230915
58566	9.438007	-1.155690	2.262948	0.005116	0.001746	0.005935	-0.255685	0.041441	0.965872	-0.574417	-0.810115	-0.117301	0.777606	-0.584805	0.230939
58567	9.466662	-1.126036	2.270534	0.003057	-0.000985	0.005641	-0.255685	0.041438	0.965872	-0.574418	-0.810113	-0.117304	0.777605	-0.584807	0.230937
58568	9.449316	-1.153150	2.284249	0.003924	-0.000916	0.008417	-0.255699	0.041411	0.965869	-0.574399	-0.810123	-0.117330	0.777614	-0.584795	0.230934
58569	9.433916	-1.133252	2.260934	0.002522	-0.002292	0.004649	-0.255683	0.041408	0.965873	-0.574407	-0.810118	-0.117324	0.777614	-0.584802	0.230919
58570	9.474312	-1.175735	2.274333	0.001480	0.003873	0.007447	-0.255730	0.041419	0.965861	-0.574415	-0.810109	-0.117347	0.777592	-0.584814	0.230961
58571	9.470370	-1.152058	2.272333	0.003766	-0.005910	0.001061	-0.255665	0.041424	0.965877	-0.574422	-0.810110	-0.117304	0.777608	-0.584812	0.230912
58572	9.458941	-1.155837	2.250901	0.003258	0.001561	0.004852	-0.255681	0.041444	0.965873	-0.574428	-0.810107	-0.117300	0.777599	-0.584815	0.230935
58573	9.470307	-1.152633	2.272307	0.004581	0.000440	0.004943	-0.255688	0.041455	0.965870	-0.574419	-0.810114	-0.117292	0.777603	-0.584804	0.230949
58574	9.458827	-1.156586	2.250995	0.002522	-0.002291	0.004650	-0.255673	0.041453	0.965874	-0.574426	-0.810110	-0.117287	0.777603	-0.584811	0.230935
58575	9.437576	-1.159548	2.262772	0.003591	0.000323	0.006636	-0.255689	0.041449	0.965870	-0.574421	-0.810112	-0.117298	0.777601	-0.584808	0.230946
58576	9.458729	-1.157405	2.250986	0.006894	-0.000565	0.003341	-0.255680	0.041470	0.965872	-0.574397	-0.810133	-0.117268	0.777622	-0.584777	0.230955
58577	9.458640	-1.158062	2.251021	0.002476	0.000160	0.012798	-0.255731	0.041415	0.965861	-0.574385	-0.810132	-0.117342	0.777614	-0.584783	0.230964
58578	9.454670	-1.134547	2.249087	0.004170	-0.000820	-0.000518	-0.255697	0.041464	0.965867	-0.574389	-0.810137	-0.117280	0.777622	-0.584772	0.230966
58579	9.454621	-1.134851	2.249142	0.001277	0.001329	0.008239	-0.255730	0.041454	0.965859	-0.574397	-0.810127	-0.117313	0.777605	-0.584787	0.230985
58580	9.427490	-1.160696	2.296084	0.005036	-0.000751	0.002258	-0.255713	0.041478	0.965863	-0.574396	-0.810132	-0.117281	0.777612	-0.584778	0.230986
58581	9.465977	-1.131978	2.270434	0.003055	-0.000983	0.005644	-0.255713	0.041475	0.965863	-0.574397	-0.810131	-0.117285	0.777611	-0.584780	0.230984
58582	9.437160	-1.162572	2.262956	0.003590	0.000324	0.006637	-0.255727	0.041468	0.965859	-0.574392	-0.810133	-0.117298	0.777610	-0.584778	0.230992
58583	9.433176	-1.139095	2.261083	0.003590	0.000324	0.006637	-0.255743	0.041465	0.965855	-0.574387	-0.810135	-0.117309	0.777609	-0.584775	0.231003
58584	9.479449	-1.158555	2.239330	0.005368	-0.001989	0.004043	-0.255724	0.041467	0.965860	-0.574372	-0.810148	-0.117291	0.777626	-0.584757	0.230991
58585	9.486941	-1.131602	2.258567	-0.001239	-0.000208	0.010633	-0.255759	0.041428	0.965853	-0.574394	-0.810124	-0.117352	0.777598	-0.584794	0.230992
58586	9.454262	-1.138087	2.249016	0.006813	-0.003064	-0.000336	-0.255709	0.041463	0.965864	-0.574381	-0.810142	-0.117288	0.777624	-0.584766	0.230976
58587	9.458131	-1.162392	2.250929	0.001277	0.001331	0.008240	-0.255743	0.041453	0.965856	-0.574390	-0.810131	-0.117320	0.777607	-0.584782	0.230995
58588	9.479255	-1.160523	2.239133	0.003054	-0.000982	0.005645	-0.255743	0.041451	0.965856	-0.574390	-0.810131	-0.117321	0.777606	-0.584782	0.230995
58589	9.429032	-1.117853	2.258787	0.002520	-0.002290	0.004652	-0.255728	0.041448	0.965860	-0.574398	-0.810126	-0.117316	0.777606	-0.584789	0.230980
58590	9.448239	-1.162661	2.283883	0.002723	0.000255	0.003861	-0.255728	0.041468	0.965859	-0.574409	-0.810120	-0.117303	0.777597	-0.584796	0.230990
58591	9.465490	-1.136589	2.270159	0.003589	0.000325	0.006639	-0.255744	0.041465	0.965855	-0.574404	-0.810122	-0.117315	0.777596	-0.584793	0.231001
58592	9.423035	-1.142076	2.293720	0.002850	-0.003527	0.006437	-0.255730	0.041441	0.965860	-0.574405	-0.810120	-0.117326	0.777600	-0.584798	0.230976
58593	9.459603	-1.160267	2.304905	0.007347	-0.001758	0.000658	-0.255696	0.041474	0.965867	-0.574385	-0.810141	-0.117271	0.777625	-0.584766	0.230972
58594	9.454015	-1.141117	2.248519	0.003054	-0.000981	0.005646	-0.255695	0.041469	0.965868	-0.574387	-0.810139	-0.117276	0.777624	-0.584769	0.230968
58595	9.448060	-1.164633	2.283616	0.001276	0.001333	0.008241	-0.255729	0.041458	0.965859	-0.574396	-0.810129	-0.117308	0.777607	-0.584784	0.230986
58596	9.457731	-1.166357	2.250557	0.003054	-0.000981	0.005647	-0.255727	0.041455	0.965860	-0.574399	-0.810126	-0.117311	0.777605	-0.584788	0.230983
58597	9.472811	-1.111653	2.289176	0.003588	0.000326	0.006640	-0.255743	0.041451	0.965856	-0.574393	-0.810128	-0.117322	0.777604	-0.584785	0.230994
58598	9.471226	-1.192524	2.219473	0.001732	0.000141	0.005556	-0.255753	0.041457	0.965853	-0.574402	-0.810121	-0.117326	0.777594	-0.584794	0.231004
58599	9.411259	-1.148710	2.272264	0.002518	-0.002289	0.004654	-0.255738	0.041455	0.965857	-0.574410	-0.810117	-0.117321	0.777593	-0.584801	0.230989
58600	9.474871	-1.141726	2.236602	0.001197	-0.001166	0.004563	-0.255731	0.041461	0.965858	-0.574433	-0.810100	-0.117319	0.777578	-0.584823	0.230985
58601	9.472815	-1.189068	2.273637	0.006435	0.000627	0.006032	-0.255747	0.041464	0.965854	-0.574407	-0.810119	-0.117318	0.777592	-0.584797	0.231002
58602	9.438192	-1.124561	2.225400	0.003257	0.001564	0.004856	-0.255766	0.041485	0.965848	-0.574409	-0.810118	-0.117313	0.777585	-0.584797	0.231030
58603	9.464950	-1.141706	2.269844	0.004830	-0.003296	0.003053	-0.255733	0.041489	0.965857	-0.574403	-0.810126	-0.117287	0.777600	-0.584786	0.231008
58604	9.443711	-1.144613	2.281582	0.002597	0.000213	0.008334	-0.255759	0.041474	0.965850	-0.574398	-0.810126	-0.117314	0.777595	-0.584787	0.231020
58605	9.468728	-1.166692	2.271710	0.004043	-0.000866	0.003955	-0.255751	0.041486	0.965852	-0.574396	-0.810130	-0.117299	0.777600	-0.584781	0.231021
58606	9.432146	-1.149022	2.260359	0.004578	0.000442	0.004948	-0.255760	0.041498	0.965849	-0.574386	-0.810138	-0.117291	0.777604	-0.584768	0.231037
58607	9.485966	-1.140958	2.257954	0.003052	-0.000980	0.005648	-0.255760	0.041495	0.965849	-0.574387	-0.810137	-0.117294	0.777603	-0.584770	0.231035
58608	9.468611	-1.167825	2.271617	0.000661	-0.002473	0.003571	-0.255737	0.041500	0.965855	-0.574415	-0.810119	-0.117284	0.777590	-0.584795	0.231015
58609	9.439658	-1.122693	2.279332	0.003382	-0.002216	0.007434	-0.255738	0.041475	0.965856	-0.574409	-0.810120	-0.117303	0.777594	-0.584795	0.231002
58610	9.460901	-1.196496	2.252263	0.004327	0.004180	0.006843	-0.255783	0.041494	0.965843	-0.574392	-0.810130	-0.117312	0.777591	-0.584779	0.231051
58611	9.472140	-1.117740	2.288986	0.005694	-0.003224	0.005833	-0.255767	0.041476	0.965848	-0.574373	-0.810145	-0.117311	0.777611	-0.584761	0.231031
58612	9.468390	-1.169819	2.271513	0.003052	-0.000979	0.005649	-0.255771	0.041472	0.965847	-0.574380	-0.810138	-0.117318	0.777605	-0.584770	0.231031
58613	9.449166	-1.125754	2.246291	0.005898	-0.000680	0.005041	-0.255770	0.041476	0.965847	-0.574361	-0.810153	-0.117309	0.777619	-0.584749	0.231035
58614	9.443233	-1.149037	2.281334	0.003051	-0.000979	0.005650	-0.255766	0.041470	0.965849	-0.574364	-0.810151	-0.117312	0.777618	-0.584753	0.231028
58615	9.485598	-1.144582	2.257666	0.004577	0.000443	0.004949	-0.255774	0.041481	0.965846	-0.574355	-0.810158	-0.117305	0.777622	-0.584742	0.231042
58616	9.431673	-1.153357	2.260125	0.004042	-0.000865	0.003956	-0.255765	0.041494	0.965848	-0.574351	-0.810163	-0.117288	0.777627	-0.584734	0.231044
58617	9.464312	-1.147795	2.269435	0.003381	-0.002215	0.007436	-0.255766	0.041469	0.965849	-0.574346	-0.810164	-0.117308	0.777631	-0.584734	0.231030
58618	9.431537	-1.154457	2.260129	0.001480	0.003882	0.007452	-0.255814	0.041481	0.965836	-0.574352	-0.810156	-0.117330	0.777611	-0.584744	0.231073
58619	9.475584	-1.145408	2.290872	0.005692	-0.003223	0.005835	-0.255797	0.041463	0.965841	-0.574332	-0.810170	-0.117329	0.777631	-0.584726	0.231053
58620	9.446763	-1.175768	2.283277	0.002186	-0.001050	0.002872	-0.255783	0.041483	0.965844	-0.574346	-0.810164	-0.117307	0.777626	-0.584733	0.231052
58621	9.456383	-1.101614	2.265487	0.001730	0.000144	0.005559	-0.255792	0.041487	0.965841	-0.574357	-0.810155	-0.117312	0.777614	-0.584746	0.231059
58622	9.467865	-1.174183	2.271447	0.001730	0.000145	0.005559	-0.255799	0.041492	0.965839	-0.574368	-0.810147	-0.117316	0.777604	-0.584757	0.231066
58623	9.471567	-1.123050	2.288758	0.004906	-0.000792	0.006737	-0.255807	0.041481	0.965838	-0.574353	-0.810157	-0.117325	0.777613	-0.584744	0.231069
58624	9.467736	-1.175135	2.271494	0.004577	0.000443	0.004951	-0.255814	0.041490	0.965835	-0.574346	-0.810162	-0.117320	0.777616	-0.584736	0.231080
58625	9.415876	-1.136980	2.236855	0.005361	-0.001987	0.004050	-0.255797	0.041494	0.965840	-0.574334	-0.810174	-0.117303	0.777630	-0.584720	0.231071
58626	9.488846	-1.173539	2.259642	0.001274	0.001340	0.008247	-0.255830	0.041483	0.965831	-0.574350	-0.810157	-0.117337	0.777607	-0.584744	0.231088
58627	9.431052	-1.158414	2.260131	0.002185	-0.001050	0.002872	-0.255813	0.041502	0.965835	-0.574365	-0.810149	-0.117316	0.777601	-0.584753	0.231084
58628	9.459861	-1.128749	2.267469	0.006226	-0.001914	0.006830	-0.255810	0.041484	0.965836	-0.574331	-0.810173	-0.117319	0.777628	-0.584722	0.231076
58629	9.456048	-1.180786	2.250105	0.004041	-0.000864	0.003958	-0.255802	0.041495	0.965838	-0.574329	-0.810176	-0.117304	0.777632	-0.584716	0.231077
58630	9.455948	-1.105499	2.265411	0.001729	0.000146	0.005560	-0.255810	0.041499	0.965836	-0.574338	-0.810169	-0.117308	0.777623	-0.584725	0.231083
58631	9.446196	-1.180471	2.283195	0.003049	-0.000977	0.005653	-0.255810	0.041496	0.965836	-0.574340	-0.810168	-0.117311	0.777621	-0.584727	0.231082
58632	9.449965	-1.129252	2.300361	0.002513	-0.002285	0.004660	-0.255796	0.041493	0.965840	-0.574348	-0.810163	-0.117307	0.777620	-0.584734	0.231068
58633	9.455850	-1.182498	2.250038	0.003792	0.002875	0.005852	-0.255828	0.041511	0.965831	-0.574343	-0.810166	-0.117310	0.777613	-0.584729	0.231105
58634	9.455750	-1.107271	2.265374	0.005689	-0.003222	0.005839	-0.255811	0.041493	0.965836	-0.574320	-0.810183	-0.117308	0.777636	-0.584707	0.231084
58635	9.446012	-1.182045	2.283145	0.002391	0.001494	0.002079	-0.255810	0.041533	0.965834	-0.574335	-0.810176	-0.117279	0.777625	-0.584714	0.231106
58636	9.459471	-1.132050	2.267452	0.004449	0.000405	0.009427	-0.255842	0.041506	0.965827	-0.574317	-0.810184	-0.117316	0.777628	-0.584705	0.231117
58637	9.476805	-1.181893	2.238324	0.001193	-0.001162	0.004568	-0.255835	0.041510	0.965829	-0.574335	-0.810171	-0.117313	0.777617	-0.584722	0.231111
58638	9.438176	-1.135380	2.279185	0.005359	-0.001987	0.004053	-0.255820	0.041514	0.965833	-0.574317	-0.810186	-0.117295	0.777635	-0.584701	0.231104
58639	9.438142	-1.135753	2.279138	0.001729	0.000147	0.005561	-0.255828	0.041518	0.965830	-0.574329	-0.810177	-0.117300	0.777623	-0.584713	0.231111
58640	9.466927	-1.181852	2.271380	0.003256	0.001568	0.004860	-0.255841	0.041536	0.965826	-0.574325	-0.810181	-0.117293	0.777622	-0.584707	0.231132
58641	9.426510	-1.140239	2.258122	0.003584	0.000333	0.006648	-0.255857	0.041532	0.965822	-0.574320	-0.810183	-0.117304	0.777620	-0.584704	0.231144
58642	9.474457	-1.155066	2.290681	0.004823	-0.003295	0.003060	-0.255828	0.041537	0.965830	-0.574321	-0.810186	-0.117282	0.777630	-0.584700	0.231124
58643	9.466795	-1.107450	2.286546	0.003912	-0.000902	0.008436	-0.255845	0.041512	0.965826	-0.574308	-0.810190	-0.117310	0.777633	-0.584695	0.231124
58644	9.441692	-1.161913	2.281193	0.002391	0.001494	0.002079	-0.255842	0.041550	0.965825	-0.574325	-0.810182	-0.117281	0.777622	-0.584703	0.231142
58645	9.462841	-1.159777	2.269476	0.004575	0.000445	0.004954	-0.255849	0.041561	0.965823	-0.574317	-0.810190	-0.117274	0.777626	-0.584693	0.231156
58646	9.458967	-1.136162	2.267500	0.003047	-0.000975	0.005655	-0.255852	0.041560	0.965822	-0.574319	-0.810188	-0.117278	0.777623	-0.584696	0.231157
58647	9.441551	-1.162942	2.281254	0.005358	-0.001986	0.004054	-0.255836	0.041564	0.965826	-0.574306	-0.810199	-0.117260	0.777638	-0.584680	0.231148
58648	9.458911	-1.136900	2.267361	0.001728	0.000148	0.005562	-0.255845	0.041567	0.965824	-0.574316	-0.810191	-0.117266	0.777628	-0.584690	0.231156
58649	9.483864	-1.159006	2.257593	0.006430	0.000631	0.006041	-0.255860	0.041571	0.965820	-0.574290	-0.810210	-0.117265	0.777642	-0.584664	0.231174
58650	9.462587	-1.161834	2.269481	0.003047	-0.000974	0.005656	-0.255857	0.041564	0.965821	-0.574296	-0.810205	-0.117270	0.777638	-0.584671	0.231167
58651	9.416348	-1.142883	2.291025	0.004821	-0.003295	0.003062	-0.255825	0.041569	0.965829	-0.574290	-0.810213	-0.117245	0.777653	-0.584660	0.231145
58652	9.458755	-1.138378	2.267270	0.001400	0.001383	0.003775	-0.255832	0.041595	0.965826	-0.574308	-0.810202	-0.117232	0.777638	-0.584673	0.231164
58653	9.462508	-1.162805	2.269316	0.003047	-0.000974	0.005657	-0.255833	0.041592	0.965826	-0.574309	-0.810201	-0.117235	0.777637	-0.584675	0.231163
58654	9.458655	-1.139240	2.267257	0.003046	-0.000974	0.005657	-0.255826	0.041585	0.965828	-0.574306	-0.810203	-0.117237	0.777641	-0.584673	0.231154
58655	9.458621	-1.139614	2.267210	0.004038	-0.000863	0.003962	-0.255818	0.041596	0.965830	-0.574304	-0.810206	-0.117221	0.777645	-0.584667	0.231154
58656	9.462397	-1.164102	2.269112	0.003374	-0.002208	0.007446	-0.255821	0.041570	0.965830	-0.574306	-0.810201	-0.117246	0.777643	-0.584676	0.231140
58657	9.483566	-1.162198	2.257203	0.002719	0.000260	0.003869	-0.255820	0.041588	0.965829	-0.574315	-0.810197	-0.117233	0.777637	-0.584680	0.231150
58658	9.472046	-1.166174	2.235953	0.003046	-0.000973	0.005657	-0.255821	0.041583	0.965830	-0.574321	-0.810192	-0.117239	0.777632	-0.584688	0.231146
58659	9.454640	-1.117537	2.264964	0.001063	-0.001195	0.009048	-0.255839	0.041551	0.965826	-0.574329	-0.810180	-0.117280	0.777620	-0.584707	0.231140
58660	9.450740	-1.169708	2.247594	0.003501	-0.002172	0.002970	-0.255815	0.041561	0.965832	-0.574341	-0.810174	-0.117260	0.777619	-0.584714	0.231125
58661	9.425688	-1.148334	2.257451	0.003255	0.001569	0.004862	-0.255830	0.041579	0.965827	-0.574343	-0.810174	-0.117255	0.777612	-0.584713	0.231148
58662	9.483352	-1.164425	2.256956	0.003828	-0.003405	0.004759	-0.255805	0.041569	0.965834	-0.574337	-0.810179	-0.117245	0.777625	-0.584707	0.231123
58663	9.458297	-1.143160	2.266774	0.005110	0.001755	0.005949	-0.255828	0.041580	0.965828	-0.574322	-0.810190	-0.117247	0.777629	-0.584691	0.231150
58664	9.433246	-1.121892	2.276590	0.003828	-0.003405	0.004759	-0.255803	0.041569	0.965835	-0.574318	-0.810194	-0.117239	0.777640	-0.584686	0.231124
58665	9.462037	-1.167994	2.268616	-0.000128	-0.000035	0.004477	-0.255804	0.041581	0.965834	-0.574347	-0.810173	-0.117238	0.777618	-0.584714	0.231128
58666	9.458219	-1.144386	2.266483	0.005682	-0.003219	0.005847	-0.255791	0.041565	0.965838	-0.574323	-0.810190	-0.117236	0.777640	-0.584691	0.231111
58667	9.436972	-1.147307	2.278199	0.003908	-0.000897	0.008441	-0.255808	0.041540	0.965835	-0.574311	-0.810195	-0.117264	0.777644	-0.584686	0.231111
58668	9.446656	-1.149039	2.245059	0.004036	-0.000862	0.003964	-0.255800	0.041553	0.965836	-0.574305	-0.810202	-0.117246	0.777650	-0.584676	0.231113
58669	9.479311	-1.143472	2.254404	0.003045	-0.000972	0.005659	-0.255800	0.041550	0.965836	-0.574307	-0.810200	-0.117249	0.777649	-0.584679	0.231112
58670	9.415643	-1.150980	2.289869	0.004363	-0.002095	0.005754	-0.255793	0.041539	0.965839	-0.574300	-0.810204	-0.117252	0.777656	-0.584674	0.231100
58671	9.479249	-1.144387	2.254198	0.003045	-0.000972	0.005660	-0.255793	0.041536	0.965839	-0.574302	-0.810203	-0.117256	0.777655	-0.584676	0.231099
58672	9.461739	-1.171379	2.268113	0.001271	0.001351	0.008254	-0.255826	0.041525	0.965831	-0.574313	-0.810190	-0.117289	0.777636	-0.584694	0.231116
58673	9.451957	-1.170458	2.301247	0.007337	-0.001766	0.000668	-0.255792	0.041557	0.965838	-0.574293	-0.810212	-0.117234	0.777662	-0.584662	0.231111
58674	9.432922	-1.125978	2.275917	0.005027	-0.000752	0.002269	-0.255772	0.041581	0.965843	-0.574288	-0.810220	-0.117200	0.777672	-0.584649	0.231111
58675	9.457858	-1.148256	2.266030	0.001924	-0.001114	0.011834	-0.255807	0.041527	0.965836	-0.574283	-0.810215	-0.117266	0.777665	-0.584660	0.231106
58676	9.494251	-1.167049	2.277425	0.002718	0.000262	0.003871	-0.255804	0.041542	0.965836	-0.574295	-0.810208	-0.117255	0.777657	-0.584669	0.231112
58677	9.436506	-1.151620	2.277950	0.004572	0.000448	0.004958	-0.255811	0.041553	0.965833	-0.574286	-0.810215	-0.117248	0.777661	-0.584658	0.231126
58678	9.446180	-1.153208	2.244922	0.002717	0.000262	0.003871	-0.255810	0.041572	0.965833	-0.574293	-0.810212	-0.117234	0.777656	-0.584660	0.231135
58679	9.457617	-1.150082	2.266111	0.003370	-0.002203	0.007451	-0.255811	0.041547	0.965834	-0.574287	-0.810214	-0.117254	0.777660	-0.584660	0.231122
58680	9.415140	-1.155248	2.289789	0.004572	0.000448	0.004959	-0.255818	0.041556	0.965831	-0.574282	-0.810218	-0.117248	0.777661	-0.584654	0.231134
58681	9.468971	-1.147505	2.287372	0.000734	0.000044	0.007263	-0.255836	0.041546	0.965827	-0.574298	-0.810203	-0.117273	0.777644	-0.584675	0.231139
58682	9.461233	-1.175396	2.268143	0.004164	-0.000829	-0.000513	-0.255801	0.041595	0.965834	-0.574306	-0.810206	-0.117212	0.777649	-0.584667	0.231140
58683	9.443921	-1.126246	2.297243	0.000408	0.001277	0.005472	-0.255818	0.041607	0.965829	-0.574328	-0.810189	-0.117220	0.777627	-0.584690	0.231157
58684	9.478576	-1.149722	2.254316	0.006215	-0.001908	0.006844	-0.255819	0.041588	0.965830	-0.574304	-0.810205	-0.117229	0.777645	-0.584670	0.231150
58685	9.436110	-1.154803	2.277980	0.005889	-0.000676	0.005054	-0.255818	0.041591	0.965830	-0.574285	-0.810220	-0.117220	0.777659	-0.584649	0.231154
58686	9.445753	-1.156476	2.245038	0.003790	0.002881	0.005858	-0.255847	0.041610	0.965821	-0.574275	-0.810227	-0.117219	0.777657	-0.584637	0.231190
58687	9.449445	-1.180969	2.247152	0.004360	-0.002093	0.005757	-0.255840	0.041600	0.965824	-0.574266	-0.810233	-0.117220	0.777666	-0.584629	0.231179
58688	9.453354	-1.129851	2.264223	0.002051	-0.001078	0.007359	-0.255847	0.041581	0.965823	-0.574268	-0.810229	-0.117242	0.777662	-0.584637	0.231173
58689	9.453307	-1.130429	2.264128	0.006214	-0.001907	0.006846	-0.255847	0.041563	0.965823	-0.574242	-0.810246	-0.117249	0.777682	-0.584614	0.231166
58690	9.472313	-1.175089	2.289365	0.004163	-0.000830	-0.000513	-0.255812	0.041611	0.965831	-0.574248	-0.810251	-0.117188	0.777689	-0.584604	0.231167
58691	9.445556	-1.158525	2.244813	0.003905	-0.000892	0.008447	-0.255829	0.041586	0.965827	-0.574235	-0.810256	-0.117216	0.777692	-0.584599	0.231167
58692	9.468505	-1.151782	2.287150	0.004814	-0.003294	0.003069	-0.255796	0.041590	0.965836	-0.574233	-0.810261	-0.117191	0.777705	-0.584592	0.231144
58693	9.457006	-1.155711	2.265797	0.001725	0.000155	0.005568	-0.255805	0.041594	0.965833	-0.574245	-0.810252	-0.117197	0.777693	-0.584604	0.231151
58694	9.453183	-1.132182	2.263770	0.004896	-0.000783	0.006752	-0.255811	0.041581	0.965832	-0.574228	-0.810262	-0.117207	0.777704	-0.584591	0.231151
58695	9.481861	-1.178442	2.255944	0.003042	-0.000968	0.005664	-0.255811	0.041578	0.965832	-0.574229	-0.810261	-0.117210	0.777702	-0.584593	0.231149
58696	9.445319	-1.160920	2.244571	0.001270	0.001357	0.008258	-0.255844	0.041568	0.965824	-0.574234	-0.810253	-0.117241	0.777688	-0.584605	0.231168
58697	9.477955	-1.155586	2.253929	0.002504	-0.002278	0.004671	-0.255829	0.041565	0.965828	-0.574242	-0.810248	-0.117236	0.777687	-0.584612	0.231153
58698	9.468263	-1.154399	2.286832	0.006797	-0.003078	-0.000322	-0.255777	0.041595	0.965841	-0.574234	-0.810263	-0.117175	0.777711	-0.584589	0.231132
58699	9.449245	-1.110203	2.261477	0.001270	0.001358	0.008259	-0.255810	0.041585	0.965832	-0.574242	-0.810252	-0.117207	0.777693	-0.584604	0.231150
58700	9.456673	-1.158796	2.265611	0.004033	-0.000860	0.003969	-0.255798	0.041593	0.965835	-0.574238	-0.810257	-0.117192	0.777700	-0.584597	0.231146
58701	9.431683	-1.137344	2.275398	0.004033	-0.000860	0.003969	-0.255789	0.041604	0.965837	-0.574236	-0.810261	-0.117177	0.777705	-0.584591	0.231147
58702	9.460361	-1.183493	2.267573	0.003041	-0.000968	0.005665	-0.255791	0.041601	0.965837	-0.574239	-0.810258	-0.117181	0.777702	-0.584595	0.231145
58703	9.474034	-1.133585	2.251568	0.003041	-0.000968	0.005665	-0.255791	0.041598	0.965837	-0.574240	-0.810257	-0.117184	0.777701	-0.584597	0.231144
58704	9.439060	-1.186867	2.279238	0.000520	-0.002492	0.008065	-0.255791	0.041566	0.965838	-0.574253	-0.810244	-0.117215	0.777692	-0.584618	0.231123
58705	9.441266	-1.140433	2.241983	0.004700	0.000479	0.000481	-0.255773	0.041613	0.965841	-0.574254	-0.810250	-0.117164	0.777697	-0.584606	0.231137
58706	9.456436	-1.161384	2.265275	0.001919	-0.001103	0.011844	-0.255807	0.041559	0.965834	-0.574246	-0.810246	-0.117229	0.777691	-0.584615	0.231132
58707	9.489096	-1.155962	2.274594	0.004162	-0.000831	-0.000512	-0.255773	0.041606	0.965841	-0.574255	-0.810248	-0.117170	0.777696	-0.584608	0.231133
58708	9.435169	-1.164305	2.277041	0.003040	-0.000967	0.005666	-0.255773	0.041601	0.965841	-0.574260	-0.810244	-0.117176	0.777692	-0.584614	0.231129
58709	9.441104	-1.141956	2.241891	0.002716	0.000264	0.003874	-0.255773	0.041620	0.965840	-0.574268	-0.810240	-0.117162	0.777686	-0.584619	0.231139
58710	9.467787	-1.159158	2.286395	0.001186	-0.001153	0.004577	-0.255765	0.041625	0.965842	-0.574286	-0.810228	-0.117158	0.777676	-0.584635	0.231133
58711	9.456261	-1.163191	2.265081	0.003040	-0.000967	0.005666	-0.255766	0.041622	0.965842	-0.574288	-0.810226	-0.117162	0.777674	-0.584637	0.231131
58712	9.452447	-1.139670	2.263088	0.002261	0.001467	0.006564	-0.255793	0.041624	0.965835	-0.574301	-0.810214	-0.117181	0.777656	-0.584654	0.231152
58713	9.444660	-1.167761	2.243796	0.005135	-0.004525	0.004865	-0.255761	0.041607	0.965844	-0.574288	-0.810225	-0.117172	0.777676	-0.584641	0.231118
58714	9.462133	-1.141621	2.229811	0.005237	0.001788	0.001475	-0.255656	0.041449	0.965879	-0.574268	-0.810230	-0.117232	0.777725	-0.584644	0.230943
58715	9.462083	-1.141927	2.229867	0.000194	-0.001259	0.006275	-0.255658	0.041439	0.965879	-0.574290	-0.810213	-0.117248	0.777708	-0.584670	0.230935
58716	9.446342	-1.163855	2.297994	0.004356	-0.002090	0.005763	-0.255651	0.041430	0.965881	-0.574279	-0.810220	-0.117248	0.777719	-0.584660	0.230925
58717	9.440794	-1.145194	2.241545	0.001723	0.000158	0.005572	-0.255659	0.041434	0.965879	-0.574291	-0.810211	-0.117254	0.777707	-0.584672	0.230933
58718	9.463747	-1.138376	2.283973	0.005347	-0.001984	0.004067	-0.255643	0.041438	0.965883	-0.574282	-0.810220	-0.117237	0.777719	-0.584660	0.230924
58719	9.477162	-1.164051	2.252907	0.004569	0.000451	0.004964	-0.255650	0.041449	0.965880	-0.574273	-0.810227	-0.117230	0.777723	-0.584649	0.230938
58720	9.434665	-1.169029	2.276707	0.001723	0.000159	0.005572	-0.255657	0.041450	0.965879	-0.574289	-0.810214	-0.117238	0.777709	-0.584666	0.230941
58721	9.440582	-1.146830	2.241603	0.003576	0.000344	0.006661	-0.255673	0.041447	0.965874	-0.574284	-0.810217	-0.117249	0.777708	-0.584663	0.230953
58722	9.444243	-1.171378	2.243668	0.003039	-0.000965	0.005668	-0.255674	0.041444	0.965874	-0.574285	-0.810215	-0.117253	0.777707	-0.584666	0.230951
58723	9.473201	-1.141815	2.250915	0.002177	-0.001045	0.002882	-0.255658	0.041462	0.965878	-0.574300	-0.810207	-0.117231	0.777701	-0.584675	0.230948
58724	9.451969	-1.144339	2.262728	0.004031	-0.000859	0.003972	-0.255645	0.041471	0.965881	-0.574298	-0.810211	-0.117215	0.777706	-0.584669	0.230944
58725	9.484644	-1.138849	2.272049	0.003039	-0.000965	0.005669	-0.255646	0.041468	0.965881	-0.574299	-0.810210	-0.117219	0.777705	-0.584671	0.230942
58726	9.448151	-1.121182	2.260632	0.003576	0.000345	0.006662	-0.255662	0.041462	0.965877	-0.574295	-0.810211	-0.117233	0.777703	-0.584671	0.230952
58727	9.484518	-1.139869	2.272066	0.003038	-0.000965	0.005669	-0.255663	0.041458	0.965877	-0.574297	-0.810209	-0.117237	0.777702	-0.584673	0.230950
58728	9.443993	-1.173806	2.243449	0.001185	-0.001150	0.004580	-0.255657	0.041465	0.965878	-0.574313	-0.810198	-0.117233	0.777691	-0.584688	0.230946
58729	9.459498	-1.119006	2.281787	0.003576	0.000346	0.006663	-0.255673	0.041461	0.965874	-0.574308	-0.810200	-0.117245	0.777690	-0.584685	0.230958
58730	9.488080	-1.165337	2.274049	0.003038	-0.000964	0.005670	-0.255670	0.041458	0.965875	-0.574302	-0.810204	-0.117243	0.777695	-0.584679	0.230955
58731	9.455365	-1.171519	2.264528	0.004808	-0.003293	0.003076	-0.255638	0.041462	0.965883	-0.574296	-0.810212	-0.117218	0.777710	-0.584668	0.230933
58732	9.476559	-1.169709	2.252511	0.003899	-0.000884	0.008457	-0.255651	0.041435	0.965881	-0.574284	-0.810217	-0.117245	0.777715	-0.584663	0.230929
58733	9.418871	-1.154356	2.252862	0.004353	-0.002089	0.005767	-0.255643	0.041424	0.965883	-0.574274	-0.810223	-0.117246	0.777724	-0.584655	0.230917
58734	9.476489	-1.170799	2.252241	0.001507	-0.002380	0.006374	-0.255637	0.041406	0.965886	-0.574286	-0.810213	-0.117262	0.777718	-0.584671	0.230899
58735	9.451542	-1.149437	2.261926	0.004030	-0.000858	0.003973	-0.255629	0.041417	0.965887	-0.574284	-0.810217	-0.117247	0.777722	-0.584665	0.230900
58736	9.469019	-1.123408	2.247979	0.000861	0.000080	0.002787	-0.255620	0.041442	0.965889	-0.574312	-0.810199	-0.117228	0.777704	-0.584687	0.230904
58737	9.458907	-1.198100	2.265967	0.002499	-0.002274	0.004678	-0.255604	0.041439	0.965893	-0.574320	-0.810194	-0.117223	0.777704	-0.584695	0.230888
58738	9.426552	-1.128648	2.271517	0.003037	-0.000964	0.005671	-0.255604	0.041437	0.965893	-0.574317	-0.810197	-0.117224	0.777706	-0.584692	0.230887
58739	9.476328	-1.172828	2.251860	0.003898	-0.000883	0.008458	-0.255621	0.041411	0.965890	-0.574304	-0.810201	-0.117252	0.777710	-0.584687	0.230887
58740	9.451338	-1.151631	2.261663	0.001722	0.000161	0.005575	-0.255630	0.041414	0.965887	-0.574318	-0.810190	-0.117260	0.777696	-0.584702	0.230894
58741	9.451283	-1.152108	2.261652	0.003037	-0.000963	0.005672	-0.255631	0.041411	0.965887	-0.574320	-0.810189	-0.117263	0.777695	-0.584704	0.230892
58742	9.439745	-1.156082	2.240375	0.004029	-0.000858	0.003974	-0.255623	0.041423	0.965889	-0.574320	-0.810191	-0.117249	0.777698	-0.584700	0.230894
58743	9.480224	-1.123009	2.268868	0.004890	-0.000777	0.006762	-0.255632	0.041411	0.965887	-0.574304	-0.810201	-0.117259	0.777707	-0.584687	0.230896
58744	9.439657	-1.156835	2.240354	0.006874	-0.000568	0.003367	-0.255623	0.041428	0.965889	-0.574284	-0.810219	-0.117233	0.777724	-0.584662	0.230902
58745	9.451064	-1.153735	2.261735	0.001805	0.002678	0.009259	-0.255672	0.041417	0.965876	-0.574286	-0.810212	-0.117274	0.777707	-0.584672	0.230934
58746	9.472174	-1.152151	2.249971	0.003036	-0.000962	0.005673	-0.255671	0.041412	0.965876	-0.574293	-0.810205	-0.117280	0.777702	-0.584681	0.230929
58747	9.447264	-1.130606	2.259643	0.007650	-0.003003	0.002472	-0.255638	0.041422	0.965885	-0.574267	-0.810230	-0.117242	0.777732	-0.584647	0.230913
58748	9.472153	-1.152672	2.249790	-0.001447	0.001102	0.004388	-0.255649	0.041443	0.965881	-0.574306	-0.810202	-0.117243	0.777700	-0.584684	0.230929
58749	9.483631	-1.149480	2.270925	0.003812	-0.003397	0.004777	-0.255625	0.041433	0.965888	-0.574303	-0.810205	-0.117236	0.777709	-0.584681	0.230904
58750	9.443084	-1.183431	2.242220	0.000190	-0.001252	0.006280	-0.255627	0.041424	0.965888	-0.574324	-0.810188	-0.117251	0.777693	-0.584705	0.230897
58751	9.473877	-1.149026	2.303757	0.004028	-0.000858	0.003976	-0.255618	0.041435	0.965889	-0.574322	-0.810192	-0.117236	0.777698	-0.584699	0.230897
58752	9.447131	-1.132506	2.259250	0.004566	0.000453	0.004969	-0.255623	0.041445	0.965888	-0.574311	-0.810200	-0.117227	0.777704	-0.584686	0.230908
58753	9.489526	-1.128371	2.235482	0.005342	-0.001982	0.004073	-0.255606	0.041449	0.965892	-0.574299	-0.810212	-0.117210	0.777719	-0.584670	0.230899
58754	9.439270	-1.160709	2.239985	0.002175	-0.001043	0.002886	-0.255590	0.041467	0.965895	-0.574313	-0.810204	-0.117189	0.777713	-0.584679	0.230896
58755	9.458532	-1.129952	2.280397	0.001267	0.001370	0.008267	-0.255624	0.041457	0.965887	-0.574322	-0.810194	-0.117221	0.777696	-0.584694	0.230914
58756	9.454290	-1.182120	2.263507	0.004244	0.001682	0.003174	-0.255630	0.041489	0.965884	-0.574318	-0.810200	-0.117197	0.777697	-0.584684	0.230939
58757	9.425673	-1.136484	2.271260	0.005342	-0.001982	0.004074	-0.255613	0.041492	0.965888	-0.574305	-0.810211	-0.117180	0.777712	-0.584668	0.230930
58758	9.483265	-1.152775	2.270785	0.002713	0.000268	0.003879	-0.255612	0.041509	0.965888	-0.574315	-0.810206	-0.117168	0.777705	-0.584674	0.230937
58759	9.450507	-1.158970	2.261387	0.004349	-0.002086	0.005772	-0.255604	0.041498	0.965891	-0.574306	-0.810212	-0.117170	0.777714	-0.584666	0.230926
58760	9.479561	-1.129484	2.268422	0.001958	-0.003582	0.003688	-0.255574	0.041496	0.965899	-0.574321	-0.810204	-0.117156	0.777713	-0.584678	0.230899
58761	9.429254	-1.161947	2.273034	0.003790	0.002889	0.005866	-0.255606	0.041514	0.965889	-0.574316	-0.810207	-0.117160	0.777706	-0.584672	0.230935
58762	9.479494	-1.130239	2.268329	0.004586	-0.005832	0.003884	-0.255560	0.041499	0.965902	-0.574310	-0.810213	-0.117142	0.777726	-0.584664	0.230891
58763	9.417735	-1.166115	2.251553	0.002391	0.001497	0.002084	-0.255559	0.041539	0.965901	-0.574325	-0.810207	-0.117112	0.777715	-0.584671	0.230912
58764	9.496991	-1.104524	2.254272	0.004887	-0.000774	0.006766	-0.255568	0.041527	0.965899	-0.574310	-0.810216	-0.117124	0.777723	-0.584658	0.230915
58765	9.453988	-1.185233	2.263142	0.002259	0.001476	0.006571	-0.255593	0.041530	0.965892	-0.574315	-0.810210	-0.117138	0.777711	-0.584666	0.230935
58766	9.446587	-1.137558	2.258983	0.005341	-0.001982	0.004075	-0.255575	0.041532	0.965897	-0.574299	-0.810224	-0.117120	0.777728	-0.584647	0.230925
58767	9.453930	-1.186057	2.262952	0.002817	-0.003499	0.006479	-0.255560	0.041508	0.965902	-0.574300	-0.810222	-0.117132	0.777733	-0.584652	0.230898
58768	9.442877	-1.114386	2.256623	0.003251	0.001579	0.004873	-0.255576	0.041523	0.965897	-0.574306	-0.810218	-0.117131	0.777723	-0.584656	0.230919
58769	9.465305	-1.183390	2.284255	0.003572	0.000351	0.006669	-0.255592	0.041519	0.965893	-0.574301	-0.810220	-0.117143	0.777722	-0.584654	0.230930
58770	9.479164	-1.133463	2.268099	0.004801	-0.003292	0.003083	-0.255562	0.041522	0.965901	-0.574298	-0.810225	-0.117120	0.777733	-0.584647	0.230909
58771	9.450083	-1.163760	2.260700	0.003893	-0.000876	0.008466	-0.255579	0.041497	0.965897	-0.574286	-0.810229	-0.117149	0.777737	-0.584642	0.230909
58772	9.471209	-1.162032	2.248951	0.002930	0.002808	0.003077	-0.255592	0.041535	0.965892	-0.574291	-0.810229	-0.117126	0.777729	-0.584640	0.230941
58773	9.446259	-1.140528	2.258857	0.003033	-0.000959	0.005677	-0.255593	0.041532	0.965892	-0.574293	-0.810227	-0.117130	0.777728	-0.584642	0.230940
58774	9.465043	-1.185578	2.284209	0.002040	-0.001062	0.007375	-0.255600	0.041512	0.965891	-0.574298	-0.810221	-0.117153	0.777721	-0.584653	0.230933
58775	9.467380	-1.139363	2.246854	0.004026	-0.000856	0.003979	-0.255592	0.041523	0.965893	-0.574296	-0.810224	-0.117137	0.777726	-0.584647	0.230934
58776	9.467362	-1.139679	2.246770	-0.000672	-0.001330	0.003495	-0.255577	0.041536	0.965896	-0.574335	-0.810198	-0.117129	0.777702	-0.584683	0.230923
58777	9.449799	-1.166222	2.260619	0.005339	-0.001981	0.004077	-0.255560	0.041539	0.965900	-0.574322	-0.810209	-0.117112	0.777717	-0.584667	0.230914
58778	9.434562	-1.146287	2.237306	0.001265	0.001375	0.008271	-0.255596	0.041530	0.965891	-0.574331	-0.810198	-0.117145	0.777698	-0.584684	0.230935
58779	9.482402	-1.161531	2.269925	0.005659	-0.003209	0.005874	-0.255580	0.041512	0.965896	-0.574312	-0.810212	-0.117145	0.777717	-0.584666	0.230915
58780	9.446003	-1.143609	2.258373	0.000860	0.000084	0.002790	-0.255572	0.041539	0.965897	-0.574333	-0.810200	-0.117123	0.777705	-0.584679	0.230921
58781	9.461124	-1.164440	2.281698	0.004885	-0.000772	0.006770	-0.255580	0.041528	0.965896	-0.574317	-0.810210	-0.117132	0.777714	-0.584667	0.230923
58782	9.449543	-1.168492	2.260514	0.004564	0.000455	0.004973	-0.255585	0.041539	0.965894	-0.574302	-0.810222	-0.117122	0.777723	-0.584649	0.230936
58783	9.463403	-1.118633	2.244446	0.003032	-0.000958	0.005679	-0.255585	0.041535	0.965894	-0.574304	-0.810220	-0.117125	0.777722	-0.584652	0.230935
58784	9.436083	-1.143915	2.291527	0.001719	0.000168	0.005580	-0.255592	0.041537	0.965892	-0.574320	-0.810208	-0.117133	0.777708	-0.584669	0.230938
58785	9.449418	-1.169804	2.260360	0.005119	-0.004520	0.004883	-0.255560	0.041519	0.965901	-0.574307	-0.810218	-0.117124	0.777728	-0.584656	0.230904
58786	9.470609	-1.168055	2.248356	0.000406	0.001293	0.005482	-0.255577	0.041528	0.965896	-0.574328	-0.810202	-0.117133	0.777707	-0.584677	0.230920
58787	9.457239	-1.142925	2.279292	0.004799	-0.003292	0.003086	-0.255544	0.041532	0.965905	-0.574322	-0.810210	-0.117108	0.777722	-0.584666	0.230898
58788	9.449321	-1.171046	2.260121	0.001265	0.001378	0.008273	-0.255576	0.041519	0.965897	-0.574330	-0.810199	-0.117141	0.777706	-0.584682	0.230913
58789	9.420735	-1.125670	2.267866	0.005876	-0.000670	0.005073	-0.255575	0.041522	0.965897	-0.574311	-0.810214	-0.117132	0.777720	-0.584661	0.230917
58790	9.499520	-1.139969	2.255450	0.002492	-0.002268	0.004687	-0.255558	0.041520	0.965902	-0.574314	-0.810213	-0.117124	0.777723	-0.584663	0.230902
58791	9.434016	-1.151895	2.236731	0.004563	0.000456	0.004974	-0.255566	0.041531	0.965899	-0.574306	-0.810220	-0.117118	0.777727	-0.584653	0.230916
58792	9.458826	-1.174184	2.226931	0.004344	-0.002082	0.005779	-0.255557	0.041520	0.965902	-0.574298	-0.810225	-0.117119	0.777735	-0.584647	0.230904
58793	9.435745	-1.147756	2.290997	0.003570	0.000355	0.006673	-0.255574	0.041517	0.965898	-0.574293	-0.810227	-0.117131	0.777734	-0.584644	0.230915
58794	9.466567	-1.147562	2.246107	0.000405	0.001295	0.005483	-0.255588	0.041527	0.965893	-0.574313	-0.810212	-0.117137	0.777714	-0.584664	0.230931
58795	9.466540	-1.147909	2.246042	0.004797	-0.003292	0.003087	-0.255556	0.041531	0.965902	-0.574307	-0.810220	-0.117111	0.777729	-0.584653	0.230908
58796	9.456811	-1.146843	2.279103	0.002257	0.001481	0.006575	-0.255583	0.041535	0.965895	-0.574316	-0.810211	-0.117128	0.777713	-0.584665	0.230930
58797	9.470061	-1.172857	2.248165	0.003030	-0.000956	0.005681	-0.255583	0.041531	0.965895	-0.574318	-0.810209	-0.117132	0.777712	-0.584667	0.230928
58798	9.445187	-1.151252	2.257903	0.005016	-0.000754	0.002283	-0.255566	0.041557	0.965898	-0.574314	-0.810217	-0.117098	0.777721	-0.584655	0.230931
58799	9.471822	-1.168387	2.302470	0.001718	0.000170	0.005582	-0.255575	0.041561	0.965896	-0.574325	-0.810208	-0.117103	0.777709	-0.584667	0.230938
58800	9.458456	-1.177384	2.226814	0.004796	-0.003292	0.003088	-0.255541	0.041564	0.965904	-0.574320	-0.810216	-0.117078	0.777725	-0.584656	0.230915
58801	9.452988	-1.124778	2.276796	0.001583	0.000154	0.010073	-0.255575	0.041532	0.965897	-0.574321	-0.810208	-0.117127	0.777712	-0.584670	0.230922
58802	9.473496	-1.198951	2.250020	0.002171	-0.001041	0.002890	-0.255561	0.041551	0.965900	-0.574337	-0.810199	-0.117107	0.777705	-0.584680	0.230919
58803	9.449259	-1.101765	2.274601	0.003889	-0.000870	0.008473	-0.255578	0.041525	0.965896	-0.574325	-0.810204	-0.117136	0.777709	-0.584676	0.230919
58804	9.481303	-1.172236	2.269012	0.002171	-0.001041	0.002891	-0.255562	0.041543	0.965900	-0.574342	-0.810195	-0.117116	0.777702	-0.584687	0.230915
58805	9.447340	-1.107683	2.220218	0.003569	0.000356	0.006675	-0.255578	0.041539	0.965896	-0.574336	-0.810197	-0.117128	0.777700	-0.584684	0.230926
58806	9.459970	-1.175200	2.280967	0.002710	0.000271	0.003884	-0.255579	0.041558	0.965894	-0.574346	-0.810191	-0.117115	0.777692	-0.584690	0.230937
58807	9.466002	-1.152905	2.245752	0.004022	-0.000855	0.003983	-0.255571	0.041569	0.965896	-0.574345	-0.810195	-0.117100	0.777697	-0.584685	0.230937
58808	9.423522	-1.157641	2.269499	-0.001128	-0.000115	0.006190	-0.255581	0.041567	0.965894	-0.574375	-0.810171	-0.117118	0.777671	-0.584718	0.230939
58809	9.459804	-1.176402	2.281037	0.009258	0.000929	0.005463	-0.255595	0.041576	0.965890	-0.574329	-0.810206	-0.117105	0.777700	-0.584669	0.230963
58810	9.473699	-1.126567	2.265064	0.000405	0.001297	0.005484	-0.255609	0.041585	0.965886	-0.574347	-0.810192	-0.117111	0.777682	-0.584688	0.230976
58811	9.457828	-1.182248	2.226902	0.002170	-0.001040	0.002891	-0.255593	0.041604	0.965889	-0.574362	-0.810184	-0.117090	0.777676	-0.584697	0.230973
58812	9.431202	-1.131547	2.288757	0.004341	-0.002080	0.005783	-0.255584	0.041591	0.965892	-0.574355	-0.810189	-0.117093	0.777685	-0.584692	0.230959
58813	9.444486	-1.157576	2.257598	0.001496	-0.002366	0.006390	-0.255577	0.041573	0.965894	-0.574366	-0.810179	-0.117107	0.777678	-0.584707	0.230942
58814	9.488737	-1.148738	2.287967	0.004340	-0.002080	0.005783	-0.255567	0.041559	0.965898	-0.574358	-0.810184	-0.117110	0.777687	-0.584701	0.230926
58815	9.408080	-1.140230	2.245868	0.003028	-0.000954	0.005684	-0.255568	0.041556	0.965898	-0.574360	-0.810182	-0.117114	0.777686	-0.584703	0.230924
58816	9.477167	-1.153223	2.266482	0.003801	-0.003392	0.004791	-0.255544	0.041544	0.965904	-0.574359	-0.810184	-0.117109	0.777695	-0.584702	0.230899
58817	9.440783	-1.135367	2.254927	0.003568	0.000358	0.006677	-0.255561	0.041540	0.965900	-0.574353	-0.810186	-0.117121	0.777693	-0.584699	0.230910
58818	9.473506	-1.129999	2.264161	0.004793	-0.003292	0.003091	-0.255528	0.041544	0.965909	-0.574347	-0.810194	-0.117095	0.777709	-0.584688	0.230888
58819	9.469143	-1.182180	2.247149	0.001263	0.001385	0.008278	-0.255562	0.041533	0.965900	-0.574355	-0.810183	-0.117128	0.777691	-0.584704	0.230907
58820	9.427352	-1.111187	2.285813	0.004021	-0.000854	0.003985	-0.255553	0.041544	0.965902	-0.574350	-0.810190	-0.117111	0.777698	-0.584694	0.230907
58821	9.469016	-1.183029	2.247237	0.004561	0.000458	0.004979	-0.255561	0.041555	0.965900	-0.574341	-0.810197	-0.117105	0.777702	-0.584683	0.230921
58822	9.448482	-1.109795	2.273923	0.004339	-0.002079	0.005785	-0.255553	0.041545	0.965902	-0.574329	-0.810206	-0.117104	0.777714	-0.584672	0.230911
58823	9.444117	-1.161885	2.256928	0.002709	0.000272	0.003886	-0.255553	0.041564	0.965901	-0.574337	-0.810201	-0.117091	0.777708	-0.584676	0.230921
58824	9.455609	-1.158573	2.278155	0.004021	-0.000854	0.003986	-0.255541	0.041573	0.965904	-0.574335	-0.810205	-0.117076	0.777713	-0.584670	0.230917
58825	9.444029	-1.162762	2.256848	0.004203	-0.002091	0.010278	-0.255559	0.041525	0.965901	-0.574315	-0.810213	-0.117121	0.777722	-0.584663	0.230906
58826	9.467069	-1.155913	2.299187	0.004156	-0.000841	-0.000507	-0.255526	0.041574	0.965908	-0.574323	-0.810216	-0.117061	0.777728	-0.584655	0.230908
58827	9.422762	-1.165529	2.268618	0.003885	-0.000866	0.008479	-0.255543	0.041548	0.965905	-0.574310	-0.810221	-0.117090	0.777731	-0.584650	0.230908
58828	9.455457	-1.160367	2.277873	0.001176	-0.001138	0.004593	-0.255533	0.041551	0.965907	-0.574325	-0.810211	-0.117086	0.777723	-0.584664	0.230900
58829	9.465137	-1.162250	2.244581	0.003798	-0.003390	0.004793	-0.255510	0.041541	0.965914	-0.574323	-0.810213	-0.117079	0.777732	-0.584661	0.230875
58830	9.430636	-1.139228	2.287278	0.003027	-0.000952	0.005687	-0.255510	0.041537	0.965914	-0.574323	-0.810213	-0.117082	0.777732	-0.584662	0.230873
58831	9.489865	-1.185126	2.234670	0.003567	0.000360	0.006680	-0.255526	0.041533	0.965910	-0.574318	-0.810215	-0.117094	0.777731	-0.584660	0.230885
58832	9.451700	-1.138096	2.275524	0.003249	0.001585	0.004880	-0.255545	0.041552	0.965904	-0.574320	-0.810214	-0.117091	0.777723	-0.584660	0.230910
58833	9.497714	-1.158244	2.253745	0.001406	-0.004888	0.002708	-0.255497	0.041550	0.965917	-0.574341	-0.810202	-0.117069	0.777723	-0.584677	0.230868
58834	9.401274	-1.170821	2.280003	0.004964	0.001760	0.010467	-0.255547	0.041522	0.965905	-0.574316	-0.810213	-0.117116	0.777725	-0.584664	0.230894
58835	9.457667	-1.116954	2.240108	0.002169	-0.001039	0.002894	-0.255530	0.041540	0.965908	-0.574332	-0.810205	-0.117095	0.777719	-0.584673	0.230890
58836	9.447187	-1.191555	2.258322	0.004337	-0.002078	0.005788	-0.255522	0.041527	0.965911	-0.574321	-0.810212	-0.117098	0.777730	-0.584664	0.230877
58837	9.457620	-1.117670	2.239951	0.002709	0.000273	0.003887	-0.255522	0.041545	0.965910	-0.574329	-0.810208	-0.117085	0.777724	-0.584668	0.230886
58838	9.501058	-1.184465	2.255776	0.004560	0.000459	0.004981	-0.255527	0.041557	0.965908	-0.574315	-0.810220	-0.117074	0.777733	-0.584651	0.230900
58839	9.415075	-1.122620	2.263837	0.003026	-0.000951	0.005688	-0.255528	0.041554	0.965908	-0.574316	-0.810218	-0.117078	0.777731	-0.584654	0.230899
58840	9.472581	-1.139405	2.263317	0.000181	-0.001235	0.006295	-0.255530	0.041542	0.965908	-0.574342	-0.810197	-0.117096	0.777712	-0.584683	0.230889
58841	9.443358	-1.169490	2.256180	0.008397	0.000841	0.002675	-0.255527	0.041574	0.965908	-0.574309	-0.810226	-0.117058	0.777737	-0.584641	0.230911
58842	9.472512	-1.139979	2.263315	0.005647	-0.003203	0.005890	-0.255511	0.041556	0.965913	-0.574289	-0.810241	-0.117057	0.777757	-0.584622	0.230891
58843	9.431751	-1.173814	2.234885	0.000404	0.001302	0.005488	-0.255528	0.041568	0.965908	-0.574311	-0.810224	-0.117065	0.777735	-0.584645	0.230908
58844	9.468840	-1.116875	2.261100	0.004336	-0.002077	0.005790	-0.255521	0.041555	0.965910	-0.574305	-0.810228	-0.117069	0.777742	-0.584641	0.230896
58845	9.464395	-1.169097	2.244155	0.003565	0.000362	0.006682	-0.255538	0.041551	0.965906	-0.574300	-0.810230	-0.117081	0.777741	-0.584638	0.230907
58846	9.472306	-1.141851	2.263234	0.004018	-0.000852	0.003989	-0.255527	0.041561	0.965908	-0.574295	-0.810235	-0.117064	0.777748	-0.584630	0.230905
58847	9.433408	-1.170452	2.289138	0.003025	-0.000950	0.005690	-0.255527	0.041558	0.965908	-0.574297	-0.810234	-0.117068	0.777746	-0.584632	0.230903
58848	9.472207	-1.142741	2.263199	0.003565	0.000363	0.006683	-0.255547	0.041556	0.965903	-0.574289	-0.810238	-0.117079	0.777746	-0.584626	0.230919
58849	9.442932	-1.173040	2.256117	0.003565	0.000363	0.006683	-0.255563	0.041553	0.965899	-0.574283	-0.810240	-0.117091	0.777744	-0.584624	0.230930
58850	9.468494	-1.119749	2.261129	0.003024	-0.000950	0.005690	-0.255563	0.041548	0.965899	-0.574287	-0.810237	-0.117096	0.777742	-0.584628	0.230927
58851	9.450774	-1.146311	2.275248	0.003248	0.001587	0.004882	-0.255579	0.041566	0.965894	-0.574288	-0.810236	-0.117091	0.777735	-0.584628	0.230950
58852	9.471956	-1.144613	2.263305	0.003794	-0.003388	0.004798	-0.255557	0.041558	0.965900	-0.574286	-0.810239	-0.117083	0.777744	-0.584625	0.230929
58853	9.452432	-1.176279	2.222859	0.001174	-0.001135	0.004596	-0.255550	0.041563	0.965902	-0.574305	-0.810226	-0.117080	0.777733	-0.584642	0.230923
58854	9.456796	-1.125036	2.239743	0.003565	0.000363	0.006684	-0.255567	0.041560	0.965898	-0.574298	-0.810229	-0.117092	0.777732	-0.584638	0.230935
58855	9.496600	-1.168072	2.253368	0.002030	-0.001046	0.007392	-0.255576	0.041542	0.965896	-0.574302	-0.810223	-0.117114	0.777726	-0.584648	0.230932
58856	9.417763	-1.154386	2.265775	0.005098	0.001773	0.005977	-0.255599	0.041551	0.965890	-0.574289	-0.810232	-0.117117	0.777728	-0.584635	0.230956
58857	9.496463	-1.169272	2.253323	0.000271	-0.004991	0.008908	-0.255586	0.041498	0.965895	-0.574304	-0.810215	-0.117158	0.777721	-0.584661	0.230912
58858	9.408041	-1.153889	2.298552	0.007855	-0.000473	0.001684	-0.255567	0.041529	0.965899	-0.574277	-0.810242	-0.117111	0.777748	-0.584623	0.230920
58859	9.460145	-1.151630	2.241488	-0.000045	-0.003767	0.007107	-0.255554	0.041498	0.965904	-0.574298	-0.810223	-0.117136	0.777736	-0.584651	0.230888
58860	9.475221	-1.172589	2.264681	0.005867	-0.000666	0.005086	-0.255553	0.041500	0.965904	-0.574278	-0.810238	-0.117128	0.777752	-0.584629	0.230892
58861	9.456542	-1.128545	2.239048	0.001489	-0.002357	0.006400	-0.255547	0.041482	0.965906	-0.574289	-0.810228	-0.117142	0.777745	-0.584645	0.230874
58862	9.475134	-1.173613	2.264516	0.003564	0.000364	0.006685	-0.255562	0.041478	0.965903	-0.574281	-0.810232	-0.117152	0.777746	-0.584640	0.230884
58863	9.435227	-1.131554	2.250885	0.002166	-0.001037	0.002897	-0.255546	0.041497	0.965906	-0.574297	-0.810224	-0.117131	0.777740	-0.584649	0.230881
58864	9.488286	-1.199891	2.233495	0.007177	-0.001792	0.005188	-0.255533	0.041489	0.965910	-0.574264	-0.810250	-0.117119	0.777769	-0.584615	0.230871
58865	9.425451	-1.130855	2.284007	0.001801	0.002708	0.009279	-0.255583	0.041478	0.965897	-0.574265	-0.810242	-0.117160	0.777751	-0.584625	0.230903
58866	9.517342	-1.171269	2.240740	0.004785	-0.003291	0.003100	-0.255550	0.041481	0.965906	-0.574262	-0.810248	-0.117136	0.777764	-0.584617	0.230880
58867	9.438598	-1.157246	2.252950	0.005867	-0.000665	0.005087	-0.255549	0.041484	0.965906	-0.574243	-0.810263	-0.117127	0.777779	-0.584596	0.230884
58868	9.467786	-1.127965	2.260009	-0.001672	-0.001415	0.005205	-0.255542	0.041481	0.965908	-0.574285	-0.810232	-0.117139	0.777750	-0.584640	0.230870
58869	9.450062	-1.154461	2.274083	0.007401	0.000743	0.004379	-0.255548	0.041498	0.965905	-0.574255	-0.810255	-0.117120	0.777770	-0.584606	0.230890
58870	9.477350	-1.130196	2.227006	0.002707	0.000276	0.003891	-0.255544	0.041514	0.965906	-0.574255	-0.810258	-0.117103	0.777772	-0.584601	0.230896
58871	9.420728	-1.184841	2.267061	0.003022	-0.000947	0.005694	-0.255545	0.041511	0.965906	-0.574256	-0.810257	-0.117107	0.777770	-0.584603	0.230894
58872	9.418064	-1.085502	2.279588	0.003563	0.000366	0.006687	-0.255561	0.041507	0.965902	-0.574250	-0.810259	-0.117118	0.777769	-0.584600	0.230906
58873	9.451477	-1.185183	2.222189	0.008394	0.000839	0.002679	-0.255558	0.041539	0.965901	-0.574218	-0.810288	-0.117080	0.777794	-0.584558	0.230928
58874	9.449841	-1.156105	2.274166	0.004558	-0.005826	0.003912	-0.255506	0.041520	0.965915	-0.574213	-0.810294	-0.117062	0.777815	-0.584551	0.230876
58875	9.453354	-1.180674	2.276167	0.001260	0.001398	0.008287	-0.255540	0.041509	0.965907	-0.574222	-0.810283	-0.117095	0.777797	-0.584567	0.230895
58876	9.455870	-1.134744	2.238752	0.003021	-0.000946	0.005695	-0.255541	0.041504	0.965907	-0.574225	-0.810280	-0.117100	0.777795	-0.584571	0.230893
58877	9.449699	-1.157666	2.273963	0.001171	-0.001132	0.004600	-0.255534	0.041509	0.965909	-0.574243	-0.810267	-0.117098	0.777783	-0.584589	0.230887
58878	9.459317	-1.159633	2.240856	0.004556	0.000462	0.004987	-0.255543	0.041519	0.965906	-0.574238	-0.810271	-0.117093	0.777784	-0.584582	0.230901
58879	9.449582	-1.158483	2.274031	0.001712	0.000181	0.005593	-0.255552	0.041523	0.965903	-0.574250	-0.810262	-0.117099	0.777773	-0.584595	0.230909
58880	9.438004	-1.162382	2.252795	0.006318	-0.001882	0.002395	-0.255528	0.041541	0.965909	-0.574231	-0.810281	-0.117063	0.777794	-0.584568	0.230903
58881	9.457588	-1.131330	2.292875	0.002480	-0.002258	0.004702	-0.255512	0.041538	0.965913	-0.574239	-0.810276	-0.117058	0.777793	-0.584575	0.230888
58882	9.459161	-1.161160	2.240725	0.001259	0.001400	0.008288	-0.255546	0.041527	0.965905	-0.574251	-0.810263	-0.117092	0.777774	-0.584594	0.230907
58883	9.476786	-1.135564	2.226675	0.002165	-0.001036	0.002899	-0.255530	0.041546	0.965908	-0.574266	-0.810255	-0.117071	0.777768	-0.584603	0.230903
58884	9.429799	-1.191761	2.233625	0.006720	-0.000573	0.007887	-0.255547	0.041525	0.965904	-0.574245	-0.810267	-0.117093	0.777778	-0.584588	0.230907
58885	9.463478	-1.110901	2.257623	0.003562	0.000368	0.006690	-0.255564	0.041521	0.965900	-0.574239	-0.810269	-0.117105	0.777776	-0.584586	0.230918
58886	9.456260	-1.209686	2.278321	0.001712	0.000182	0.005594	-0.255575	0.041524	0.965897	-0.574256	-0.810255	-0.117114	0.777760	-0.584604	0.230926
58887	9.445670	-1.137883	2.271724	0.005323	-0.001977	0.004097	-0.255558	0.041528	0.965901	-0.574244	-0.810267	-0.117097	0.777775	-0.584588	0.230917
58888	9.465868	-1.211997	2.245062	0.001170	-0.001130	0.004601	-0.255547	0.041529	0.965904	-0.574261	-0.810255	-0.117094	0.777766	-0.584604	0.230907
58889	9.486183	-1.139793	2.193350	0.002479	-0.002258	0.004704	-0.255532	0.041526	0.965908	-0.574269	-0.810250	-0.117090	0.777765	-0.584612	0.230892
58890	9.404698	-1.144343	2.547533	0.009386	-0.005356	-0.000094	-0.255465	0.041543	0.965925	-0.574236	-0.810283	-0.117023	0.777811	-0.584564	0.230855
58891	9.438019	-1.159900	2.054234	0.006495	0.009470	0.010845	-0.255577	0.041559	0.965895	-0.574197	-0.810304	-0.117069	0.777803	-0.584534	0.230958
58892	9.529588	-1.172826	2.315894	0.001396	-0.004883	0.002718	-0.255530	0.041557	0.965908	-0.574219	-0.810292	-0.117047	0.777803	-0.584551	0.230916
58893	9.378009	-1.156454	2.198699	0.002253	0.001497	0.006588	-0.255555	0.041560	0.965901	-0.574224	-0.810286	-0.117062	0.777791	-0.584559	0.230937
58894	9.468526	-1.133123	2.313945	0.004780	-0.003290	0.003106	-0.255522	0.041564	0.965909	-0.574218	-0.810294	-0.117036	0.777806	-0.584548	0.230915
58895	9.451552	-1.118240	2.236136	0.001711	0.000184	0.005595	-0.255531	0.041568	0.965907	-0.574230	-0.810285	-0.117042	0.777794	-0.584561	0.230922
58896	9.439169	-1.163727	2.306764	0.000717	0.000090	0.007297	-0.255549	0.041557	0.965902	-0.574245	-0.810270	-0.117067	0.777777	-0.584581	0.230928
58897	9.451418	-1.119415	2.236116	0.006177	-0.001885	0.006897	-0.255550	0.041539	0.965903	-0.574219	-0.810288	-0.117075	0.777796	-0.584558	0.230921
58898	9.481478	-1.160819	2.282911	0.000403	0.001311	0.005493	-0.255567	0.041550	0.965898	-0.574241	-0.810271	-0.117083	0.777774	-0.584581	0.230938
58899	9.445147	-1.142744	2.271456	0.002163	-0.001035	0.002901	-0.255551	0.041568	0.965902	-0.574256	-0.810263	-0.117062	0.777768	-0.584590	0.230934
58900	9.499135	-1.135370	2.268735	0.005321	-0.001977	0.004100	-0.255534	0.041572	0.965906	-0.574244	-0.810274	-0.117045	0.777783	-0.584574	0.230925
58901	9.425514	-1.174643	2.231020	0.004327	-0.002070	0.005802	-0.255527	0.041561	0.965908	-0.574235	-0.810281	-0.117047	0.777792	-0.584567	0.230914
58902	9.480324	-1.238026	2.267977	0.001169	-0.001129	0.004603	-0.255520	0.041565	0.965910	-0.574253	-0.810268	-0.117044	0.777781	-0.584584	0.230909
58903	9.430852	-1.194337	2.287332	0.003018	-0.000943	0.005699	-0.255521	0.041562	0.965910	-0.574255	-0.810266	-0.117048	0.777779	-0.584586	0.230907
58904	9.437797	-1.242848	2.291731	0.002705	0.000278	0.003894	-0.255521	0.041580	0.965909	-0.574263	-0.810262	-0.117035	0.777773	-0.584591	0.230917
58905	9.447442	-1.244633	2.258582	0.004465	-0.002069	0.001302	-0.255488	0.041605	0.965917	-0.574264	-0.810267	-0.116993	0.777783	-0.584582	0.230906
58906	9.426191	-1.246832	2.270519	0.003246	0.001592	0.004888	-0.255503	0.041623	0.965912	-0.574266	-0.810267	-0.116989	0.777777	-0.584581	0.230929
58907	9.452245	-1.444658	2.233802	0.015924	-0.004706	0.001497	-0.255451	0.041632	0.965925	-0.574178	-0.810339	-0.116922	0.777859	-0.584481	0.230906
58908	9.413411	-1.472132	2.259760	0.037447	-0.005096	-0.000831	-0.255382	0.041657	0.965942	-0.573928	-0.810536	-0.116784	0.778066	-0.584206	0.230904
58909	9.433110	-1.440421	2.299904	0.063951	-0.011206	0.017075	-0.255368	0.041501	0.965953	-0.573426	-0.810895	-0.116757	0.778441	-0.583718	0.230874
58910	9.413326	-1.472478	2.259886	0.095133	-0.010539	0.036568	-0.255471	0.041191	0.965939	-0.572631	-0.811444	-0.116846	0.778992	-0.582977	0.230888
58911	9.462228	-1.267300	2.281869	0.128844	-0.015837	0.063441	-0.255686	0.040632	0.965906	-0.571504	-0.812198	-0.117117	0.779748	-0.581965	0.230889
58912	9.424246	-1.328385	2.256193	0.145352	-0.017813	0.080557	-0.255983	0.039922	0.965857	-0.570204	-0.813055	-0.117516	0.780603	-0.580817	0.230892
58913	9.437357	-1.428850	2.265728	0.170851	-0.022700	0.085032	-0.256265	0.039147	0.965813	-0.568691	-0.814058	-0.117898	0.781613	-0.579463	0.230877
58914	9.420848	-1.237074	2.268239	0.191266	-0.024246	0.095443	-0.256594	0.038277	0.965761	-0.566990	-0.815181	-0.118335	0.782740	-0.577940	0.230873
58915	9.429798	-1.243750	2.235304	0.219611	-0.026235	0.103130	-0.256948	0.037333	0.965704	-0.565044	-0.816466	-0.118779	0.784030	-0.576185	0.230884
58916	9.466652	-1.296963	2.195455	0.234552	-0.028305	0.105850	-0.257299	0.036354	0.965648	-0.562971	-0.817833	-0.119216	0.785405	-0.574306	0.230893
58917	9.441662	-1.173051	2.270495	0.275339	-0.032782	0.107747	-0.257622	0.035332	0.965600	-0.560569	-0.819429	-0.119576	0.787016	-0.572090	0.230909
58918	9.503056	-1.072297	2.245447	0.294260	-0.032989	0.118348	-0.258001	0.034221	0.965538	-0.557985	-0.821130	-0.119995	0.788726	-0.569715	0.230947
58919	9.438962	-1.324831	2.100940	0.312427	-0.033316	0.121698	-0.258391	0.033080	0.965474	-0.555244	-0.822926	-0.120405	0.790531	-0.567185	0.231005
58920	9.421640	-1.142868	2.244345	0.300075	-0.049045	0.136909	-0.258738	0.031723	0.965426	-0.552555	-0.824648	-0.120989	0.792299	-0.564755	0.230897
58921	9.483808	-1.250996	2.143675	0.328831	-0.042131	0.131654	-0.259106	0.030448	0.965369	-0.549645	-0.826522	-0.121457	0.794200	-0.562081	0.230893
58922	9.390954	-1.045445	2.351879	0.341893	-0.048983	0.142708	-0.259476	0.029041	0.965313	-0.546597	-0.828461	-0.122001	0.796181	-0.559293	0.230840
58923	9.440369	-0.850863	2.312500	0.386291	-0.038632	0.159446	-0.260014	0.027552	0.965212	-0.543143	-0.830641	-0.122604	0.798366	-0.556127	0.230943
58924	9.400337	-1.260960	2.103054	0.405562	-0.046214	0.157887	-0.260477	0.026032	0.965129	-0.539530	-0.832912	-0.123147	0.800662	-0.552793	0.230999
58925	9.543151	-0.933674	2.238844	0.406697	-0.052609	0.174297	-0.260970	0.024337	0.965040	-0.535855	-0.835178	-0.123846	0.802966	-0.549442	0.230997
58926	9.466564	-1.188611	2.133030	0.428370	-0.045948	0.176884	-0.261522	0.022655	0.964931	-0.531989	-0.837546	-0.124519	0.805353	-0.545897	0.231089
58927	9.500947	-1.014353	2.160365	0.430450	-0.054912	0.183563	-0.262030	0.020866	0.964834	-0.528077	-0.839909	-0.125251	0.807759	-0.542326	0.231101
58928	9.583677	-1.292527	1.942366	0.457011	-0.056133	0.194228	-0.262576	0.018978	0.964725	-0.523911	-0.842398	-0.126025	0.810291	-0.538521	0.231137
58929	9.528862	-1.070783	2.207765	0.427623	-0.055688	0.201648	-0.263155	0.017028	0.964603	-0.519952	-0.844711	-0.126937	0.812650	-0.534951	0.231144
58930	9.302253	-0.600706	2.429066	0.479733	-0.052864	0.212946	-0.263806	0.014994	0.964459	-0.515527	-0.847284	-0.127838	0.815254	-0.530929	0.231249
58931	9.514549	-1.227729	2.131399	0.521077	-0.055293	0.211355	-0.264418	0.012958	0.964321	-0.510754	-0.850050	-0.128627	0.818054	-0.526543	0.231387
58932	9.527149	-1.131870	2.012585	0.435764	-0.073769	0.230118	-0.264964	0.010662	0.964199	-0.506617	-0.852346	-0.129794	0.820447	-0.522870	0.231242
58933	9.477022	-1.031565	2.271020	0.466735	-0.069886	0.227965	-0.265519	0.008402	0.964069	-0.502218	-0.854781	-0.130868	0.822968	-0.518921	0.231180
58934	9.435110	-0.942469	2.298404	0.530067	-0.064075	0.243171	-0.266186	0.006039	0.963903	-0.497243	-0.857520	-0.131943	0.825769	-0.514416	0.231262
58935	9.556531	-1.097273	2.117176	0.512246	-0.067169	0.248737	-0.266841	0.003609	0.963734	-0.492385	-0.860138	-0.133111	0.828464	-0.510048	0.231297
58936	9.336074	-1.073193	2.176373	0.495307	-0.070032	0.257092	-0.267500	0.001089	0.963557	-0.487630	-0.862643	-0.134399	0.831060	-0.505811	0.231288
58937	9.487072	-0.939227	2.339483	0.569618	-0.063121	0.266110	-0.268245	-0.001477	0.963349	-0.482217	-0.865493	-0.135601	0.833973	-0.500918	0.231452
58938	9.563806	-1.008677	2.134371	0.560365	-0.056143	0.274621	-0.269074	-0.004087	0.963111	-0.476840	-0.868263	-0.136905	0.836793	-0.496087	0.231678
58939	9.470433	-1.113032	1.979988	0.596320	-0.058419	0.278063	-0.269884	-0.006743	0.962869	-0.471134	-0.871175	-0.138156	0.839759	-0.490927	0.231939
58940	9.428776	-1.241163	2.062525	0.541472	-0.065298	0.298877	-0.270716	-0.009619	0.962611	-0.465814	-0.873780	-0.139733	0.842455	-0.486226	0.232066
58941	9.521269	-1.190122	2.221492	0.565422	-0.075564	0.296367	-0.271433	-0.012528	0.962376	-0.460282	-0.876467	-0.141229	0.845260	-0.481299	0.232136
58942	9.148389	-1.057207	2.255665	0.553925	-0.063430	0.307945	-0.272287	-0.015484	0.962092	-0.454798	-0.879062	-0.142862	0.847950	-0.476457	0.232315
58943	9.397171	-0.949427	2.481415	0.616286	-0.066499	0.311355	-0.273111	-0.018489	0.961805	-0.448757	-0.881914	-0.144381	0.850898	-0.471048	0.232563
58944	9.551263	-1.089556	1.984081	0.652543	-0.067397	0.311937	-0.273909	-0.021509	0.961515	-0.442384	-0.884892	-0.145818	0.853973	-0.465300	0.232865
58945	9.452049	-1.187716	2.211948	0.570309	-0.083353	0.327971	-0.274621	-0.024750	0.961234	-0.436649	-0.887441	-0.147599	0.856692	-0.460256	0.232903
58946	9.546703	-0.936607	2.251199	0.627799	-0.068765	0.336689	-0.275474	-0.028005	0.960900	-0.430379	-0.890211	-0.149328	0.859586	-0.454687	0.233177
58947	9.541674	-1.382566	2.054468	0.607604	-0.076782	0.338974	-0.276245	-0.031323	0.960577	-0.424256	-0.892843	-0.151123	0.862378	-0.449277	0.233355
58948	9.701781	-1.223083	2.019518	0.644774	-0.086146	0.352861	-0.276971	-0.034811	0.960247	-0.417754	-0.895592	-0.152963	0.865314	-0.443513	0.233510
58949	9.517590	-1.468793	2.081079	0.627500	-0.083544	0.356898	-0.277711	-0.038329	0.959900	-0.411369	-0.898214	-0.154880	0.868132	-0.437884	0.233677
58950	9.406667	-1.276308	1.963213	0.599449	-0.086384	0.367785	-0.278447	-0.041961	0.959535	-0.405178	-0.900663	-0.156964	0.870803	-0.432488	0.233785
58951	9.358990	-1.204775	2.497650	0.653547	-0.081437	0.368992	-0.279204	-0.045587	0.959149	-0.398492	-0.903297	-0.158932	0.873641	-0.426588	0.234038
58952	9.116072	-1.600844	2.112944	0.649857	-0.076973	0.375312	-0.279999	-0.049256	0.958736	-0.391800	-0.905860	-0.160965	0.876409	-0.420703	0.234342
58953	9.255418	-1.061165	2.441595	0.620838	-0.082977	0.379783	-0.280733	-0.052995	0.958322	-0.385331	-0.908249	-0.163106	0.879039	-0.415060	0.234555
58954	9.509631	-1.268334	2.190966	0.715752	-0.074693	0.381247	-0.281517	-0.056719	0.957879	-0.378001	-0.910977	-0.165034	0.881966	-0.408539	0.235016
58955	9.430928	-1.549287	2.025998	0.618155	-0.081394	0.396851	-0.282272	-0.060616	0.957417	-0.371467	-0.913242	-0.167338	0.884497	-0.402884	0.235266
58956	9.325319	-1.453917	2.264367	0.717612	-0.073709	0.408281	-0.283108	-0.064592	0.956911	-0.364000	-0.915844	-0.169512	0.887330	-0.396305	0.235771
58957	9.537930	-1.473014	2.005512	0.706940	-0.082765	0.400875	-0.283804	-0.068542	0.956429	-0.356625	-0.918346	-0.171635	0.890097	-0.389798	0.236187
58958	9.388885	-1.498763	2.101928	0.662216	-0.084607	0.417311	-0.284511	-0.072653	0.955916	-0.349582	-0.920604	-0.174016	0.892662	-0.383680	0.236524
58959	9.208742	-1.348617	2.339466	0.686177	-0.079334	0.423541	-0.285256	-0.076807	0.955369	-0.342286	-0.922889	-0.176396	0.895248	-0.377327	0.236970
58960	9.410224	-1.696741	2.201185	0.695007	-0.092977	0.422447	-0.285841	-0.081005	0.954847	-0.334894	-0.925148	-0.178739	0.897853	-0.370863	0.237318
58961	9.344632	-1.361137	2.572007	0.701294	-0.095427	0.414781	-0.286346	-0.085145	0.954335	-0.327446	-0.927374	-0.180989	0.900436	-0.364319	0.237670
58962	9.368644	-1.366270	2.180680	0.742700	-0.077753	0.430291	-0.287027	-0.089368	0.953745	-0.319561	-0.929671	-0.183283	0.903048	-0.357387	0.238282
58963	9.615982	-1.832877	2.026638	0.708355	-0.092255	0.428442	-0.287536	-0.093629	0.953182	-0.311970	-0.931780	-0.185636	0.905537	-0.350741	0.238711
58964	9.277216	-1.737925	2.302404	0.720211	-0.086460	0.443284	-0.288108	-0.098012	0.952569	-0.304209	-0.933851	-0.188095	0.907993	-0.343972	0.239234
58965	9.177024	-1.473639	2.383189	0.705022	-0.078642	0.450098	-0.288736	-0.102434	0.951913	-0.296547	-0.935795	-0.190649	0.910325	-0.337334	0.239821
58966	9.424199	-1.465293	2.263824	0.754692	-0.065620	0.447220	-0.289437	-0.106790	0.951221	-0.288421	-0.937841	-0.193048	0.912710	-0.330227	0.240646
58967	9.362057	-2.168739	1.952049	0.678051	-0.100614	0.453517	-0.289801	-0.111323	0.950591	-0.280957	-0.939559	-0.195685	0.914920	-0.323784	0.241008
58968	9.338498	-1.612780	2.423181	0.742857	-0.081446	0.442403	-0.290272	-0.115691	0.949925	-0.272915	-0.941431	-0.198052	0.917202	-0.316738	0.241698
58969	9.459961	-1.656165	2.063032	0.757629	-0.094331	0.453678	-0.290618	-0.120209	0.949258	-0.264685	-0.943264	-0.200484	0.919501	-0.309519	0.242313
58970	9.421377	-1.899521	2.494307	0.692926	-0.120671	0.452498	-0.290681	-0.124796	0.948647	-0.257038	-0.944828	-0.203055	0.921649	-0.302862	0.242566
58971	9.250230	-1.724525	2.278156	0.787675	-0.091392	0.462986	-0.291002	-0.129395	0.947932	-0.248469	-0.946593	-0.205489	0.923895	-0.295329	0.243309
58972	9.343182	-1.935139	2.291105	0.759621	-0.095429	0.470943	-0.291263	-0.134082	0.947200	-0.240118	-0.948185	-0.208057	0.926018	-0.288039	0.243976
58973	9.406776	-1.751524	2.410182	0.771424	-0.098704	0.474594	-0.291463	-0.138813	0.946457	-0.231630	-0.949729	-0.210623	0.928115	-0.280617	0.244657
58974	9.095240	-2.238738	2.037759	0.739356	-0.105205	0.478885	-0.291570	-0.143602	0.945709	-0.223411	-0.951100	-0.213300	0.930094	-0.273474	0.245230
58975	9.213325	-1.725570	2.516485	0.769905	-0.097813	0.471311	-0.291688	-0.148298	0.944948	-0.214915	-0.952488	-0.215822	0.932057	-0.266036	0.245957
58976	9.321809	-1.827264	2.309404	0.790452	-0.105095	0.464306	-0.291680	-0.152946	0.944209	-0.206232	-0.953860	-0.218218	0.934019	-0.258376	0.246680
58977	9.296532	-2.212584	2.134224	0.715396	-0.112475	0.483523	-0.291603	-0.157794	0.943434	-0.198180	-0.954932	-0.220972	0.935784	-0.251406	0.247190
58978	9.156737	-2.125960	2.251969	0.786882	-0.100538	0.487914	-0.291604	-0.162651	0.942609	-0.189434	-0.956099	-0.223582	0.937594	-0.243760	0.247991
58979	9.196774	-2.124931	2.373550	0.774791	-0.096900	0.488327	-0.291596	-0.167502	0.941762	-0.180786	-0.957153	-0.226216	0.939302	-0.236221	0.248820
58980	9.197872	-1.838308	2.455012	0.768413	-0.105014	0.489749	-0.291471	-0.172383	0.940919	-0.172181	-0.958109	-0.228869	0.940956	-0.228717	0.249580
58981	9.084506	-2.321860	2.366155	0.772986	-0.114243	0.487358	-0.291211	-0.177258	0.940093	-0.163528	-0.958998	-0.231478	0.942579	-0.221141	0.250284
58982	9.228188	-1.964638	2.432672	0.763315	-0.113946	0.483893	-0.290906	-0.182094	0.939263	-0.154966	-0.959790	-0.234070	0.944118	-0.213646	0.250990
58983	9.313144	-2.034533	2.521144	0.829042	-0.106023	0.488845	-0.290639	-0.186957	0.938390	-0.145758	-0.960629	-0.236532	0.945666	-0.205523	0.251945
58984	9.255141	-2.683809	2.008221	0.778404	-0.106031	0.503725	-0.290347	-0.191958	0.937470	-0.136975	-0.961248	-0.239250	0.947067	-0.197876	0.252802
58985	9.241015	-2.122847	2.463425	0.816520	-0.112272	0.499536	-0.289945	-0.196926	0.936564	-0.127834	-0.961863	-0.241821	0.948467	-0.189840	0.253713
58986	9.027465	-2.254277	2.455183	0.828134	-0.109458	0.501040	-0.289524	-0.201896	0.935636	-0.118570	-0.962407	-0.244363	0.949799	-0.181687	0.254701
58987	8.973894	-2.250023	2.314481	0.785689	-0.116959	0.499380	-0.288984	-0.206858	0.934718	-0.109705	-0.962789	-0.246987	0.951028	-0.173919	0.255537
58988	9.133885	-2.291652	2.464438	0.818741	-0.113321	0.500809	-0.288433	-0.211820	0.933777	-0.100515	-0.963137	-0.249528	0.952210	-0.165831	0.256509
58989	9.339114	-2.424775	2.144081	0.806041	-0.121914	0.498018	-0.287752	-0.216761	0.932852	-0.091448	-0.963380	-0.252063	0.953329	-0.157839	0.257392
58990	9.009055	-2.534789	2.709678	0.786833	-0.122797	0.494006	-0.287013	-0.221656	0.931929	-0.082570	-0.963515	-0.254599	0.954361	-0.150023	0.258239
58991	9.133722	-1.996410	2.436955	0.878806	-0.109803	0.509781	-0.286364	-0.226675	0.930921	-0.072765	-0.963660	-0.257031	0.955354	-0.141342	0.259464
58992	9.241525	-2.697834	2.368923	0.805968	-0.129135	0.508150	-0.285480	-0.231696	0.929956	-0.063656	-0.963610	-0.259622	0.956268	-0.133314	0.260343
58993	8.911622	-2.247779	2.423861	0.777218	-0.110140	0.513910	-0.284735	-0.236738	0.928914	-0.054802	-0.963421	-0.262330	0.957038	-0.125601	0.261346
58994	9.145342	-2.525881	2.538834	0.856013	-0.131484	0.498455	-0.283730	-0.241646	0.927957	-0.045237	-0.963276	-0.264675	0.957836	-0.117074	0.262379
58995	9.056142	-2.638600	2.492663	0.820695	-0.115804	0.503111	-0.282830	-0.246570	0.926936	-0.035995	-0.962985	-0.267142	0.958494	-0.108921	0.263486
58996	8.980613	-2.283203	2.734538	0.835396	-0.121892	0.503586	-0.281825	-0.251493	0.925919	-0.026611	-0.962616	-0.269560	0.959097	-0.100608	0.264597
58997	9.252001	-2.553401	2.491007	0.875113	-0.127925	0.507599	-0.280715	-0.256449	0.924896	-0.016834	-0.962180	-0.271896	0.959644	-0.091895	0.265781
58998	9.101052	-2.607511	2.393307	0.807902	-0.132482	0.514066	-0.279513	-0.261457	0.923858	-0.007687	-0.961569	-0.274455	0.960111	-0.083815	0.266761
58999	8.874802	-2.245127	2.514353	0.851823	-0.122961	0.514358	-0.278354	-0.266447	0.922781	0.001881	-0.960901	-0.276886	0.960477	-0.075336	0.267972
59000	9.057655	-3.030162	2.368836	0.860263	-0.138846	0.506942	-0.276994	-0.271362	0.921758	0.011506	-0.960161	-0.279210	0.960803	-0.066734	0.269081
59001	9.057512	-2.424369	2.680144	0.811879	-0.139008	0.502750	-0.275586	-0.276222	0.920735	0.020650	-0.959306	-0.281613	0.961055	-0.058595	0.270075
59002	8.826507	-2.672556	2.595855	0.814055	-0.131834	0.518402	-0.274197	-0.281212	0.919639	0.029852	-0.958318	-0.284139	0.961210	-0.050457	0.271162
59003	9.086036	-3.005551	2.353349	0.862996	-0.147830	0.504095	-0.272610	-0.286057	0.918616	0.039479	-0.957300	-0.286387	0.961314	-0.041806	0.272263
59004	8.722619	-2.727991	2.704201	0.803867	-0.140801	0.514793	-0.271040	-0.290983	0.917533	0.048560	-0.956133	-0.288880	0.961342	-0.033743	0.273280
59005	8.976530	-2.383792	2.480632	0.913948	-0.112032	0.507935	-0.269701	-0.295817	0.916381	0.058672	-0.954925	-0.290992	0.961155	-0.024715	0.274901
59006	8.883969	-3.119414	2.431821	0.800461	-0.138907	0.511020	-0.268054	-0.300671	0.915284	0.067692	-0.953582	-0.293427	0.961023	-0.016697	0.275965
59007	8.875194	-2.371453	3.080560	0.851611	-0.133890	0.498650	-0.266418	-0.305388	0.914199	0.077162	-0.952193	-0.295593	0.960764	-0.008210	0.277246
59008	8.930471	-2.876215	2.809432	0.844475	-0.138855	0.510534	-0.264678	-0.310199	0.913084	0.086583	-0.950672	-0.297870	0.960442	0.000218	0.278480
59009	9.184114	-3.158909	2.215673	0.840755	-0.159486	0.505519	-0.262697	-0.314942	0.912031	0.095944	-0.949071	-0.300098	0.960096	0.008669	0.279535
59010	8.742333	-2.824125	2.825138	0.869896	-0.139419	0.506783	-0.260861	-0.319678	0.910910	0.105574	-0.947368	-0.302239	0.959586	0.017325	0.280881
59011	9.248964	-2.132355	2.777486	0.898317	-0.143964	0.501644	-0.258940	-0.324344	0.909808	0.115449	-0.945575	-0.304237	0.958969	0.026257	0.282292
59012	8.837545	-3.317172	2.287038	0.804087	-0.140888	0.518839	-0.256980	-0.329152	0.908636	0.124450	-0.943655	-0.306640	0.958370	0.034279	0.283464
59013	8.665252	-2.778265	2.996248	0.864085	-0.149943	0.499915	-0.254913	-0.333756	0.907539	0.133962	-0.941683	-0.308685	0.957640	0.042888	0.284758
59014	8.951655	-3.052342	2.743049	0.838342	-0.148250	0.501200	-0.252814	-0.338350	0.906424	0.143213	-0.939624	-0.310799	0.956857	0.051238	0.286006
59015	9.039363	-3.157401	2.379068	0.877186	-0.159250	0.500233	-0.250566	-0.342906	0.905335	0.152817	-0.937453	-0.312777	0.955962	0.059979	0.287295
59016	8.755894	-2.740428	2.867775	0.865068	-0.149679	0.501395	-0.248361	-0.347454	0.904208	0.162287	-0.935187	-0.314783	0.954976	0.068562	0.288652
59017	9.097488	-2.605827	2.731580	0.858910	-0.145067	0.507438	-0.246146	-0.352039	0.903040	0.171695	-0.932808	-0.316844	0.953904	0.077058	0.290050
59018	8.684888	-3.411835	2.550241	0.815751	-0.157600	0.509912	-0.243762	-0.356611	0.901892	0.180676	-0.930362	-0.319035	0.952857	0.085182	0.291218
59019	8.390172	-3.079981	2.963625	0.864301	-0.150497	0.498859	-0.241421	-0.361062	0.900750	0.190072	-0.927821	-0.320970	0.951624	0.093718	0.292624
59020	8.794807	-2.923974	2.899085	0.869968	-0.150642	0.503217	-0.239026	-0.365527	0.899587	0.199509	-0.925163	-0.322909	0.950296	0.102292	0.294064
59021	8.957520	-3.219879	2.703741	0.853790	-0.173363	0.503282	-0.236371	-0.369943	0.898483	0.208769	-0.922426	-0.324879	0.948970	0.110783	0.295267
59022	8.566334	-2.876069	2.978980	0.877052	-0.164218	0.499004	-0.233767	-0.374301	0.897358	0.218214	-0.919583	-0.326725	0.947489	0.119438	0.296646
59023	9.106340	-2.839498	2.743543	0.900662	-0.157457	0.497626	-0.231186	-0.378626	0.896212	0.227853	-0.916619	-0.328471	0.945852	0.128267	0.298181
59024	8.886090	-3.568181	2.493616	0.803022	-0.180594	0.497775	-0.228343	-0.382894	0.895127	0.236542	-0.913686	-0.330492	0.944408	0.136270	0.299205
59025	8.400887	-2.985546	3.058166	0.882808	-0.148419	0.494370	-0.225771	-0.387147	0.893949	0.245951	-0.910567	-0.332228	0.942622	0.144860	0.300799
59026	8.894232	-2.918752	3.068143	0.866853	-0.166930	0.490224	-0.222991	-0.391305	0.892835	0.255170	-0.907393	-0.333955	0.940831	0.153356	0.302190
59027	8.758024	-3.380444	2.533521	0.878498	-0.176274	0.495849	-0.220067	-0.395471	0.891725	0.264483	-0.904084	-0.335681	0.938946	0.161973	0.303554
59028	8.822323	-3.302333	2.864374	0.856273	-0.183069	0.485382	-0.217066	-0.399499	0.890664	0.273532	-0.900759	-0.337364	0.937050	0.170395	0.304800
59029	8.934500	-2.709922	2.875145	0.909871	-0.156818	0.490204	-0.214256	-0.403585	0.889502	0.283063	-0.897227	-0.338908	0.934863	0.179171	0.306477
59030	8.755007	-3.370310	2.795838	0.839127	-0.171324	0.491866	-0.211265	-0.407628	0.888373	0.291902	-0.893723	-0.340666	0.932824	0.187347	0.307800
59031	8.401952	-3.195738	3.207907	0.855200	-0.175608	0.486770	-0.208210	-0.411587	0.887268	0.300849	-0.890119	-0.342312	0.930666	0.195662	0.309157
59032	8.586289	-3.172937	2.864948	0.849157	-0.168535	0.487017	-0.205179	-0.415530	0.886136	0.309707	-0.886438	-0.343961	0.928430	0.203869	0.310571
59033	8.626541	-3.426259	2.875634	0.888248	-0.178287	0.491761	-0.202005	-0.419462	0.885011	0.318902	-0.882565	-0.345513	0.926010	0.212437	0.312050
59034	8.585127	-3.280887	2.783015	0.841457	-0.182017	0.487226	-0.198771	-0.423313	0.883910	0.327619	-0.878721	-0.347154	0.923664	0.220581	0.313349
59035	8.651389	-2.709733	3.215849	0.928086	-0.155681	0.485777	-0.195746	-0.427176	0.882726	0.337096	-0.874597	-0.348491	0.920896	0.229347	0.315198
59036	8.849678	-3.620419	2.918546	0.817122	-0.195110	0.479642	-0.192340	-0.430860	0.881683	0.345500	-0.870664	-0.350105	0.918496	0.237282	0.316326
59037	8.493824	-3.303424	3.035057	0.843930	-0.193413	0.476610	-0.188925	-0.434489	0.880640	0.354108	-0.866597	-0.351593	0.915923	0.245417	0.317578
59038	8.429649	-3.408157	3.066105	0.876817	-0.172551	0.486495	-0.185628	-0.438218	0.879492	0.362997	-0.862318	-0.353046	0.913113	0.253718	0.319143
59039	8.830930	-3.348592	2.875060	0.882828	-0.189085	0.474430	-0.182188	-0.441767	0.878436	0.371878	-0.857985	-0.354355	0.910227	0.262112	0.320599
59040	8.623049	-3.416256	2.836807	0.831477	-0.192366	0.469732	-0.178701	-0.445231	0.877403	0.380242	-0.853723	-0.355771	0.907459	0.270049	0.321856
59041	8.407202	-2.860491	3.608256	0.917093	-0.147240	0.481187	-0.175543	-0.448880	0.876180	0.389362	-0.849090	-0.356993	0.904202	0.278484	0.323829
59042	8.968991	-3.694088	2.669498	0.818897	-0.197890	0.467089	-0.171947	-0.452233	0.875168	0.397527	-0.844707	-0.358390	0.901336	0.286279	0.325019
59043	8.477536	-3.321639	3.134783	0.861190	-0.196317	0.476660	-0.168294	-0.455636	0.874113	0.406047	-0.840077	-0.359718	0.898222	0.294393	0.326390
59044	8.197781	-3.452746	3.130074	0.845150	-0.177529	0.469100	-0.164807	-0.458993	0.873020	0.414367	-0.835445	-0.361014	0.895063	0.302254	0.327879
59045	8.728566	-3.178375	3.119900	0.878331	-0.188558	0.475162	-0.161162	-0.462331	0.871938	0.422950	-0.830600	-0.362237	0.891706	0.310408	0.329405
59046	8.525969	-3.612256	2.859293	0.842079	-0.201689	0.461709	-0.157425	-0.465478	0.870946	0.431142	-0.825847	-0.363445	0.888445	0.318286	0.330696
59047	8.304477	-3.061531	3.484788	0.875735	-0.163298	0.467856	-0.153971	-0.468762	0.869802	0.439598	-0.820876	-0.364578	0.884899	0.326229	0.332458
59048	9.006964	-3.661546	3.086150	0.864134	-0.208872	0.455779	-0.150134	-0.471760	0.868851	0.447884	-0.815915	-0.365625	0.881396	0.334252	0.333791
59049	8.643064	-3.224604	3.015397	0.820587	-0.193260	0.458302	-0.146395	-0.474794	0.867836	0.455746	-0.811009	-0.366825	0.877989	0.341811	0.335113
59050	8.371983	-3.518773	3.188465	0.876879	-0.188930	0.459094	-0.142659	-0.477811	0.866802	0.464054	-0.805828	-0.367825	0.874244	0.349769	0.336689
59051	8.536127	-3.437314	3.122577	0.860177	-0.189200	0.454223	-0.138915	-0.480750	0.865784	0.472161	-0.800646	-0.368822	0.870498	0.357555	0.338213
59052	8.865290	-3.667172	3.032755	0.871472	-0.207875	0.446564	-0.135014	-0.483521	0.864858	0.480305	-0.795381	-0.369697	0.866648	0.365481	0.339625
59053	8.064650	-3.037154	3.668905	0.812045	-0.189506	0.459358	-0.131185	-0.486423	0.863819	0.487904	-0.790194	-0.370869	0.862984	0.372808	0.340989
59054	8.630518	-3.523985	3.221900	0.863829	-0.189170	0.454390	-0.127353	-0.489248	0.862796	0.495892	-0.784763	-0.371803	0.858995	0.380503	0.342557
59055	8.334498	-3.504937	3.154041	0.824444	-0.192124	0.457414	-0.123455	-0.492049	0.861770	0.503497	-0.779390	-0.372883	0.855132	0.387864	0.343964
59056	8.444663	-3.679348	3.180532	0.857107	-0.222500	0.449681	-0.119309	-0.494630	0.860876	0.511319	-0.773855	-0.373767	0.851069	0.395588	0.345241
59057	8.152507	-3.542610	3.027590	0.868031	-0.179340	0.454633	-0.115478	-0.497381	0.859812	0.519188	-0.768173	-0.374639	0.846823	0.403141	0.346941
59058	9.057490	-3.431492	3.543698	0.872081	-0.215912	0.433104	-0.111423	-0.499778	0.858957	0.527010	-0.762505	-0.375295	0.842523	0.410863	0.348349
59059	8.101563	-3.321382	3.352853	0.798493	-0.223745	0.443215	-0.107226	-0.502180	0.858089	0.534173	-0.757016	-0.376279	0.838548	0.418021	0.349423
59060	8.369365	-3.673616	3.326167	0.872584	-0.181172	0.442960	-0.103363	-0.504718	0.857074	0.541903	-0.751148	-0.376986	0.834061	0.425484	0.351149
59061	8.360808	-3.640682	3.144168	0.804994	-0.200963	0.445108	-0.099299	-0.507150	0.856118	0.549018	-0.745484	-0.377933	0.829891	0.432496	0.352460
59062	8.519090	-3.484936	3.174487	0.868885	-0.209097	0.432864	-0.095211	-0.509414	0.855238	0.556596	-0.739536	-0.378533	0.825309	0.439982	0.353950
59063	8.096366	-3.488192	3.597064	0.869655	-0.196646	0.435939	-0.091187	-0.511717	0.854302	0.564128	-0.733494	-0.379140	0.820637	0.447363	0.355558
59064	8.835339	-3.420792	3.434349	0.847094	-0.199160	0.430124	-0.087151	-0.513924	0.853397	0.571410	-0.727511	-0.379760	0.816024	0.454544	0.357065
59065	8.077659	-3.588065	3.462216	0.800072	-0.222318	0.436842	-0.082868	-0.516036	0.852549	0.578262	-0.721640	-0.380591	0.811632	0.461458	0.358205
59066	8.169191	-3.647522	3.297259	0.847132	-0.209196	0.428080	-0.078722	-0.518103	0.851688	0.585431	-0.715531	-0.381164	0.806891	0.468599	0.359641
59067	8.245894	-3.500813	3.401460	0.824657	-0.211324	0.432290	-0.074514	-0.520150	0.850818	0.592366	-0.709438	-0.381838	0.802216	0.475544	0.360982
59068	8.612499	-3.719858	3.277819	0.819636	-0.212383	0.420644	-0.070347	-0.522069	0.849997	0.599196	-0.703364	-0.382417	0.797506	0.482413	0.362301
59069	8.134735	-3.533505	3.554085	0.852666	-0.205985	0.422916	-0.066199	-0.523996	0.849144	0.606233	-0.697053	-0.382881	0.792527	0.489434	0.363808
59070	8.284790	-3.308857	3.431929	0.883089	-0.182045	0.428694	-0.062185	-0.526038	0.848185	0.613454	-0.690495	-0.383264	0.787278	0.496489	0.365638
59071	8.460986	-4.002456	3.406730	0.756783	-0.239495	0.422950	-0.057737	-0.527716	0.847456	0.619619	-0.684529	-0.384046	0.782776	0.502927	0.366505
59072	8.099814	-3.237853	3.562784	0.876195	-0.214043	0.410025	-0.053551	-0.529391	0.846686	0.626653	-0.677971	-0.384267	0.777456	0.510000	0.368051
59073	8.351408	-3.703868	3.464697	0.793746	-0.225715	0.414155	-0.049233	-0.530996	0.845943	0.632989	-0.671746	-0.384813	0.772593	0.516527	0.369187
59074	8.520744	-3.745512	3.173151	0.809700	-0.205964	0.413096	-0.045059	-0.532654	0.845133	0.639391	-0.665388	-0.385278	0.767561	0.523010	0.370555
59075	8.085382	-3.621754	3.662501	0.852381	-0.214204	0.408349	-0.040837	-0.534198	0.844372	0.646058	-0.658769	-0.385529	0.762195	0.529770	0.372025
59076	8.207284	-3.256316	3.831814	0.886785	-0.194676	0.419580	-0.036674	-0.535877	0.843499	0.652927	-0.651843	-0.385730	0.756533	0.536597	0.373794
59077	8.508862	-3.845200	3.202499	0.752170	-0.230968	0.407116	-0.032303	-0.537242	0.842810	0.658712	-0.645646	-0.386315	0.751701	0.542690	0.374744
59078	8.093175	-3.315173	3.817530	0.876247	-0.220459	0.395067	-0.028078	-0.538543	0.842130	0.665366	-0.638784	-0.386319	0.745989	0.549478	0.376264
59079	8.247530	-3.898371	3.449443	0.764857	-0.229056	0.400383	-0.023741	-0.539793	0.841463	0.671131	-0.632447	-0.386775	0.740959	0.555549	0.377286
59080	8.263774	-3.684557	3.277838	0.816765	-0.205027	0.401147	-0.019564	-0.541140	0.840705	0.677221	-0.625764	-0.387028	0.735520	0.561771	0.378714
59081	8.237078	-3.566511	3.835800	0.820445	-0.227392	0.400817	-0.015214	-0.542321	0.840034	0.683277	-0.619006	-0.387252	0.730001	0.568084	0.379973
59082	8.135651	-3.171123	3.764550	0.871896	-0.204326	0.401661	-0.011013	-0.543596	0.839275	0.689643	-0.611893	-0.387271	0.724066	0.574535	0.381626
59083	8.424311	-4.051086	3.400589	0.742967	-0.240401	0.392973	-0.006601	-0.544571	0.838689	0.695014	-0.605513	-0.387697	0.718966	0.580341	0.382482
59084	8.166092	-3.375565	3.808466	0.857139	-0.230978	0.378553	-0.002347	-0.545473	0.838125	0.701143	-0.598498	-0.387554	0.713016	0.586736	0.383860
59085	8.297988	-3.865619	3.255101	0.760554	-0.229092	0.386366	0.001956	-0.546395	0.837525	0.706523	-0.591953	-0.387835	0.707687	0.592490	0.384883
59086	8.257546	-3.569503	3.696911	0.841622	-0.216822	0.384704	0.006170	-0.547338	0.836889	0.712415	-0.584888	-0.387778	0.701732	0.598604	0.386323
59087	8.280673	-3.772863	3.540536	0.770239	-0.236998	0.380965	0.010507	-0.548102	0.836346	0.717744	-0.578217	-0.387954	0.696228	0.604358	0.387322
59088	7.864512	-3.057413	4.148600	0.856594	-0.193357	0.384463	0.014574	-0.549109	0.835624	0.723610	-0.570957	-0.387810	0.690055	0.610318	0.389019
59089	8.390085	-4.125807	3.282910	0.755314	-0.236444	0.384179	0.018945	-0.549814	0.835072	0.728715	-0.564265	-0.388046	0.684555	0.615881	0.389968
59090	8.021968	-3.190933	3.856855	0.821102	-0.212935	0.377792	0.023115	-0.550588	0.834457	0.734210	-0.557157	-0.387959	0.678529	0.621634	0.391368
59091	8.197914	-3.812624	3.527631	0.761601	-0.222040	0.373137	0.027320	-0.551243	0.833897	0.739241	-0.550396	-0.388055	0.672887	0.627052	0.392465
59092	8.162035	-3.635581	3.795111	0.812400	-0.204503	0.385679	0.031506	-0.552038	0.833224	0.744548	-0.543204	-0.388043	0.666825	0.632601	0.393904
59093	8.326878	-3.720338	3.706180	0.767740	-0.240486	0.364295	0.035779	-0.552452	0.832776	0.749503	-0.536365	-0.388018	0.661034	0.638051	0.394874
59094	7.954729	-3.236333	4.000290	0.850230	-0.212187	0.371017	0.039921	-0.553043	0.832196	0.754934	-0.528918	-0.387711	0.654584	0.643731	0.396396
59095	8.347089	-4.149031	3.468476	0.739587	-0.254840	0.369096	0.044331	-0.553312	0.831793	0.759580	-0.522147	-0.387816	0.648902	0.649006	0.397138
59096	8.047380	-3.001287	3.937843	0.836125	-0.224074	0.348642	0.048389	-0.553635	0.831352	0.764797	-0.514820	-0.387357	0.642451	0.654560	0.398507
59097	8.358780	-4.065296	3.426839	0.740455	-0.228953	0.363143	0.052593	-0.553965	0.830877	0.769331	-0.507995	-0.387389	0.636682	0.659593	0.399466
59098	8.082924	-3.435434	3.949235	0.824532	-0.218185	0.359767	0.056706	-0.554311	0.830376	0.774339	-0.500594	-0.387046	0.630225	0.664940	0.400838
59099	8.116023	-3.967271	3.738439	0.763001	-0.246195	0.353547	0.060949	-0.554403	0.830013	0.778899	-0.493593	-0.386888	0.624181	0.670077	0.401740
59100	8.011699	-2.914379	4.448631	0.843858	-0.217000	0.348527	0.064973	-0.554627	0.829558	0.783900	-0.486037	-0.386353	0.617478	0.675394	0.403193
59101	8.350320	-4.109436	3.283637	0.698414	-0.252085	0.349455	0.069222	-0.554585	0.829243	0.787942	-0.479417	-0.386402	0.611846	0.680143	0.403795
59102	8.150705	-2.978615	4.106592	0.807429	-0.234568	0.336898	0.073265	-0.554564	0.828909	0.792599	-0.472091	-0.385898	0.605326	0.685266	0.404959
59103	8.330649	-4.045652	3.525433	0.728150	-0.234823	0.339291	0.077329	-0.554520	0.828570	0.796714	-0.465255	-0.385727	0.599390	0.689961	0.405816
59104	8.144631	-3.517623	3.738681	0.800442	-0.219949	0.346993	0.081365	-0.554576	0.828145	0.801194	-0.457843	-0.385317	0.592848	0.694856	0.407071
59105	8.191850	-3.703987	3.787454	0.759658	-0.247028	0.342756	0.085527	-0.554392	0.827849	0.805372	-0.450698	-0.385028	0.586567	0.699657	0.407945
59106	7.868665	-3.131206	4.388713	0.803611	-0.215250	0.344674	0.089519	-0.554401	0.827421	0.809742	-0.443201	-0.384566	0.579917	0.704424	0.409247
59107	8.139892	-4.169916	3.385310	0.720756	-0.235343	0.339470	0.093584	-0.554212	0.827098	0.813575	-0.436279	-0.384390	0.573879	0.708879	0.410065
59108	8.038372	-3.022318	4.169471	0.785456	-0.235800	0.323047	0.097516	-0.553913	0.826844	0.817734	-0.428957	-0.383806	0.567276	0.713566	0.411123
59109	8.410616	-3.907352	3.723454	0.725435	-0.239805	0.325162	0.101486	-0.553563	0.826601	0.821490	-0.422018	-0.383478	0.561119	0.717962	0.411917
59110	8.236796	-3.362753	3.936305	0.775599	-0.229144	0.323155	0.105377	-0.553245	0.826327	0.825469	-0.414699	-0.382918	0.554524	0.722458	0.412986
59111	8.117414	-3.720722	3.985246	0.734441	-0.247394	0.326954	0.109397	-0.552780	0.826115	0.829154	-0.407623	-0.382553	0.548211	0.726827	0.413747
59112	7.973253	-3.203496	4.073579	0.787278	-0.211368	0.326443	0.113214	-0.552539	0.825762	0.833068	-0.400135	-0.381956	0.541462	0.731159	0.415002
59113	8.253550	-3.925969	3.648303	0.677778	-0.246750	0.323748	0.117196	-0.551999	0.825568	0.836333	-0.393432	-0.381784	0.535549	0.735193	0.415546
59114	7.898162	-3.188454	3.974621	0.822551	-0.242918	0.311652	0.121052	-0.551403	0.825409	0.840326	-0.385702	-0.380903	0.528393	0.739722	0.416668
59115	8.190527	-3.732472	4.132297	0.692052	-0.241677	0.319369	0.124961	-0.550817	0.825218	0.843558	-0.378863	-0.380622	0.522298	0.743682	0.417303
59116	8.064336	-3.530967	3.579346	0.773513	-0.229115	0.310021	0.128722	-0.550254	0.825016	0.847167	-0.371444	-0.379917	0.515498	0.747830	0.418344
59117	7.865132	-3.806884	4.373015	0.722292	-0.233728	0.320413	0.132589	-0.549667	0.824795	0.850439	-0.364321	-0.379505	0.509091	0.751756	0.419153
59118	8.134501	-3.085014	3.810673	0.783025	-0.226649	0.313211	0.136355	-0.549071	0.824578	0.853967	-0.356754	-0.378771	0.502144	0.755809	0.420243
59119	8.189991	-3.784697	4.054107	0.686451	-0.250231	0.306311	0.140174	-0.548244	0.824487	0.856960	-0.349927	-0.378380	0.495955	0.759592	0.420773
59120	8.038639	-3.178889	3.897556	0.762220	-0.235319	0.296358	0.143829	-0.547463	0.824377	0.860284	-0.342555	-0.377582	0.489106	0.763505	0.421704
59121	8.124294	-3.557797	4.200775	0.707058	-0.234806	0.300605	0.147510	-0.546673	0.824251	0.863273	-0.335554	-0.377045	0.482701	0.767172	0.422430
59122	8.463912	-3.767154	3.480817	0.710879	-0.254387	0.288498	0.151175	-0.545659	0.824259	0.866242	-0.328568	-0.376387	0.476204	0.770908	0.423002
59123	7.842463	-3.497583	4.301197	0.746179	-0.229879	0.290682	0.154734	-0.544816	0.824156	0.869318	-0.321272	-0.375593	0.469407	0.774571	0.423907
59124	8.237406	-3.332363	3.765861	0.755949	-0.237453	0.299966	0.158403	-0.543911	0.824057	0.872363	-0.313827	-0.374827	0.462483	0.778251	0.424777
59125	7.954386	-3.291934	4.261957	0.677104	-0.242453	0.302889	0.162112	-0.542949	0.823970	0.874982	-0.306955	-0.374414	0.456209	0.781655	0.425310
59126	7.857102	-3.503265	3.953496	0.770855	-0.243317	0.277697	0.165597	-0.541871	0.823986	0.878009	-0.299467	-0.373390	0.449085	0.785300	0.426177
59127	7.997826	-3.530109	4.155124	0.669560	-0.221462	0.291682	0.169099	-0.540982	0.823859	0.880501	-0.292674	-0.372907	0.442858	0.788467	0.426845
59128	7.831512	-3.641472	4.047650	0.683524	-0.241426	0.293048	0.172694	-0.539909	0.823817	0.883000	-0.285747	-0.372371	0.436450	0.791736	0.427393
59129	7.867048	-3.445986	4.317043	0.778848	-0.211707	0.293571	0.176156	-0.539048	0.823648	0.885854	-0.278039	-0.371426	0.429223	0.795060	0.428540
59130	8.534178	-3.570647	4.028151	0.650715	-0.256203	0.284463	0.179720	-0.537777	0.823709	0.888115	-0.271381	-0.370949	0.423027	0.798216	0.428835
59131	7.955960	-2.877171	4.272767	0.743688	-0.225078	0.271056	0.183024	-0.536694	0.823688	0.890740	-0.264032	-0.369960	0.416035	0.801403	0.429730
59132	7.892450	-4.044824	3.612119	0.672399	-0.234192	0.281406	0.186450	-0.535535	0.823674	0.892991	-0.257182	-0.369356	0.409637	0.804400	0.430277
59133	8.346833	-2.991669	4.462570	0.699338	-0.240430	0.256861	0.189672	-0.534242	0.823778	0.895346	-0.250228	-0.368430	0.402963	0.807447	0.430871
59134	8.146674	-3.647544	3.819931	0.685953	-0.234386	0.272687	0.193003	-0.533008	0.823803	0.897563	-0.243281	-0.367689	0.396397	0.810380	0.431454
59135	8.317907	-3.435096	4.134606	0.726452	-0.235815	0.264170	0.196252	-0.531720	0.823868	0.899901	-0.236033	-0.366698	0.389441	0.813365	0.432174
59136	8.096018	-3.417144	3.816437	0.662540	-0.257634	0.268778	0.199618	-0.530236	0.824016	0.901925	-0.229265	-0.366018	0.382994	0.816264	0.432468
59137	8.035538	-3.052128	4.603975	0.750586	-0.220265	0.263078	0.202778	-0.529023	0.824024	0.904241	-0.221790	-0.364907	0.375804	0.819112	0.433390
59138	8.112036	-3.773757	3.758694	0.617158	-0.246831	0.259199	0.205993	-0.527555	0.824168	0.906010	-0.215415	-0.364337	0.369746	0.821756	0.433596
59139	8.251232	-2.872415	4.209108	0.708863	-0.243958	0.254133	0.209140	-0.526080	0.824318	0.908079	-0.208297	-0.363326	0.362841	0.824531	0.434159
59140	8.294110	-3.334383	4.462679	0.683059	-0.243766	0.250169	0.212239	-0.524570	0.824488	0.910006	-0.201399	-0.362391	0.356151	0.827203	0.434617
59141	8.247025	-3.876512	3.690217	0.646623	-0.261851	0.247185	0.215363	-0.522886	0.824748	0.911760	-0.194803	-0.361589	0.349733	0.829844	0.434793
59142	7.819171	-3.015749	4.475812	0.712018	-0.238118	0.251992	0.218436	-0.521381	0.824892	0.913678	-0.187627	-0.360539	0.342751	0.832441	0.435390
59143	8.253777	-3.685922	3.899985	0.679707	-0.237482	0.248316	0.221462	-0.519855	0.825049	0.915439	-0.180724	-0.359597	0.336044	0.834919	0.435872
59144	7.865959	-2.974157	4.421532	0.631639	-0.242913	0.258040	0.224583	-0.518274	0.825200	0.916967	-0.174161	-0.358942	0.329748	0.837293	0.436127
59145	7.905702	-3.464183	4.212938	0.737303	-0.246169	0.233452	0.227477	-0.516605	0.825453	0.918845	-0.166826	-0.357621	0.322456	0.839814	0.436731
59146	8.178472	-3.157598	3.960722	0.596843	-0.225959	0.242259	0.230375	-0.515095	0.825594	0.920199	-0.160616	-0.356983	0.316483	0.841950	0.436988
59147	8.018498	-3.586037	4.118585	0.653625	-0.226926	0.241426	0.233257	-0.513560	0.825741	0.921689	-0.153919	-0.356089	0.309970	0.844136	0.437439
59148	8.191663	-3.182100	4.500875	0.711234	-0.233588	0.235245	0.236091	-0.511932	0.825946	0.923318	-0.146759	-0.354888	0.302894	0.846396	0.438028
59149	8.123338	-3.536831	3.699642	0.621067	-0.256410	0.229734	0.238931	-0.510088	0.826270	0.924637	-0.140377	-0.354035	0.296579	0.848590	0.438106
59150	8.123717	-2.648359	4.746696	0.693793	-0.224455	0.230997	0.241674	-0.508491	0.826456	0.926118	-0.133365	-0.352873	0.289653	0.850676	0.438692
59151	8.186096	-3.709012	3.544853	0.600761	-0.232881	0.231799	0.244438	-0.506810	0.826677	0.927280	-0.127127	-0.352123	0.283552	0.852633	0.438880
59152	8.194748	-2.818938	4.557891	0.642751	-0.242405	0.226622	0.247168	-0.505016	0.826962	0.928528	-0.120552	-0.351145	0.277025	0.854650	0.439125
59153	8.085418	-3.391428	4.110626	0.639599	-0.243936	0.216070	0.249792	-0.503182	0.827292	0.929747	-0.114045	-0.350092	0.270509	0.856622	0.439345
59154	8.267642	-3.766396	3.850809	0.633776	-0.241300	0.216558	0.252399	-0.501348	0.827614	0.930901	-0.107581	-0.349069	0.264040	0.858532	0.439552
59155	8.042034	-2.982948	4.610783	0.644176	-0.240424	0.228070	0.255099	-0.499521	0.827891	0.932007	-0.100958	-0.348095	0.257463	0.860399	0.439803
59156	8.413671	-3.260678	3.856709	0.685589	-0.240486	0.211715	0.257632	-0.497652	0.828232	0.933211	-0.094056	-0.346801	0.250486	0.862262	0.440182
59157	8.005335	-2.960362	4.451431	0.572064	-0.240538	0.220932	0.260238	-0.495779	0.828541	0.934061	-0.088076	-0.346083	0.244555	0.863971	0.440167
59158	8.011558	-3.152084	4.060384	0.691030	-0.236339	0.204459	0.262666	-0.493904	0.828894	0.935197	-0.081146	-0.344704	0.237512	0.865722	0.440584
59159	8.215952	-3.358308	3.996302	0.568750	-0.226353	0.209868	0.265109	-0.492110	0.829184	0.935984	-0.075238	-0.343908	0.231627	0.867276	0.440660
59160	8.054734	-3.188445	4.409191	0.598027	-0.218935	0.219901	0.267616	-0.490365	0.829412	0.936772	-0.069025	-0.343066	0.225477	0.868780	0.440888
59161	8.439428	-3.285673	4.210558	0.677502	-0.239952	0.197749	0.269950	-0.488411	0.829808	0.937751	-0.062221	-0.341688	0.218516	0.870392	0.441212
59162	8.141845	-3.231646	3.979576	0.565019	-0.250019	0.200692	0.272320	-0.486349	0.830245	0.938432	-0.056378	-0.340831	0.212571	0.871944	0.441053
59163	8.474364	-2.672008	4.544257	0.713912	-0.229039	0.185325	0.274486	-0.484453	0.830640	0.939425	-0.049304	-0.339190	0.205275	0.873427	0.441574
59164	8.101695	-3.416882	4.001530	0.505167	-0.263039	0.199271	0.276840	-0.482244	0.831144	0.939907	-0.043982	-0.338586	0.199837	0.874932	0.441089
59165	8.110009	-2.776753	4.529891	0.676911	-0.239514	0.185411	0.279001	-0.480227	0.831589	0.940729	-0.037217	-0.337110	0.192839	0.876354	0.441380
59166	8.053312	-3.401162	3.979512	0.582560	-0.227041	0.203453	0.281294	-0.478304	0.831925	0.941274	-0.031191	-0.336201	0.186755	0.877640	0.441441
59167	8.065437	-3.381799	4.055654	0.551563	-0.235024	0.197828	0.283537	-0.476301	0.832313	0.941738	-0.025457	-0.335382	0.180931	0.878914	0.441333
59168	8.245965	-2.904764	4.409543	0.650468	-0.220382	0.192494	0.285690	-0.474404	0.832660	0.942355	-0.018879	-0.334083	0.174210	0.880105	0.441663
59169	8.043727	-3.505193	3.859640	0.582335	-0.246085	0.187037	0.287822	-0.472273	0.833137	0.942825	-0.012920	-0.333039	0.168049	0.881358	0.441552
59170	8.251673	-2.307084	4.844755	0.620201	-0.224703	0.178091	0.289819	-0.470308	0.833556	0.943342	-0.006668	-0.331754	0.161585	0.882477	0.441729
59171	8.340731	-3.531899	3.871089	0.567224	-0.238897	0.183153	0.291874	-0.468212	0.834019	0.943720	-0.000855	-0.330745	0.155572	0.883616	0.441611
59172	8.215927	-2.696814	4.199688	0.550825	-0.235028	0.176617	0.293848	-0.466130	0.834491	0.944054	0.004783	-0.329756	0.149718	0.884703	0.441458
59173	8.201895	-3.019841	4.499876	0.636089	-0.219499	0.177148	0.295790	-0.464181	0.834892	0.944474	0.011183	-0.328396	0.143098	0.885670	0.441714
59174	8.075541	-3.742779	3.773476	0.537511	-0.242821	0.177062	0.297751	-0.462004	0.835402	0.944714	0.016709	-0.327471	0.137334	0.886720	0.441437
59175	8.197042	-2.539188	4.542283	0.608443	-0.230452	0.174586	0.299658	-0.459933	0.835863	0.945020	0.022858	-0.326213	0.130930	0.887659	0.441496
59176	8.274927	-3.525304	4.071565	0.588761	-0.246365	0.164936	0.301479	-0.457703	0.836432	0.945289	0.028787	-0.324963	0.124659	0.888639	0.441340
59177	8.299179	-2.155137	4.595897	0.557437	-0.235812	0.176205	0.303380	-0.455560	0.836914	0.945446	0.034493	-0.323947	0.118709	0.889537	0.441172
59178	8.380888	-3.273864	3.809214	0.591842	-0.221317	0.159609	0.305093	-0.453532	0.837393	0.945657	0.040429	-0.322642	0.112474	0.890323	0.441220
59179	8.179240	-2.929172	4.250820	0.512581	-0.230932	0.169878	0.306901	-0.451411	0.837878	0.945713	0.045709	-0.321773	0.106953	0.891145	0.440933
59180	8.239716	-2.735033	4.677482	0.618634	-0.220884	0.161574	0.308606	-0.449364	0.838352	0.945870	0.051895	-0.320369	0.100456	0.891840	0.441056
59181	8.183045	-3.824548	3.608471	0.504434	-0.239409	0.161392	0.310315	-0.447150	0.838905	0.945877	0.057066	-0.319468	0.094978	0.892637	0.440658
59182	8.175554	-2.331590	4.552424	0.599624	-0.222421	0.165932	0.312037	-0.445067	0.839374	0.945925	0.063103	-0.318188	0.088647	0.893271	0.440690
59183	8.368993	-3.428613	3.845122	0.568376	-0.242909	0.153002	0.313641	-0.442806	0.839972	0.945947	0.068808	-0.316938	0.082545	0.893973	0.440452
59184	8.277687	-2.134732	4.624121	0.518459	-0.226968	0.154336	0.315229	-0.440668	0.840501	0.945890	0.074070	-0.315921	0.076961	0.894609	0.440172
59185	8.398333	-3.309579	3.803609	0.594896	-0.227771	0.141523	0.316685	-0.438532	0.841071	0.945896	0.079962	-0.314462	0.070648	0.895151	0.440128
59186	8.071152	-2.908125	4.224166	0.462172	-0.236793	0.161604	0.318322	-0.436281	0.841623	0.945713	0.084751	-0.313758	0.065558	0.895810	0.439575
59187	8.170372	-2.642278	4.808736	0.631348	-0.199666	0.147114	0.319786	-0.434375	0.842054	0.945652	0.090995	-0.312190	0.058985	0.896124	0.439866
59188	8.227784	-3.814023	3.499380	0.448951	-0.246614	0.151158	0.321303	-0.432026	0.842685	0.945437	0.095618	-0.311459	0.053982	0.896778	0.439176
59189	8.395814	-2.063345	4.510941	0.619019	-0.220544	0.142056	0.322706	-0.429920	0.843225	0.945309	0.101730	-0.309907	0.047454	0.897117	0.439236
59190	8.215748	-3.531269	3.827666	0.517789	-0.228482	0.140397	0.324083	-0.427727	0.843813	0.945102	0.106922	-0.308787	0.041855	0.897562	0.438897
59191	8.666347	-1.919248	4.678839	0.515746	-0.218466	0.134831	0.325392	-0.425631	0.844369	0.944882	0.112075	-0.307631	0.036305	0.897929	0.438640
59192	8.403286	-3.145893	3.781386	0.526693	-0.226425	0.131061	0.326653	-0.423451	0.844977	0.944648	0.117305	-0.306398	0.030624	0.898292	0.438331
59193	8.179639	-2.805147	4.297278	0.497727	-0.219672	0.140193	0.327988	-0.421323	0.845524	0.944345	0.122317	-0.305371	0.025238	0.898624	0.437993
59194	8.290396	-2.768943	4.322250	0.561937	-0.208235	0.140869	0.329312	-0.419280	0.846025	0.944024	0.127903	-0.304071	0.019281	0.898802	0.437930
59195	8.160657	-3.403792	3.988556	0.429575	-0.237039	0.144934	0.330669	-0.416974	0.846635	0.943636	0.132319	-0.303386	0.014479	0.899235	0.437226
59196	8.512708	-2.444014	4.421681	0.577444	-0.213883	0.119568	0.331769	-0.414894	0.847226	0.943324	0.137953	-0.301844	0.008355	0.899351	0.437148
59197	8.348172	-3.099400	3.683015	0.492187	-0.233317	0.133660	0.332992	-0.412622	0.847856	0.942925	0.142882	-0.300795	0.002972	0.899627	0.436650
59198	8.758535	-2.005983	4.830881	0.561002	-0.229411	0.119336	0.334065	-0.410389	0.848517	0.942545	0.148364	-0.299328	-0.003049	0.899760	0.436374
59199	8.036504	-3.261035	3.804540	0.460154	-0.230974	0.127676	0.335205	-0.408133	0.849155	0.942110	0.152976	-0.298374	-0.008124	0.900014	0.435785
59200	8.259485	-2.511846	4.156060	0.511735	-0.212391	0.127217	0.336328	-0.406029	0.849720	0.941646	0.158044	-0.297194	-0.013624	0.900090	0.435491
59201	8.644339	-2.954102	4.162361	0.506579	-0.216977	0.116213	0.337336	-0.403905	0.850332	0.941191	0.163023	-0.295945	-0.019090	0.900158	0.435145
59202	8.186737	-2.711375	4.272865	0.470739	-0.218770	0.131427	0.338473	-0.401724	0.850914	0.940664	0.167735	-0.294985	-0.024226	0.900268	0.434661
59203	8.225707	-2.955138	3.994092	0.542790	-0.209188	0.116467	0.339461	-0.399659	0.851492	0.940141	0.173037	-0.293586	-0.030005	0.900184	0.434475
59204	8.311932	-2.781146	4.255508	0.428925	-0.225179	0.116440	0.340431	-0.397433	0.852147	0.939627	0.177307	-0.292684	-0.034769	0.900338	0.433800
59205	8.573186	-2.195539	4.338774	0.564342	-0.214376	0.103056	0.341268	-0.395335	0.852788	0.939082	0.182745	-0.291084	-0.040767	0.900175	0.433616
59206	8.474042	-2.743211	3.982985	0.439234	-0.211979	0.113543	0.342190	-0.393222	0.853395	0.938525	0.187092	-0.290118	-0.045583	0.900207	0.433070
59207	8.605304	-2.625790	4.183728	0.466719	-0.219526	0.108270	0.343050	-0.391059	0.854043	0.937949	0.191667	-0.288990	-0.050680	0.900187	0.432544
