// General information: 
//  MT Manager version: 2019.2.0 
//  XDA version: 2019.2.0 build 3853 rev 94535 built on 2019-09-09
// Device information: 
//  DeviceId: 00B44109
//  ProductCode: MTW2-3A7G6
//  Firmware Version: 4.3.5
//  Hardware Version: 1.1.0
// Device settings: 
//  Filter Profile: human(46.1)
//  Option Flags: Orientation Smoother Disabled, AHS Disabled, ICC Disabled
// Coordinate system: ENU
PacketCounter	Acc_X	Acc_Y	Acc_Z	Gyr_X	Gyr_Y	Gyr_Z	Mat[1][1]	Mat[2][1]	Mat[3][1]	Mat[1][2]	Mat[2][2]	Mat[3][2]	Mat[1][3]	Mat[2][3]	Mat[3][3]
58398	9.522045	-0.072839	-2.404407	-0.001795	0.001970	-0.002145	0.246386	0.002364	0.969169	0.040915	-0.999131	-0.007964	0.968308	0.041615	-0.246269
58399	9.535650	-0.092482	-2.408436	0.000073	0.002514	-0.001983	0.246381	0.002365	0.969170	0.040916	-0.999131	-0.007964	0.968309	0.041617	-0.246264
58400	9.521309	-0.078082	-2.380137	0.001978	0.004315	-0.002814	0.246358	0.002373	0.969176	0.040937	-0.999130	-0.007960	0.968314	0.041636	-0.246241
58401	9.523143	-0.066559	-2.427275	-0.006664	0.002542	-0.000072	0.246354	0.002354	0.969177	0.040869	-0.999133	-0.007962	0.968318	0.041570	-0.246236
58402	9.535871	-0.091857	-2.407586	0.000640	0.001684	-0.003181	0.246354	0.002367	0.969177	0.040876	-0.999133	-0.007951	0.968318	0.041575	-0.246237
58403	9.503859	-0.073560	-2.454373	0.003243	0.004432	-0.000464	0.246331	0.002351	0.969183	0.040905	-0.999131	-0.007973	0.968322	0.041608	-0.246213
58404	9.502150	-0.084858	-2.406737	0.000566	-0.000830	-0.001197	0.246357	0.002345	0.969176	0.040909	-0.999131	-0.007981	0.968315	0.041614	-0.246239
58405	9.557177	-0.072866	-2.426912	0.000073	0.002514	-0.001984	0.246352	0.002345	0.969178	0.040910	-0.999131	-0.007981	0.968317	0.041615	-0.246234
58406	9.503979	-0.073148	-2.453921	0.000640	0.001684	-0.003181	0.246355	0.002358	0.969177	0.040920	-0.999131	-0.007971	0.968315	0.041622	-0.246237
58407	9.556373	-0.078021	-2.402905	-0.001265	-0.000117	-0.002350	0.246375	0.002363	0.969172	0.040909	-0.999131	-0.007963	0.968311	0.041610	-0.246258
58408	9.502301	-0.083991	-2.406171	-0.000456	0.004601	-0.001778	0.246348	0.002361	0.969178	0.040904	-0.999131	-0.007964	0.968318	0.041605	-0.246231
58409	9.509064	-0.051016	-2.397953	0.000530	-0.002087	-0.000206	0.246389	0.002345	0.969168	0.040906	-0.999131	-0.007982	0.968307	0.041611	-0.246271
58410	9.523512	-0.065162	-2.425863	-0.000493	0.003344	-0.000786	0.246373	0.002333	0.969172	0.040898	-0.999131	-0.007991	0.968312	0.041606	-0.246255
58411	9.502397	-0.083604	-2.405806	-0.003096	0.000596	-0.003504	0.246386	0.002350	0.969169	0.040872	-0.999133	-0.007969	0.968309	0.041575	-0.246269
58412	9.536272	-0.090109	-2.406064	-0.001795	0.001970	-0.002145	0.246389	0.002352	0.969168	0.040856	-0.999133	-0.007962	0.968310	0.041558	-0.246271
58413	9.502461	-0.083056	-2.405573	0.000603	0.000427	-0.002189	0.246404	0.002355	0.969164	0.040863	-0.999133	-0.007961	0.968305	0.041564	-0.246286
58414	9.523643	-0.064202	-2.425375	0.002471	0.000972	-0.002028	0.246414	0.002356	0.969162	0.040889	-0.999132	-0.007967	0.968302	0.041591	-0.246297
58415	9.522817	-0.069757	-2.401438	-0.000493	0.003344	-0.000786	0.246402	0.002344	0.969165	0.040882	-0.999132	-0.007977	0.968305	0.041586	-0.246284
58416	9.536412	-0.089423	-2.405535	0.001170	-0.000403	-0.003387	0.246425	0.002360	0.969159	0.040898	-0.999132	-0.007966	0.968298	0.041600	-0.246308
58417	9.523736	-0.063657	-2.425027	0.000603	0.000427	-0.002189	0.246440	0.002363	0.969155	0.040905	-0.999131	-0.007965	0.968294	0.041607	-0.246323
58418	9.537360	-0.083473	-2.429006	-0.001626	0.005004	0.001609	0.246413	0.002327	0.969162	0.040881	-0.999132	-0.007996	0.968302	0.041591	-0.246294
58419	9.522990	-0.069263	-2.400766	-0.001831	0.000713	-0.001153	0.246426	0.002319	0.969159	0.040862	-0.999133	-0.007999	0.968300	0.041573	-0.246307
58420	9.503618	-0.076403	-2.428247	0.000640	0.001684	-0.003181	0.246429	0.002333	0.969158	0.040870	-0.999133	-0.007987	0.968299	0.041577	-0.246310
58421	9.538385	-0.077278	-2.452191	0.000640	0.001684	-0.003181	0.246431	0.002345	0.969157	0.040879	-0.999132	-0.007977	0.968298	0.041584	-0.246313
58422	9.502807	-0.081542	-2.404255	0.000604	0.000427	-0.002189	0.246444	0.002349	0.969154	0.040885	-0.999132	-0.007975	0.968294	0.041589	-0.246326
58423	9.543394	-0.055342	-2.396446	0.000037	0.001257	-0.000992	0.246451	0.002340	0.969152	0.040883	-0.999132	-0.007984	0.968292	0.041590	-0.246333
58424	9.502922	-0.081245	-2.403810	0.001449	0.006403	-0.002608	0.246408	0.002345	0.969163	0.040898	-0.999131	-0.007981	0.968303	0.041603	-0.246290
58425	9.517438	-0.095170	-2.431504	-0.003132	-0.000662	-0.002512	0.246433	0.002352	0.969157	0.040869	-0.999133	-0.007967	0.968298	0.041572	-0.246316
58426	9.503910	-0.075115	-2.427143	-0.000493	0.003344	-0.000786	0.246420	0.002340	0.969160	0.040862	-0.999133	-0.007977	0.968301	0.041568	-0.246302
58427	9.524272	-0.061871	-2.422965	-0.001757	0.003227	-0.003137	0.246408	0.002352	0.969163	0.040849	-0.999134	-0.007961	0.968305	0.041551	-0.246290
58428	9.503148	-0.080525	-2.402942	0.001264	0.000117	0.002351	0.246426	0.002310	0.969159	0.040851	-0.999133	-0.008006	0.968300	0.041564	-0.246306
58429	9.524329	-0.061908	-2.422740	0.000037	0.001257	-0.000992	0.246433	0.002301	0.969157	0.040850	-0.999133	-0.008015	0.968298	0.041565	-0.246314
58430	9.503220	-0.080388	-2.402663	-0.001757	0.003227	-0.003137	0.246423	0.002312	0.969160	0.040838	-0.999134	-0.008000	0.968301	0.041550	-0.246304
58431	9.556532	-0.079603	-2.375146	-0.002361	0.002800	-0.000948	0.246416	0.002302	0.969161	0.040813	-0.999135	-0.008004	0.968304	0.041527	-0.246297
58432	9.517793	-0.094082	-2.430159	-0.001227	0.001140	-0.003343	0.246425	0.002316	0.969159	0.040806	-0.999135	-0.007988	0.968303	0.041516	-0.246306
58433	9.504250	-0.074086	-2.425843	0.001868	0.000545	0.000162	0.246440	0.002296	0.969155	0.040819	-0.999134	-0.008012	0.968298	0.041535	-0.246320
58434	9.523691	-0.066709	-2.398058	-0.000493	0.003344	-0.000786	0.246428	0.002285	0.969158	0.040810	-0.999135	-0.008022	0.968301	0.041528	-0.246308
58435	9.537255	-0.086562	-2.402292	0.000493	-0.003344	0.000786	0.246481	0.002260	0.969145	0.040809	-0.999135	-0.008049	0.968288	0.041534	-0.246360
58436	9.538141	-0.080767	-2.426029	-0.001757	0.003227	-0.003137	0.246468	0.002271	0.969148	0.040796	-0.999135	-0.008033	0.968292	0.041517	-0.246348
58437	9.538213	-0.080502	-2.425756	0.000074	0.002515	-0.001984	0.246463	0.002272	0.969149	0.040797	-0.999135	-0.008033	0.968293	0.041518	-0.246343
58438	9.504424	-0.073465	-2.425179	-0.001794	0.001970	-0.002145	0.246463	0.002274	0.969149	0.040781	-0.999136	-0.008027	0.968294	0.041501	-0.246343
58439	9.518037	-0.093049	-2.429240	0.000641	0.001685	-0.003181	0.246466	0.002287	0.969149	0.040790	-0.999136	-0.008016	0.968293	0.041508	-0.246346
58440	9.504523	-0.072835	-2.424812	-0.001190	0.002398	-0.004335	0.246461	0.002311	0.969150	0.040785	-0.999136	-0.007990	0.968294	0.041496	-0.246343
58441	9.524887	-0.059490	-2.420607	-0.000456	0.004602	-0.001778	0.246436	0.002308	0.969156	0.040780	-0.999136	-0.007990	0.968301	0.041492	-0.246318
58442	9.517368	-0.097936	-2.404678	0.001905	0.001802	-0.000830	0.246440	0.002297	0.969155	0.040796	-0.999135	-0.008005	0.968299	0.041511	-0.246320
58443	9.504751	-0.072231	-2.423936	-0.001756	0.003227	-0.003137	0.246428	0.002309	0.969158	0.040783	-0.999136	-0.007989	0.968303	0.041494	-0.246309
58444	9.525066	-0.058898	-2.419915	-0.001264	-0.000117	-0.002351	0.246448	0.002314	0.969153	0.040772	-0.999137	-0.007982	0.968298	0.041482	-0.246329
58445	9.538674	-0.078556	-2.424008	0.001942	0.003060	-0.001822	0.246437	0.002313	0.969156	0.040791	-0.999136	-0.007988	0.968300	0.041501	-0.246319
58446	9.485498	-0.078894	-2.451042	-0.003661	0.001425	-0.002308	0.246442	0.002317	0.969155	0.040758	-0.999137	-0.007976	0.968300	0.041466	-0.246324
58447	9.532966	-0.105306	-2.455446	0.000074	0.002515	-0.001984	0.246437	0.002317	0.969156	0.040759	-0.999137	-0.007976	0.968301	0.041468	-0.246319
58448	9.525301	-0.058089	-2.419010	0.001412	0.005147	-0.001616	0.246404	0.002312	0.969164	0.040774	-0.999136	-0.007983	0.968309	0.041484	-0.246286
58449	9.504159	-0.076545	-2.399069	-0.004469	-0.003294	-0.002881	0.246455	0.002324	0.969151	0.040734	-0.999138	-0.007963	0.968298	0.041440	-0.246338
58450	9.538899	-0.077450	-2.423154	-0.000493	0.003344	-0.000786	0.246442	0.002312	0.969155	0.040726	-0.999139	-0.007973	0.968301	0.041435	-0.246324
58451	9.491543	-0.050734	-2.418321	0.001905	0.001802	-0.000830	0.246445	0.002301	0.969154	0.040742	-0.999138	-0.007988	0.968300	0.041454	-0.246326
58452	9.518752	-0.090241	-2.426546	-0.001756	0.003227	-0.003138	0.246433	0.002313	0.969157	0.040730	-0.999138	-0.007973	0.968304	0.041439	-0.246314
58453	9.505249	-0.070131	-2.422042	0.000075	0.002515	-0.001984	0.246428	0.002313	0.969158	0.040731	-0.999138	-0.007972	0.968305	0.041440	-0.246310
58454	9.551831	-0.102217	-2.402696	0.000642	0.001685	-0.003181	0.246431	0.002326	0.969158	0.040742	-0.999138	-0.007962	0.968304	0.041448	-0.246313
58455	9.505348	-0.069627	-2.421669	-0.001793	0.001970	-0.002146	0.246431	0.002328	0.969158	0.040726	-0.999139	-0.007956	0.968304	0.041430	-0.246314
58456	9.539220	-0.076181	-2.421933	-0.001263	-0.000117	-0.002351	0.246450	0.002332	0.969153	0.040717	-0.999139	-0.007949	0.968300	0.041420	-0.246333
58457	9.539288	-0.075897	-2.421673	0.002017	0.005575	-0.003805	0.246415	0.002350	0.969162	0.040742	-0.999138	-0.007936	0.968308	0.041441	-0.246298
58458	9.491973	-0.049048	-2.416668	-0.000493	0.003344	-0.000786	0.246402	0.002338	0.969165	0.040734	-0.999138	-0.007946	0.968311	0.041435	-0.246285
58459	9.552130	-0.101091	-2.401555	-0.001830	0.000712	-0.001154	0.246415	0.002331	0.969162	0.040714	-0.999139	-0.007949	0.968309	0.041418	-0.246298
58460	9.505615	-0.068599	-2.420652	0.000605	0.000428	-0.002189	0.246431	0.002334	0.969158	0.040722	-0.999139	-0.007948	0.968304	0.041425	-0.246314
58461	9.539478	-0.075227	-2.420946	-0.001830	0.000712	-0.001154	0.246444	0.002327	0.969154	0.040703	-0.999140	-0.007951	0.968302	0.041407	-0.246326
58462	9.498976	-0.101121	-2.428570	0.002510	0.002231	-0.003019	0.246442	0.002337	0.969155	0.040732	-0.999138	-0.007948	0.968301	0.041434	-0.246325
58463	9.538672	-0.080469	-2.396876	-0.001793	0.001970	-0.002146	0.246442	0.002340	0.969155	0.040716	-0.999139	-0.007941	0.968302	0.041417	-0.246325
58464	9.505743	-0.067747	-2.420171	-0.001263	-0.000117	-0.002351	0.246463	0.002345	0.969149	0.040704	-0.999140	-0.007934	0.968297	0.041403	-0.246346
58465	9.520276	-0.081701	-2.447917	-0.000455	0.004602	-0.001778	0.246438	0.002343	0.969156	0.040699	-0.999140	-0.007934	0.968304	0.041399	-0.246321
58466	9.532141	-0.112653	-2.404389	0.000643	0.001686	-0.003181	0.246440	0.002355	0.969155	0.040710	-0.999140	-0.007924	0.968303	0.041407	-0.246324
58467	9.505920	-0.067137	-2.419493	0.001905	0.001803	-0.000830	0.246442	0.002344	0.969155	0.040726	-0.999139	-0.007939	0.968301	0.041426	-0.246326
58468	9.539841	-0.073797	-2.419558	-0.002323	0.004057	-0.001941	0.246421	0.002344	0.969160	0.040703	-0.999140	-0.007933	0.968308	0.041402	-0.246304
58469	9.506978	-0.061145	-2.442606	0.001943	0.003060	-0.001821	0.246411	0.002342	0.969163	0.040722	-0.999139	-0.007939	0.968310	0.041422	-0.246294
58470	9.539998	-0.073456	-2.418952	0.000075	0.002515	-0.001984	0.246404	0.002343	0.969164	0.040722	-0.999139	-0.007938	0.968311	0.041422	-0.246288
58471	9.519771	-0.086331	-2.422685	-0.001830	0.000712	-0.001154	0.246417	0.002336	0.969161	0.040703	-0.999140	-0.007941	0.968309	0.041404	-0.246300
58472	9.506250	-0.066303	-2.418219	0.001981	0.004318	-0.002813	0.246394	0.002344	0.969167	0.040724	-0.999139	-0.007937	0.968314	0.041424	-0.246277
58473	9.505378	-0.071861	-2.394383	0.000530	-0.002087	-0.000205	0.246434	0.002328	0.969157	0.040725	-0.999139	-0.007955	0.968304	0.041430	-0.246316
58474	9.541044	-0.067266	-2.442120	-0.000493	0.003345	-0.000787	0.246421	0.002316	0.969160	0.040719	-0.999139	-0.007966	0.968307	0.041426	-0.246303
58475	9.540206	-0.072750	-2.418151	0.000643	0.001686	-0.003181	0.246424	0.002329	0.969159	0.040729	-0.999139	-0.007955	0.968306	0.041433	-0.246306
58476	9.507278	-0.060015	-2.441468	-0.001262	-0.000117	-0.002352	0.246447	0.002334	0.969154	0.040719	-0.999139	-0.007948	0.968301	0.041422	-0.246329
58477	9.513314	-0.118194	-2.429965	0.000075	0.002515	-0.001984	0.246442	0.002334	0.969155	0.040721	-0.999139	-0.007948	0.968302	0.041423	-0.246325
58478	9.505561	-0.070920	-2.393683	-0.001792	0.001970	-0.002146	0.246441	0.002336	0.969155	0.040706	-0.999140	-0.007942	0.968302	0.041408	-0.246324
58479	9.514330	-0.112087	-2.453269	0.000075	0.002515	-0.001984	0.246436	0.002337	0.969156	0.040707	-0.999140	-0.007942	0.968304	0.041409	-0.246320
58480	9.539547	-0.077407	-2.393488	-0.001060	0.004174	0.000411	0.246416	0.002313	0.969161	0.040691	-0.999140	-0.007962	0.968310	0.041398	-0.246298
58481	9.520255	-0.084500	-2.420847	0.001817	0.001285	-0.006567	0.246421	0.002359	0.969160	0.040720	-0.999139	-0.007921	0.968307	0.041416	-0.246305
58482	9.526085	-0.056949	-2.388782	-0.000492	0.003345	-0.000787	0.246411	0.002347	0.969163	0.040714	-0.999139	-0.007932	0.968310	0.041413	-0.246294
58483	9.501038	-0.091331	-2.447935	-0.001754	0.003228	-0.003139	0.246398	0.002359	0.969166	0.040700	-0.999140	-0.007916	0.968314	0.041396	-0.246282
58484	9.540704	-0.070633	-2.416248	0.000606	0.000428	-0.002189	0.246416	0.002362	0.969161	0.040709	-0.999140	-0.007915	0.968309	0.041404	-0.246300
58485	9.519568	-0.089263	-2.396292	-0.000530	0.002087	0.000205	0.246416	0.002341	0.969161	0.040699	-0.999140	-0.007935	0.968309	0.041399	-0.246300
58486	9.520514	-0.083548	-2.419862	0.000038	0.001258	-0.000992	0.246378	0.002456	0.969171	0.040950	-0.999130	-0.007878	0.968308	0.041628	-0.246264
58487	9.519662	-0.089110	-2.395927	0.001943	0.003061	-0.001821	0.246367	0.002455	0.969173	0.040969	-0.999129	-0.007884	0.968310	0.041649	-0.246253
58488	9.534180	-0.103131	-2.423798	-0.001299	-0.001375	-0.001360	0.246402	0.002451	0.969165	0.040957	-0.999130	-0.007887	0.968302	0.041638	-0.246288
58489	9.520655	-0.083118	-2.419321	0.005754	0.006668	-0.003480	0.246356	0.002464	0.969176	0.041018	-0.999127	-0.007886	0.968311	0.041696	-0.246242
58490	9.500518	-0.096032	-2.422737	-0.000492	0.003345	-0.000787	0.246344	0.002453	0.969179	0.041010	-0.999128	-0.007895	0.968314	0.041691	-0.246229
58491	9.500599	-0.095818	-2.422426	-0.001754	0.003228	-0.003139	0.246331	0.002464	0.969183	0.040997	-0.999128	-0.007879	0.968318	0.041674	-0.246218
58492	9.500633	-0.095617	-2.422300	-0.001868	-0.000546	-0.000163	0.246355	0.002448	0.969177	0.040975	-0.999129	-0.007892	0.968313	0.041656	-0.246241
58493	9.541168	-0.069334	-2.414455	0.000644	0.001686	-0.003181	0.246358	0.002461	0.969176	0.040985	-0.999129	-0.007881	0.968312	0.041663	-0.246244
58494	9.520043	-0.087901	-2.394455	0.001906	0.001804	-0.000829	0.246359	0.002450	0.969176	0.040999	-0.999128	-0.007896	0.968311	0.041680	-0.246245
58495	9.500737	-0.095125	-2.421912	0.000644	0.001686	-0.003181	0.246362	0.002463	0.969175	0.041009	-0.999128	-0.007885	0.968310	0.041687	-0.246248
58496	9.521071	-0.081815	-2.417729	0.001982	0.004319	-0.002813	0.246339	0.002471	0.969181	0.041032	-0.999127	-0.007882	0.968315	0.041709	-0.246225
58497	9.521130	-0.081608	-2.417502	0.000606	0.000429	-0.002189	0.246354	0.002474	0.969177	0.041039	-0.999126	-0.007881	0.968311	0.041715	-0.246240
58498	9.521177	-0.081468	-2.417322	-0.000492	0.003345	-0.000787	0.246341	0.002462	0.969180	0.041034	-0.999127	-0.007892	0.968314	0.041713	-0.246227
58499	9.500988	-0.094378	-2.420956	-0.004228	0.002253	-0.001113	0.246339	0.002454	0.969181	0.040992	-0.999128	-0.007889	0.968316	0.041672	-0.246225
58500	9.522200	-0.075498	-2.440621	0.000038	0.001258	-0.000992	0.246347	0.002445	0.969179	0.040991	-0.999128	-0.007899	0.968314	0.041673	-0.246233
58501	9.506852	-0.066871	-2.388667	-0.000454	0.004603	-0.001779	0.246322	0.002442	0.969185	0.040987	-0.999128	-0.007899	0.968321	0.041669	-0.246207
58502	9.507861	-0.061066	-2.412018	-0.000492	0.003345	-0.000787	0.246309	0.002430	0.969188	0.040980	-0.999129	-0.007909	0.968325	0.041665	-0.246194
58503	9.522433	-0.075040	-2.439725	0.000645	0.001687	-0.003181	0.246311	0.002443	0.969188	0.040990	-0.999128	-0.007898	0.968324	0.041672	-0.246197
58504	9.488585	-0.068042	-2.439393	-0.001299	-0.001375	-0.001360	0.246344	0.002439	0.969179	0.040976	-0.999129	-0.007901	0.968316	0.041659	-0.246229
58505	9.542716	-0.061613	-2.435728	0.001944	0.003062	-0.001821	0.246334	0.002438	0.969182	0.040995	-0.999128	-0.007907	0.968318	0.041680	-0.246219
58506	9.522521	-0.074466	-2.439402	0.000645	0.001687	-0.003181	0.246338	0.002451	0.969181	0.041007	-0.999128	-0.007897	0.968316	0.041688	-0.246224
58507	9.570952	-0.095083	-2.467428	-0.001753	0.003228	-0.003139	0.246326	0.002462	0.969184	0.040994	-0.999128	-0.007880	0.968320	0.041672	-0.246212
58508	9.486952	-0.078487	-2.391198	0.002474	0.000975	-0.002026	0.246334	0.002464	0.969182	0.041018	-0.999127	-0.007886	0.968317	0.041696	-0.246220
58509	9.535354	-0.099324	-2.419336	-0.002398	0.001541	0.000042	0.246339	0.002444	0.969181	0.040990	-0.999128	-0.007899	0.968317	0.041673	-0.246224
58510	9.542022	-0.066385	-2.411157	0.002436	-0.000283	-0.001034	0.246362	0.002437	0.969175	0.041013	-0.999127	-0.007914	0.968310	0.041698	-0.246247
58511	9.522705	-0.073630	-2.438708	-0.001791	0.001970	-0.002147	0.246362	0.002439	0.969175	0.040997	-0.999128	-0.007907	0.968310	0.041681	-0.246247
58512	9.534530	-0.104567	-2.395266	0.002513	0.002233	-0.003018	0.246359	0.002450	0.969175	0.041025	-0.999127	-0.007903	0.968310	0.041707	-0.246245
58513	9.515227	-0.111748	-2.422770	0.000607	0.000429	-0.002189	0.246375	0.002453	0.969172	0.041032	-0.999127	-0.007902	0.968306	0.041714	-0.246260
58514	9.543129	-0.059798	-2.434157	-0.006549	0.006309	-0.003056	0.246333	0.002463	0.969182	0.040973	-0.999129	-0.007875	0.968319	0.041650	-0.246220
58515	9.488236	-0.071559	-2.413514	0.003243	0.004437	-0.000461	0.246310	0.002447	0.969188	0.041001	-0.999128	-0.007897	0.968323	0.041683	-0.246196
58516	9.542396	-0.065152	-2.409710	-0.001260	-0.000117	-0.002352	0.246334	0.002452	0.969182	0.040994	-0.999128	-0.007891	0.968318	0.041674	-0.246220
58517	9.522169	-0.078092	-2.413523	-0.000530	0.002087	0.000205	0.246334	0.002431	0.969182	0.040984	-0.999128	-0.007911	0.968318	0.041670	-0.246219
58518	9.522219	-0.077972	-2.413331	-0.001791	0.001970	-0.002148	0.246335	0.002433	0.969182	0.040969	-0.999129	-0.007904	0.968318	0.041653	-0.246221
58519	9.535858	-0.097600	-2.417419	-0.001829	0.000712	-0.001155	0.246348	0.002426	0.969178	0.040950	-0.999130	-0.007907	0.968316	0.041636	-0.246233
58520	9.508716	-0.057785	-2.408724	0.003850	0.004866	-0.002650	0.246320	0.002432	0.969185	0.040990	-0.999128	-0.007910	0.968321	0.041676	-0.246205
58521	9.535968	-0.097272	-2.416999	-0.005602	-0.001639	-0.000490	0.246356	0.002420	0.969176	0.040933	-0.999131	-0.007910	0.968315	0.041620	-0.246241
58522	9.523283	-0.071535	-2.436513	0.000646	0.001687	-0.003181	0.246360	0.002432	0.969175	0.040945	-0.999130	-0.007901	0.968313	0.041630	-0.246245
58523	9.536952	-0.091176	-2.440487	-0.000492	0.003345	-0.000787	0.246347	0.002420	0.969179	0.040938	-0.999130	-0.007910	0.968317	0.041625	-0.246232
58524	9.503140	-0.084254	-2.440015	0.003044	0.000146	-0.003223	0.246365	0.002434	0.969174	0.040971	-0.999129	-0.007905	0.968311	0.041656	-0.246250
58525	9.542746	-0.063554	-2.408367	-0.001791	0.001970	-0.002148	0.246365	0.002437	0.969174	0.040955	-0.999130	-0.007899	0.968311	0.041639	-0.246250
58526	9.514970	-0.114988	-2.396546	-0.001829	0.000712	-0.001156	0.246377	0.002429	0.969171	0.040937	-0.999130	-0.007902	0.968309	0.041622	-0.246263
58527	9.523488	-0.070556	-2.435738	0.002513	0.002233	-0.003018	0.246375	0.002440	0.969172	0.040965	-0.999129	-0.007898	0.968308	0.041648	-0.246260
58528	9.509955	-0.050603	-2.431232	0.001375	0.003892	-0.000624	0.246356	0.002427	0.969176	0.040976	-0.999129	-0.007914	0.968313	0.041663	-0.246240
58529	9.536293	-0.095886	-2.415770	-0.001867	-0.000546	-0.000164	0.246381	0.002410	0.969170	0.040954	-0.999130	-0.007927	0.968307	0.041645	-0.246265
58530	9.523621	-0.070339	-2.435226	0.001906	0.001804	-0.000829	0.246382	0.002399	0.969170	0.040972	-0.999129	-0.007943	0.968306	0.041666	-0.246265
58531	9.503385	-0.083214	-2.439095	-0.000691	-0.000946	-0.003550	0.246410	0.002416	0.969163	0.040970	-0.999129	-0.007926	0.968299	0.041660	-0.246294
58532	9.509131	-0.055772	-2.407131	-0.000492	0.003345	-0.000787	0.246398	0.002405	0.969166	0.040962	-0.999129	-0.007935	0.968303	0.041654	-0.246282
58533	9.556671	-0.082218	-2.411363	0.000077	0.002516	-0.001984	0.246393	0.002405	0.969167	0.040964	-0.999129	-0.007935	0.968304	0.041656	-0.246277
58534	9.503562	-0.082720	-2.438425	-0.000492	0.003345	-0.000787	0.246380	0.002393	0.969170	0.040957	-0.999129	-0.007945	0.968307	0.041652	-0.246264
58535	9.508403	-0.061062	-2.382640	0.002475	0.000976	-0.002025	0.246390	0.002395	0.969168	0.040982	-0.999128	-0.007950	0.968304	0.041678	-0.246274
58536	9.537556	-0.089270	-2.438196	0.003282	0.005696	-0.001452	0.246352	0.002389	0.969177	0.041012	-0.999127	-0.007962	0.968312	0.041709	-0.246235
58537	9.509452	-0.055260	-2.405876	0.000531	-0.002087	-0.000205	0.246393	0.002373	0.969167	0.041013	-0.999127	-0.007980	0.968302	0.041715	-0.246275
58538	9.536660	-0.094575	-2.414373	-0.004348	0.000477	-0.005861	0.246404	0.002413	0.969164	0.040983	-0.999128	-0.007932	0.968300	0.041674	-0.246289
58539	9.490131	-0.062169	-2.433529	0.000690	0.000946	0.003550	0.246417	0.002359	0.969161	0.040977	-0.999128	-0.007987	0.968297	0.041681	-0.246299
58540	9.524037	-0.068910	-2.433639	0.000685	0.002945	-0.004173	0.246406	0.002381	0.969164	0.040991	-0.999128	-0.007968	0.968300	0.041690	-0.246288
58541	9.537719	-0.088450	-2.437587	0.000077	0.002516	-0.001984	0.246401	0.002381	0.969165	0.040993	-0.999128	-0.007967	0.968301	0.041692	-0.246283
58542	9.523208	-0.074058	-2.409550	0.001177	-0.000400	-0.003386	0.246424	0.002397	0.969159	0.041007	-0.999127	-0.007955	0.968294	0.041703	-0.246308
58543	9.517516	-0.101088	-2.441359	0.000039	0.001258	-0.000992	0.246432	0.002388	0.969157	0.041006	-0.999127	-0.007965	0.968292	0.041704	-0.246315
58544	9.524192	-0.068051	-2.433056	0.000077	0.002516	-0.001984	0.246427	0.002389	0.969158	0.041005	-0.999127	-0.007963	0.968293	0.041703	-0.246310
58545	9.490389	-0.061211	-2.432545	-0.000531	0.002087	0.000205	0.246427	0.002368	0.969158	0.040995	-0.999127	-0.007983	0.968294	0.041698	-0.246309
58546	9.558123	-0.074536	-2.433075	-0.000690	-0.000946	-0.003550	0.246455	0.002385	0.969151	0.040993	-0.999128	-0.007965	0.968287	0.041692	-0.246338
58547	9.524307	-0.067627	-2.432616	0.003243	0.004439	-0.000460	0.246432	0.002370	0.969157	0.041021	-0.999126	-0.007988	0.968291	0.041725	-0.246314
58548	9.538025	-0.087327	-2.436430	0.000116	0.003774	-0.002977	0.246416	0.002380	0.969161	0.041025	-0.999126	-0.007977	0.968296	0.041726	-0.246298
58549	9.504222	-0.080362	-2.435928	-0.001829	0.000711	-0.001156	0.246428	0.002373	0.969158	0.041006	-0.999127	-0.007980	0.968293	0.041708	-0.246311
58550	9.523577	-0.072916	-2.408124	0.001337	0.002634	0.000368	0.246422	0.002350	0.969160	0.041015	-0.999126	-0.008006	0.968294	0.041723	-0.246303
58551	9.523633	-0.072825	-2.407905	-0.001790	0.001970	-0.002148	0.246422	0.002352	0.969160	0.040998	-0.999127	-0.008000	0.968295	0.041705	-0.246303
58552	9.538211	-0.086754	-2.435725	0.000608	0.000429	-0.002189	0.246438	0.002356	0.969156	0.041005	-0.999127	-0.007998	0.968291	0.041711	-0.246319
58553	9.538223	-0.086560	-2.435683	0.000608	0.000429	-0.002189	0.246453	0.002359	0.969152	0.041012	-0.999127	-0.007997	0.968287	0.041718	-0.246334
58554	9.525580	-0.060925	-2.455025	-0.000492	0.003345	-0.000788	0.246439	0.002347	0.969155	0.041006	-0.999127	-0.008008	0.968290	0.041714	-0.246320
58555	9.537422	-0.091877	-2.411463	-0.001751	0.003228	-0.003141	0.246427	0.002359	0.969158	0.040992	-0.999127	-0.007991	0.968294	0.041698	-0.246309
58556	9.518178	-0.098986	-2.438865	-0.001790	0.001970	-0.002148	0.246426	0.002361	0.969159	0.040978	-0.999128	-0.007986	0.968295	0.041682	-0.246308
58557	9.503664	-0.084649	-2.410792	0.002476	0.000976	-0.002025	0.246436	0.002362	0.969156	0.041003	-0.999127	-0.007991	0.968291	0.041708	-0.246318
58558	9.524887	-0.065661	-2.430398	-0.001751	0.003228	-0.003141	0.246425	0.002374	0.969159	0.040993	-0.999128	-0.007976	0.968295	0.041694	-0.246307
58559	9.510415	-0.051301	-2.402154	-0.000492	0.003345	-0.000788	0.246412	0.002362	0.969162	0.040986	-0.999128	-0.007986	0.968298	0.041690	-0.246294
58560	9.524122	-0.071044	-2.406026	0.003813	0.003610	-0.001657	0.246398	0.002358	0.969166	0.041024	-0.999126	-0.007998	0.968300	0.041730	-0.246279
58561	9.537794	-0.090733	-2.410035	0.000609	0.000429	-0.002189	0.246413	0.002362	0.969162	0.041031	-0.999126	-0.007997	0.968296	0.041736	-0.246294
58562	9.510562	-0.050667	-2.401587	-0.004346	0.000476	-0.005863	0.246426	0.002402	0.969159	0.040999	-0.999128	-0.007949	0.968294	0.041693	-0.246310
58563	9.539737	-0.078643	-2.457214	0.003243	0.004439	-0.000460	0.246403	0.002386	0.969164	0.041027	-0.999126	-0.007971	0.968299	0.041726	-0.246286
58564	9.509747	-0.055819	-2.377400	-0.000650	0.000312	-0.004542	0.246417	0.002414	0.969161	0.041025	-0.999127	-0.007943	0.968295	0.041717	-0.246301
58565	9.518658	-0.096969	-2.437069	-0.000531	0.002087	0.000204	0.246417	0.002392	0.969161	0.041015	-0.999127	-0.007962	0.968296	0.041713	-0.246300
58566	9.504130	-0.082732	-2.409020	0.000609	0.000429	-0.002189	0.246434	0.002396	0.969157	0.041025	-0.999126	-0.007962	0.968291	0.041722	-0.246317
58567	9.525322	-0.063833	-2.428743	0.000039	0.001258	-0.000992	0.246442	0.002387	0.969155	0.041024	-0.999126	-0.007971	0.968289	0.041723	-0.246325
58568	9.539894	-0.077655	-2.456636	-0.000080	-0.000517	-0.005739	0.246464	0.002426	0.969149	0.041034	-0.999126	-0.007935	0.968283	0.041723	-0.246348
58569	9.524415	-0.069002	-2.404924	0.005602	0.001642	0.000492	0.246468	0.002402	0.969148	0.041083	-0.999124	-0.007972	0.968280	0.041780	-0.246351
58570	9.532429	-0.116094	-2.440738	-0.000492	0.003345	-0.000788	0.246456	0.002390	0.969151	0.041078	-0.999124	-0.007982	0.968283	0.041778	-0.246338
58571	9.524555	-0.068708	-2.404379	-0.003008	0.003110	-0.005495	0.246443	0.002425	0.969154	0.041058	-0.999125	-0.007940	0.968287	0.041748	-0.246327
58572	9.505323	-0.075717	-2.431780	-0.004226	0.002251	-0.001116	0.246442	0.002417	0.969154	0.041018	-0.999127	-0.007939	0.968289	0.041709	-0.246326
58573	9.539220	-0.082246	-2.431928	0.000609	0.000430	-0.002189	0.246457	0.002420	0.969151	0.041025	-0.999127	-0.007938	0.968285	0.041716	-0.246341
58574	9.512013	-0.042379	-2.423326	0.000117	0.003775	-0.002977	0.246440	0.002430	0.969155	0.041029	-0.999127	-0.007928	0.968289	0.041717	-0.246325
58575	9.533679	-0.108971	-2.463309	-0.001789	0.001969	-0.002149	0.246441	0.002432	0.969155	0.041013	-0.999127	-0.007921	0.968290	0.041700	-0.246325
58576	9.524820	-0.067325	-2.403366	-0.003656	0.001422	-0.002313	0.246446	0.002437	0.969153	0.040980	-0.999129	-0.007909	0.968290	0.041665	-0.246332
58577	9.538525	-0.086895	-2.407281	-0.000453	0.004604	-0.001780	0.246421	0.002434	0.969160	0.040976	-0.999129	-0.007909	0.968296	0.041661	-0.246306
58578	9.505658	-0.074159	-2.430516	0.001789	0.000031	-0.005575	0.246440	0.002472	0.969155	0.041003	-0.999128	-0.007878	0.968290	0.041680	-0.246326
58579	9.519284	-0.093806	-2.434747	0.001828	-0.000711	0.001157	0.246467	0.002442	0.969148	0.041014	-0.999127	-0.007913	0.968283	0.041699	-0.246352
58580	9.524977	-0.066614	-2.402765	-0.000492	0.003345	-0.000788	0.246455	0.002430	0.969151	0.041007	-0.999127	-0.007923	0.968286	0.041695	-0.246340
58581	9.539604	-0.080662	-2.430472	0.000039	0.001258	-0.000992	0.246463	0.002422	0.969149	0.041006	-0.999127	-0.007932	0.968284	0.041696	-0.246347
58582	9.505789	-0.073689	-2.430017	-0.003617	0.002680	-0.003306	0.246456	0.002435	0.969151	0.040973	-0.999129	-0.007909	0.968287	0.041658	-0.246341
58583	9.518587	-0.098819	-2.410097	0.002024	0.005581	-0.003805	0.246421	0.002453	0.969160	0.040998	-0.999128	-0.007896	0.968295	0.041679	-0.246306
58584	9.506015	-0.073066	-2.429153	0.001985	0.004323	-0.002813	0.246399	0.002461	0.969165	0.041018	-0.999127	-0.007891	0.968300	0.041698	-0.246285
58585	9.526284	-0.059669	-2.425072	0.001750	-0.001227	-0.004582	0.246429	0.002489	0.969158	0.041042	-0.999126	-0.007870	0.968291	0.041716	-0.246316
58586	9.519720	-0.092331	-2.433100	-0.000492	0.003346	-0.000788	0.246415	0.002478	0.969161	0.041034	-0.999127	-0.007879	0.968295	0.041710	-0.246302
58587	9.527353	-0.053640	-2.448306	-0.002890	0.004885	-0.000748	0.246388	0.002465	0.969168	0.041004	-0.999128	-0.007883	0.968304	0.041682	-0.246274
58588	9.518944	-0.097724	-2.408731	0.000610	0.000430	-0.002189	0.246404	0.002468	0.969164	0.041009	-0.999128	-0.007882	0.968299	0.041687	-0.246290
58589	9.505328	-0.077770	-2.404454	0.000039	0.001259	-0.000992	0.246411	0.002460	0.969162	0.041008	-0.999128	-0.007891	0.968297	0.041688	-0.246297
58590	9.507244	-0.066200	-2.451794	-0.001218	0.001141	-0.003346	0.246417	0.002474	0.969161	0.041003	-0.999128	-0.007875	0.968296	0.041679	-0.246304
58591	9.525623	-0.064267	-2.400265	0.001907	0.001806	-0.000828	0.246420	0.002463	0.969160	0.041019	-0.999127	-0.007890	0.968295	0.041698	-0.246306
58592	9.500738	-0.098881	-2.459611	0.001907	0.001806	-0.000828	0.246422	0.002452	0.969160	0.041034	-0.999126	-0.007905	0.968294	0.041717	-0.246307
58593	9.552974	-0.103739	-2.408375	0.000610	0.000430	-0.002189	0.246437	0.002456	0.969156	0.041041	-0.999126	-0.007904	0.968289	0.041723	-0.246322
58594	9.513985	-0.032440	-2.443081	-0.004263	0.002992	-0.007849	0.246424	0.002515	0.969159	0.041012	-0.999128	-0.007835	0.968294	0.041678	-0.246312
58595	9.520197	-0.090458	-2.431302	-0.001633	0.005003	0.001605	0.246397	0.002479	0.969166	0.040988	-0.999129	-0.007865	0.968302	0.041662	-0.246283
58596	9.520254	-0.090368	-2.431084	0.001181	-0.000398	-0.003386	0.246421	0.002495	0.969160	0.041002	-0.999128	-0.007853	0.968295	0.041673	-0.246308
58597	9.539590	-0.082730	-2.403206	-0.002890	0.004885	-0.000749	0.246393	0.002482	0.969167	0.040972	-0.999129	-0.007858	0.968304	0.041645	-0.246280
58598	9.507705	-0.064502	-2.450051	0.000079	0.002517	-0.001985	0.246389	0.002482	0.969168	0.040978	-0.999129	-0.007859	0.968304	0.041651	-0.246277
58599	9.538789	-0.088024	-2.378915	-0.001788	0.001969	-0.002150	0.246390	0.002484	0.969168	0.040962	-0.999130	-0.007853	0.968305	0.041634	-0.246277
58600	9.505899	-0.075417	-2.402273	0.000610	0.000430	-0.002189	0.246405	0.002487	0.969164	0.040971	-0.999129	-0.007852	0.968301	0.041642	-0.246292
58601	9.535143	-0.103618	-2.457867	0.000805	0.004722	0.000573	0.246380	0.002461	0.969170	0.040973	-0.999129	-0.007879	0.968307	0.041651	-0.246266
58602	9.506039	-0.075123	-2.401728	-0.000607	0.001571	-0.005535	0.246383	0.002498	0.969169	0.040978	-0.999129	-0.007843	0.968306	0.041647	-0.246271
58603	9.541845	-0.070193	-2.449271	0.001907	0.001807	-0.000828	0.246385	0.002487	0.969169	0.040995	-0.999128	-0.007858	0.968305	0.041667	-0.246272
58604	9.507061	-0.069067	-2.425173	-0.001827	0.000711	-0.001157	0.246398	0.002480	0.969166	0.040977	-0.999129	-0.007862	0.968302	0.041650	-0.246285
58605	9.540944	-0.075601	-2.425371	0.000610	0.000430	-0.002189	0.246413	0.002483	0.969162	0.040984	-0.999129	-0.007861	0.968298	0.041657	-0.246300
58606	9.506174	-0.074430	-2.401214	-0.000491	0.003346	-0.000788	0.246402	0.002472	0.969164	0.040976	-0.999129	-0.007870	0.968301	0.041652	-0.246289
58607	9.520809	-0.088388	-2.428980	-0.001257	-0.000118	-0.002354	0.246423	0.002477	0.969159	0.040966	-0.999130	-0.007863	0.968296	0.041640	-0.246310
58608	9.540113	-0.080744	-2.401197	0.000079	0.002517	-0.001985	0.246420	0.002477	0.969160	0.040970	-0.999129	-0.007863	0.968297	0.041644	-0.246307
58609	9.507249	-0.068145	-2.424461	-0.001788	0.001969	-0.002150	0.246420	0.002479	0.969160	0.040954	-0.999130	-0.007857	0.968297	0.041627	-0.246307
58610	9.555762	-0.088837	-2.452448	0.001907	0.001807	-0.000827	0.246424	0.002469	0.969159	0.040971	-0.999129	-0.007872	0.968296	0.041647	-0.246310
58611	9.486219	-0.086502	-2.404141	-0.001668	0.005746	-0.005127	0.246386	0.002499	0.969169	0.040963	-0.999130	-0.007837	0.968306	0.041631	-0.246274
58612	9.486328	-0.086176	-2.403723	0.001947	0.003065	-0.001820	0.246377	0.002498	0.969171	0.040984	-0.999129	-0.007843	0.968307	0.041653	-0.246265
58613	9.540492	-0.079650	-2.399729	0.001947	0.003066	-0.001820	0.246366	0.002497	0.969174	0.041003	-0.999128	-0.007849	0.968309	0.041673	-0.246254
58614	9.507637	-0.067085	-2.422971	-0.001787	0.001969	-0.002150	0.246369	0.002499	0.969173	0.040987	-0.999129	-0.007843	0.968309	0.041656	-0.246257
58615	9.521343	-0.086671	-2.426948	0.000080	0.002517	-0.001985	0.246364	0.002500	0.969174	0.040989	-0.999129	-0.007842	0.968310	0.041657	-0.246252
58616	9.506783	-0.072385	-2.398865	0.002478	0.000978	-0.002024	0.246373	0.002501	0.969172	0.041013	-0.999128	-0.007847	0.968307	0.041682	-0.246261
58617	9.536030	-0.100574	-2.454549	-0.000531	0.002087	0.000204	0.246373	0.002480	0.969172	0.041003	-0.999128	-0.007867	0.968307	0.041677	-0.246260
58618	9.486617	-0.085251	-2.402613	-0.000685	-0.000946	-0.003551	0.246401	0.002497	0.969165	0.041001	-0.999128	-0.007850	0.968300	0.041671	-0.246288
58619	9.535092	-0.105821	-2.430781	-0.001827	0.000711	-0.001158	0.246413	0.002490	0.969162	0.040982	-0.999129	-0.007853	0.968298	0.041654	-0.246301
58620	9.507824	-0.066027	-2.422263	0.002518	0.002237	-0.003016	0.246410	0.002502	0.969162	0.041008	-0.999128	-0.007847	0.968298	0.041677	-0.246298
58621	9.541729	-0.072514	-2.422376	0.000611	0.000430	-0.002189	0.246425	0.002505	0.969159	0.041015	-0.999128	-0.007846	0.968294	0.041683	-0.246313
58622	9.520580	-0.091151	-2.402517	0.000040	0.001259	-0.000993	0.246432	0.002496	0.969157	0.041013	-0.999128	-0.007856	0.968292	0.041684	-0.246319
58623	9.541806	-0.072152	-2.422081	-0.001747	0.003228	-0.003143	0.246420	0.002508	0.969160	0.041000	-0.999128	-0.007839	0.968296	0.041668	-0.246308
58624	9.536294	-0.099101	-2.453583	0.001987	0.004325	-0.002812	0.246399	0.002516	0.969165	0.041023	-0.999127	-0.007836	0.968300	0.041689	-0.246287
58625	9.529246	-0.046126	-2.441085	-0.003123	-0.000666	-0.002520	0.246424	0.002523	0.969159	0.040995	-0.999129	-0.007823	0.968295	0.041658	-0.246313
58626	9.521733	-0.084602	-2.425490	-0.000571	0.000828	0.001197	0.246438	0.002492	0.969155	0.040982	-0.999129	-0.007851	0.968292	0.041653	-0.246325
58627	9.521783	-0.084481	-2.425298	-0.001747	0.003228	-0.003143	0.246425	0.002504	0.969159	0.040969	-0.999130	-0.007835	0.968295	0.041636	-0.246313
58628	9.508173	-0.064414	-2.420937	0.000611	0.000431	-0.002189	0.246441	0.002507	0.969155	0.040978	-0.999129	-0.007835	0.968291	0.041645	-0.246329
58629	9.522830	-0.078377	-2.448682	0.001947	0.003066	-0.001820	0.246431	0.002506	0.969157	0.040997	-0.999128	-0.007841	0.968293	0.041665	-0.246319
58630	9.521940	-0.083877	-2.424702	0.002518	0.002238	-0.003016	0.246428	0.002517	0.969158	0.041025	-0.999127	-0.007837	0.968292	0.041691	-0.246317
58631	9.521984	-0.083718	-2.424535	0.000040	0.001259	-0.000993	0.246436	0.002508	0.969156	0.041024	-0.999127	-0.007846	0.968290	0.041692	-0.246324
58632	9.527604	-0.056342	-2.392591	0.000611	0.000431	-0.002189	0.246451	0.002511	0.969152	0.041034	-0.999127	-0.007846	0.968286	0.041702	-0.246339
58633	9.522006	-0.083447	-2.424460	-0.001867	-0.000548	-0.000165	0.246477	0.002494	0.969146	0.041012	-0.999128	-0.007859	0.968281	0.041684	-0.246364
58634	9.536656	-0.097494	-2.452239	-0.000491	0.003346	-0.000789	0.246466	0.002483	0.969148	0.041005	-0.999128	-0.007868	0.968284	0.041679	-0.246353
58635	9.508443	-0.063388	-2.419903	0.000652	0.001689	-0.003182	0.246468	0.002496	0.969148	0.041015	-0.999128	-0.007858	0.968283	0.041686	-0.246356
58636	9.507541	-0.068847	-2.395965	-0.002358	0.002798	-0.000954	0.246461	0.002486	0.969150	0.040990	-0.999129	-0.007861	0.968285	0.041663	-0.246348
58637	9.521266	-0.088478	-2.399898	0.000080	0.002518	-0.001985	0.246456	0.002486	0.969151	0.040992	-0.999129	-0.007861	0.968287	0.041665	-0.246343
58638	9.508611	-0.062863	-2.419259	0.000040	0.001259	-0.000993	0.246464	0.002477	0.969149	0.040992	-0.999128	-0.007871	0.968285	0.041667	-0.246351
58639	9.502100	-0.095601	-2.427245	-0.001787	0.001969	-0.002151	0.246464	0.002480	0.969149	0.040976	-0.999129	-0.007864	0.968285	0.041650	-0.246351
58640	9.556241	-0.088956	-2.423307	0.000080	0.002518	-0.001985	0.246460	0.002481	0.969150	0.040976	-0.999129	-0.007863	0.968286	0.041650	-0.246347
58641	9.488551	-0.075370	-2.422636	-0.001787	0.001969	-0.002151	0.246460	0.002483	0.969150	0.040960	-0.999130	-0.007857	0.968287	0.041633	-0.246348
58642	9.536102	-0.101676	-2.426995	0.000572	-0.000828	-0.001196	0.246487	0.002477	0.969143	0.040965	-0.999130	-0.007865	0.968280	0.041639	-0.246374
58643	9.509781	-0.056247	-2.442184	0.001987	0.004325	-0.002812	0.246465	0.002485	0.969149	0.040987	-0.999129	-0.007862	0.968285	0.041660	-0.246352
58644	9.542771	-0.068373	-2.418386	-0.001786	0.001969	-0.002151	0.246464	0.002487	0.969149	0.040970	-0.999130	-0.007855	0.968285	0.041642	-0.246352
58645	9.528195	-0.054135	-2.390285	-0.000531	0.002087	0.000204	0.246464	0.002466	0.969149	0.040960	-0.999130	-0.007874	0.968286	0.041637	-0.246351
58646	9.502484	-0.094392	-2.425791	-0.000451	0.004605	-0.001781	0.246439	0.002464	0.969155	0.040957	-0.999130	-0.007875	0.968292	0.041634	-0.246326
58647	9.523744	-0.075417	-2.445219	0.000081	0.002518	-0.001985	0.246434	0.002464	0.969156	0.040958	-0.999130	-0.007875	0.968294	0.041636	-0.246321
58648	9.488951	-0.074128	-2.421109	0.001224	0.000862	-0.004378	0.246445	0.002489	0.969154	0.040978	-0.999129	-0.007854	0.968290	0.041650	-0.246332
58649	9.522862	-0.080744	-2.421186	0.000723	0.002205	0.002558	0.246445	0.002444	0.969154	0.040975	-0.999129	-0.007900	0.968290	0.041658	-0.246330
58650	9.508261	-0.066642	-2.393165	0.003051	0.000151	-0.003220	0.246463	0.002458	0.969149	0.041006	-0.999128	-0.007894	0.968284	0.041687	-0.246349
58651	9.522935	-0.080599	-2.420904	-0.000491	0.003346	-0.000789	0.246451	0.002446	0.969152	0.041000	-0.999128	-0.007904	0.968288	0.041683	-0.246336
58652	9.544170	-0.061746	-2.440424	0.001907	0.001808	-0.000827	0.246453	0.002435	0.969152	0.041018	-0.999127	-0.007920	0.968286	0.041705	-0.246337
58653	9.508428	-0.066235	-2.392513	-0.001746	0.003228	-0.003144	0.246440	0.002447	0.969155	0.041005	-0.999128	-0.007904	0.968290	0.041688	-0.246326
58654	9.508508	-0.066021	-2.392201	-0.000491	0.003346	-0.000789	0.246425	0.002436	0.969159	0.040994	-0.999128	-0.007912	0.968294	0.041680	-0.246310
58655	9.523211	-0.079981	-2.419840	0.002520	0.002239	-0.003016	0.246423	0.002447	0.969159	0.041022	-0.999127	-0.007908	0.968294	0.041705	-0.246308
58656	9.524205	-0.074064	-2.443463	-0.001255	-0.000118	-0.002355	0.246444	0.002452	0.969154	0.041012	-0.999127	-0.007901	0.968289	0.041694	-0.246330
58657	9.524261	-0.073846	-2.443250	-0.000451	0.004605	-0.001782	0.246419	0.002449	0.969160	0.041008	-0.999128	-0.007901	0.968295	0.041690	-0.246304
58658	9.489498	-0.072742	-2.419004	0.001907	0.001808	-0.000827	0.246421	0.002438	0.969160	0.041025	-0.999127	-0.007917	0.968294	0.041711	-0.246306
58659	9.544577	-0.060528	-2.438861	-0.001826	0.000710	-0.001159	0.246434	0.002431	0.969157	0.041006	-0.999128	-0.007920	0.968292	0.041693	-0.246319
58660	9.537112	-0.098924	-2.423136	0.002520	0.002239	-0.003016	0.246430	0.002442	0.969157	0.041033	-0.999126	-0.007916	0.968292	0.041718	-0.246315
58661	9.510799	-0.053458	-2.438279	0.000081	0.002518	-0.001985	0.246425	0.002443	0.969159	0.041034	-0.999126	-0.007915	0.968293	0.041719	-0.246310
58662	9.517008	-0.111666	-2.426720	-0.001826	0.000710	-0.001159	0.246438	0.002436	0.969155	0.041014	-0.999127	-0.007918	0.968290	0.041700	-0.246323
58663	9.524561	-0.072957	-2.442111	-0.000491	0.003346	-0.000789	0.246426	0.002424	0.969159	0.041007	-0.999127	-0.007927	0.968294	0.041696	-0.246310
58664	9.502468	-0.097311	-2.398434	-0.001826	0.000710	-0.001159	0.246439	0.002417	0.969155	0.040988	-0.999128	-0.007931	0.968291	0.041679	-0.246323
58665	9.543860	-0.065219	-2.414174	0.000613	0.000431	-0.002189	0.246454	0.002421	0.969151	0.040996	-0.999128	-0.007930	0.968287	0.041685	-0.246339
58666	9.511001	-0.052731	-2.437508	-0.000491	0.003346	-0.000789	0.246441	0.002409	0.969155	0.040987	-0.999128	-0.007939	0.968291	0.041679	-0.246325
58667	9.489939	-0.071222	-2.417318	-0.001664	0.005747	-0.005130	0.246403	0.002440	0.969164	0.040979	-0.999129	-0.007904	0.968301	0.041663	-0.246289
58668	9.523893	-0.077530	-2.417234	0.000613	0.000431	-0.002189	0.246420	0.002443	0.969160	0.040986	-0.999128	-0.007902	0.968296	0.041669	-0.246305
58669	9.524893	-0.071867	-2.440845	0.003162	0.001926	0.001528	0.246422	0.002409	0.969160	0.041009	-0.999127	-0.007944	0.968295	0.041701	-0.246305
58670	9.544164	-0.064379	-2.412993	-0.003652	0.001420	-0.002318	0.246426	0.002413	0.969159	0.040973	-0.999129	-0.007930	0.968295	0.041664	-0.246310
58671	9.504792	-0.084619	-2.444435	-0.001745	0.003228	-0.003144	0.246413	0.002425	0.969162	0.040960	-0.999129	-0.007914	0.968299	0.041647	-0.246298
58672	9.511371	-0.051471	-2.436090	0.002480	0.000980	-0.002023	0.246422	0.002427	0.969159	0.040986	-0.999128	-0.007920	0.968296	0.041673	-0.246307
58673	9.524111	-0.076748	-2.416400	-0.001785	0.001969	-0.002152	0.246423	0.002429	0.969159	0.040969	-0.999129	-0.007913	0.968296	0.041656	-0.246308
58674	9.503976	-0.089704	-2.420118	-0.000491	0.003346	-0.000789	0.246411	0.002417	0.969163	0.040963	-0.999129	-0.007923	0.968299	0.041652	-0.246295
58675	9.510575	-0.056666	-2.411680	0.004388	0.002789	-0.002849	0.246403	0.002426	0.969165	0.041008	-0.999127	-0.007925	0.968300	0.041696	-0.246287
58676	9.524305	-0.076344	-2.415648	-0.002398	0.001538	0.000037	0.246407	0.002407	0.969163	0.040981	-0.999128	-0.007938	0.968300	0.041673	-0.246291
58677	9.512644	-0.045160	-2.458665	0.001376	0.003896	-0.000623	0.246390	0.002393	0.969168	0.040991	-0.999128	-0.007954	0.968304	0.041687	-0.246273
58678	9.523480	-0.081905	-2.391332	0.001949	0.003068	-0.001819	0.246380	0.002392	0.969170	0.041011	-0.999127	-0.007960	0.968305	0.041707	-0.246263
58679	9.525486	-0.070440	-2.438574	0.000041	0.001259	-0.000993	0.246388	0.002383	0.969168	0.041009	-0.999127	-0.007969	0.968303	0.041708	-0.246270
58680	9.539230	-0.090060	-2.442494	-0.002317	0.004056	-0.001948	0.246366	0.002382	0.969174	0.040987	-0.999128	-0.007963	0.968310	0.041685	-0.246249
58681	9.524631	-0.075860	-2.414378	0.001867	0.000549	0.000166	0.246381	0.002362	0.969170	0.041001	-0.999127	-0.007988	0.968305	0.041705	-0.246263
58682	9.538369	-0.095440	-2.418322	0.000736	0.004209	-0.005167	0.246359	0.002394	0.969176	0.041016	-0.999127	-0.007958	0.968310	0.041712	-0.246243
58683	9.491866	-0.063063	-2.437391	0.001908	0.001809	-0.000827	0.246362	0.002383	0.969175	0.041032	-0.999126	-0.007973	0.968309	0.041731	-0.246244
58684	9.504614	-0.088386	-2.417658	-0.001785	0.001969	-0.002152	0.246362	0.002385	0.969175	0.041016	-0.999127	-0.007967	0.968310	0.041715	-0.246245
58685	9.545058	-0.061884	-2.409522	-0.001785	0.001969	-0.002152	0.246362	0.002388	0.969175	0.041000	-0.999127	-0.007960	0.968310	0.041698	-0.246245
58686	9.525890	-0.069213	-2.437029	-0.000532	0.002087	0.000203	0.246374	0.002433	0.969172	0.040950	-0.999130	-0.007902	0.968309	0.041635	-0.246260
58687	9.504773	-0.087947	-2.417049	-0.002357	0.002797	-0.000956	0.246367	0.002423	0.969174	0.040926	-0.999131	-0.007906	0.968312	0.041612	-0.246252
58688	9.532515	-0.036107	-2.428458	0.000041	0.001259	-0.000993	0.246373	0.002414	0.969172	0.040924	-0.999131	-0.007915	0.968311	0.041613	-0.246257
58689	9.504895	-0.087690	-2.416579	-0.000449	0.004606	-0.001782	0.246348	0.002411	0.969179	0.040920	-0.999131	-0.007915	0.968317	0.041609	-0.246232
58690	9.539834	-0.088562	-2.440189	0.001908	0.001809	-0.000826	0.246351	0.002401	0.969178	0.040938	-0.999130	-0.007931	0.968316	0.041630	-0.246235
58691	9.511549	-0.054483	-2.407887	-0.001743	0.003229	-0.003145	0.246338	0.002413	0.969181	0.040925	-0.999131	-0.007915	0.968319	0.041613	-0.246223
58692	9.526267	-0.068353	-2.435579	0.002481	0.000981	-0.002022	0.246349	0.002414	0.969178	0.040953	-0.999130	-0.007921	0.968316	0.041642	-0.246233
58693	9.525306	-0.073887	-2.411774	-0.001826	0.000710	-0.001159	0.246362	0.002407	0.969175	0.040934	-0.999130	-0.007924	0.968313	0.041625	-0.246246
58694	9.526329	-0.068038	-2.435345	0.000082	0.002519	-0.001986	0.246355	0.002407	0.969177	0.040937	-0.999130	-0.007924	0.968315	0.041627	-0.246240
58695	9.539118	-0.093316	-2.415449	-0.000449	0.004606	-0.001782	0.246330	0.002405	0.969183	0.040933	-0.999130	-0.007925	0.968321	0.041623	-0.246215
58696	9.526496	-0.067620	-2.434706	0.000655	0.001691	-0.003182	0.246330	0.002417	0.969183	0.040942	-0.999130	-0.007914	0.968321	0.041629	-0.246215
58697	9.506350	-0.080738	-2.438501	0.000721	0.002205	0.002559	0.246330	0.002373	0.969183	0.040938	-0.999130	-0.007959	0.968321	0.041637	-0.246213
58698	9.525624	-0.073373	-2.410531	-0.000490	0.003347	-0.000790	0.246317	0.002361	0.969186	0.040932	-0.999130	-0.007969	0.968325	0.041633	-0.246199
58699	9.506498	-0.080611	-2.437925	-0.001743	0.003229	-0.003145	0.246305	0.002373	0.969190	0.040918	-0.999131	-0.007953	0.968328	0.041616	-0.246188
58700	9.526776	-0.067149	-2.433622	0.002564	0.003500	-0.004008	0.246290	0.002393	0.969193	0.040948	-0.999130	-0.007939	0.968331	0.041642	-0.246174
58701	9.512170	-0.052888	-2.405466	-0.000531	0.002087	0.000203	0.246290	0.002372	0.969193	0.040939	-0.999130	-0.007958	0.968331	0.041637	-0.246173
58702	9.520391	-0.099786	-2.441312	-0.001784	0.001969	-0.002152	0.246290	0.002374	0.969193	0.040924	-0.999131	-0.007952	0.968332	0.041622	-0.246173
58703	9.532460	-0.039515	-2.401097	-0.000531	0.002087	0.000203	0.246290	0.002353	0.969193	0.040914	-0.999131	-0.007971	0.968332	0.041617	-0.246172
58704	9.520479	-0.099475	-2.440979	0.001229	0.000863	-0.004378	0.246301	0.002378	0.969191	0.040932	-0.999130	-0.007950	0.968329	0.041629	-0.246184
58705	9.505852	-0.085115	-2.412902	0.001950	0.003068	-0.001819	0.246291	0.002377	0.969193	0.040951	-0.999129	-0.007956	0.968330	0.041649	-0.246173
58706	9.506920	-0.079204	-2.436327	-0.001743	0.003229	-0.003145	0.246279	0.002389	0.969196	0.040938	-0.999130	-0.007940	0.968334	0.041632	-0.246162
58707	9.561053	-0.072401	-2.432284	0.000656	0.001691	-0.003182	0.246281	0.002402	0.969195	0.040948	-0.999130	-0.007929	0.968333	0.041640	-0.246165
58708	9.493350	-0.058776	-2.431709	0.000697	0.002950	-0.004175	0.246270	0.002424	0.969198	0.040963	-0.999129	-0.007910	0.968335	0.041649	-0.246155
58709	9.540985	-0.084886	-2.435814	-0.001784	0.001969	-0.002153	0.246270	0.002426	0.969198	0.040947	-0.999130	-0.007903	0.968336	0.041632	-0.246155
58710	9.527333	-0.064808	-2.431504	-0.001211	0.001141	-0.003349	0.246279	0.002441	0.969196	0.040940	-0.999130	-0.007887	0.968334	0.041621	-0.246165
58711	9.519900	-0.103166	-2.415731	0.001950	0.003069	-0.001819	0.246269	0.002440	0.969199	0.040959	-0.999130	-0.007893	0.968336	0.041641	-0.246154
58712	9.527420	-0.064488	-2.431169	0.002440	-0.000278	-0.001029	0.246292	0.002432	0.969193	0.040978	-0.999129	-0.007906	0.968329	0.041663	-0.246177
58713	9.506294	-0.083195	-2.411227	-0.000449	0.004606	-0.001783	0.246267	0.002430	0.969199	0.040974	-0.999129	-0.007906	0.968336	0.041659	-0.246152
58714	9.507365	-0.077283	-2.434651	0.000656	0.001691	-0.003182	0.246269	0.002443	0.969199	0.040985	-0.999129	-0.007896	0.968335	0.041667	-0.246154
58715	9.559492	-0.081980	-2.383218	0.001908	0.001809	-0.000826	0.246271	0.002432	0.969198	0.041001	-0.999128	-0.007911	0.968333	0.041687	-0.246156
58716	9.493761	-0.057205	-2.430144	-0.001784	0.001969	-0.002153	0.246271	0.002434	0.969198	0.040985	-0.999128	-0.007905	0.968334	0.041670	-0.246156
58717	9.527702	-0.063646	-2.430089	-0.002357	0.002797	-0.000957	0.246264	0.002424	0.969200	0.040961	-0.999129	-0.007908	0.968337	0.041647	-0.246149
58718	9.520286	-0.102093	-2.414252	-0.002357	0.002797	-0.000957	0.246255	0.002415	0.969202	0.040935	-0.999130	-0.007911	0.968340	0.041622	-0.246140
58719	9.507647	-0.076450	-2.433576	0.002523	0.002241	-0.003015	0.246252	0.002426	0.969203	0.040963	-0.999129	-0.007907	0.968340	0.041648	-0.246137
58720	9.561727	-0.069753	-2.429710	-0.001293	-0.001378	-0.001363	0.246288	0.002422	0.969194	0.040951	-0.999130	-0.007910	0.968331	0.041638	-0.246173
58721	9.494002	-0.056309	-2.429222	-0.000448	0.004606	-0.001783	0.246263	0.002419	0.969200	0.040947	-0.999130	-0.007910	0.968338	0.041634	-0.246148
58722	9.540665	-0.088167	-2.409525	0.000657	0.001691	-0.003182	0.246264	0.002432	0.969200	0.040955	-0.999130	-0.007899	0.968337	0.041639	-0.246149
58723	9.507810	-0.075759	-2.432962	-0.000573	0.000828	0.001196	0.246277	0.002402	0.969197	0.040943	-0.999130	-0.007928	0.968334	0.041634	-0.246161
58724	9.507851	-0.075843	-2.432797	0.001335	0.002637	0.000370	0.246273	0.002379	0.969198	0.040953	-0.999129	-0.007954	0.968335	0.041650	-0.246156
58725	9.528092	-0.062612	-2.428584	-0.001783	0.001969	-0.002153	0.246273	0.002381	0.969198	0.040936	-0.999130	-0.007947	0.968336	0.041633	-0.246156
58726	9.521673	-0.095361	-2.436485	-0.000490	0.003347	-0.000790	0.246259	0.002369	0.969201	0.040930	-0.999130	-0.007957	0.968339	0.041629	-0.246142
58727	9.547400	-0.054891	-2.400394	0.000042	0.001260	-0.000993	0.246266	0.002360	0.969199	0.040928	-0.999130	-0.007966	0.968338	0.041630	-0.246149
58728	9.508084	-0.075386	-2.431901	0.001950	0.003069	-0.001819	0.246256	0.002359	0.969202	0.040948	-0.999129	-0.007973	0.968339	0.041651	-0.246138
58729	9.543029	-0.076153	-2.455546	-0.001783	0.001969	-0.002153	0.246256	0.002361	0.969202	0.040932	-0.999130	-0.007966	0.968340	0.041633	-0.246139
58730	9.521907	-0.094768	-2.435591	0.004391	0.002792	-0.002847	0.246251	0.002370	0.969203	0.040980	-0.999128	-0.007968	0.968339	0.041680	-0.246134
58731	9.515730	-0.036109	-2.446843	-0.003076	0.000591	-0.003516	0.246264	0.002387	0.969200	0.040955	-0.999129	-0.007945	0.968337	0.041650	-0.246148
58732	9.521983	-0.094260	-2.435315	0.001909	0.001810	-0.000826	0.246267	0.002377	0.969199	0.040970	-0.999129	-0.007960	0.968336	0.041668	-0.246150
58733	9.508328	-0.074346	-2.430979	-0.001783	0.001969	-0.002153	0.246268	0.002379	0.969199	0.040954	-0.999129	-0.007954	0.968336	0.041651	-0.246151
58734	9.547749	-0.053538	-2.399035	-0.002356	0.002797	-0.000957	0.246260	0.002369	0.969201	0.040928	-0.999130	-0.007957	0.968339	0.041627	-0.246143
58735	9.508440	-0.073911	-2.430554	0.003098	0.001414	-0.004210	0.246265	0.002393	0.969200	0.040965	-0.999129	-0.007942	0.968336	0.041659	-0.246148
58736	9.528671	-0.060509	-2.426367	0.000084	0.002519	-0.001986	0.246258	0.002393	0.969201	0.040966	-0.999129	-0.007942	0.968338	0.041660	-0.246141
58737	9.528726	-0.060291	-2.426154	-0.001783	0.001969	-0.002153	0.246258	0.002395	0.969201	0.040950	-0.999130	-0.007935	0.968339	0.041643	-0.246142
58738	9.474747	-0.066743	-2.429668	-0.001637	0.005002	0.001602	0.246230	0.002359	0.969209	0.040924	-0.999131	-0.007965	0.968347	0.041625	-0.246112
58739	9.522418	-0.092928	-2.433666	-0.000593	0.001573	-0.005538	0.246232	0.002396	0.969208	0.040928	-0.999131	-0.007928	0.968346	0.041620	-0.246116
58740	9.528942	-0.059752	-2.425322	0.003775	0.002360	-0.000658	0.246229	0.002383	0.969209	0.040963	-0.999129	-0.007950	0.968346	0.041660	-0.246112
58741	9.509801	-0.067138	-2.452912	0.000616	0.000432	-0.002189	0.246244	0.002386	0.969205	0.040971	-0.999129	-0.007949	0.968341	0.041666	-0.246128
58742	9.522520	-0.092543	-2.433282	-0.000574	0.000828	0.001196	0.246256	0.002356	0.969202	0.040959	-0.999129	-0.007979	0.968339	0.041662	-0.246138
58743	9.508861	-0.072758	-2.428943	0.001951	0.003070	-0.001819	0.246245	0.002354	0.969205	0.040978	-0.999128	-0.007984	0.968341	0.041683	-0.246127
58744	9.529076	-0.059419	-2.424800	-0.001251	-0.000118	-0.002356	0.246266	0.002360	0.969199	0.040967	-0.999129	-0.007977	0.968336	0.041670	-0.246148
58745	9.507931	-0.078056	-2.404938	0.001951	0.003070	-0.001819	0.246256	0.002358	0.969202	0.040987	-0.999128	-0.007983	0.968338	0.041690	-0.246138
58746	9.521730	-0.097655	-2.408737	0.001993	0.004330	-0.002812	0.246232	0.002366	0.969208	0.041010	-0.999127	-0.007979	0.968343	0.041712	-0.246114
58747	9.529285	-0.058842	-2.423993	-0.004223	0.002246	-0.001126	0.246230	0.002358	0.969208	0.040967	-0.999129	-0.007977	0.968345	0.041670	-0.246112
58748	9.522842	-0.091638	-2.432055	0.002441	-0.000277	-0.001028	0.246251	0.002350	0.969203	0.040989	-0.999128	-0.007991	0.968339	0.041694	-0.246132
58749	9.509180	-0.071727	-2.427724	-0.002314	0.004056	-0.001951	0.246231	0.002350	0.969208	0.040967	-0.999129	-0.007985	0.968345	0.041672	-0.246113
58750	9.543128	-0.078160	-2.427630	0.002483	0.000983	-0.002021	0.246240	0.002352	0.969206	0.040991	-0.999128	-0.007990	0.968342	0.041696	-0.246122
58751	9.510262	-0.065796	-2.451160	0.000000	0.000000	-0.000000	0.246260	0.002333	0.969201	0.040987	-0.999128	-0.008009	0.968337	0.041697	-0.246141
58752	9.494559	-0.057239	-2.399483	0.000658	0.001692	-0.003182	0.246262	0.002347	0.969201	0.040994	-0.999127	-0.007997	0.968336	0.041700	-0.246143
58753	9.524042	-0.085282	-2.455049	-0.000532	0.002087	0.000203	0.246262	0.002326	0.969201	0.040984	-0.999128	-0.008016	0.968336	0.041696	-0.246142
58754	9.509371	-0.071051	-2.426996	0.000658	0.001692	-0.003182	0.246264	0.002339	0.969200	0.040993	-0.999127	-0.008005	0.968336	0.041702	-0.246145
58755	9.543307	-0.077547	-2.426948	-0.002972	0.002364	0.001231	0.246262	0.002307	0.969201	0.040957	-0.999129	-0.008028	0.968338	0.041673	-0.246141
58756	9.510460	-0.065158	-2.450407	0.003057	0.000155	-0.003217	0.246280	0.002321	0.969196	0.040990	-0.999127	-0.008023	0.968332	0.041703	-0.246160
58757	9.528652	-0.063153	-2.398827	0.000084	0.002520	-0.001986	0.246275	0.002322	0.969197	0.040991	-0.999127	-0.008023	0.968333	0.041704	-0.246155
58758	9.522230	-0.095904	-2.406829	-0.001824	0.000709	-0.001161	0.246289	0.002315	0.969194	0.040972	-0.999128	-0.008025	0.968330	0.041687	-0.246169
58759	9.510573	-0.064588	-2.449986	0.002525	0.002243	-0.003014	0.246287	0.002326	0.969194	0.041000	-0.999127	-0.008021	0.968329	0.041712	-0.246167
58760	9.510624	-0.064459	-2.449792	0.001909	0.001810	-0.000825	0.246290	0.002315	0.969193	0.041017	-0.999126	-0.008036	0.968328	0.041733	-0.246170
58761	9.495947	-0.050229	-2.421741	-0.001782	0.001969	-0.002154	0.246290	0.002318	0.969193	0.041001	-0.999127	-0.008030	0.968328	0.041715	-0.246170
58762	9.524451	-0.083919	-2.453507	-0.000490	0.003347	-0.000791	0.246277	0.002306	0.969197	0.040994	-0.999127	-0.008040	0.968332	0.041711	-0.246157
58763	9.530991	-0.050782	-2.445039	-0.001740	0.003229	-0.003147	0.246265	0.002318	0.969200	0.040981	-0.999128	-0.008023	0.968336	0.041694	-0.246145
58764	9.523585	-0.089196	-2.429232	0.001909	0.001811	-0.000825	0.246268	0.002307	0.969199	0.040998	-0.999127	-0.008039	0.968334	0.041715	-0.246147
58765	9.509924	-0.069319	-2.424879	0.000085	0.002520	-0.001986	0.246263	0.002308	0.969200	0.041000	-0.999127	-0.008039	0.968336	0.041716	-0.246142
58766	9.530141	-0.055896	-2.420695	-0.001208	0.001141	-0.003350	0.246269	0.002322	0.969199	0.040991	-0.999127	-0.008021	0.968334	0.041703	-0.246150
58767	9.523743	-0.088601	-2.428638	-0.000489	0.003347	-0.000791	0.246257	0.002311	0.969202	0.040984	-0.999128	-0.008031	0.968338	0.041699	-0.246137
58768	9.509075	-0.074453	-2.400523	0.001909	0.001811	-0.000825	0.246261	0.002300	0.969201	0.041000	-0.999127	-0.008046	0.968336	0.041719	-0.246140
58769	9.509122	-0.074313	-2.400344	-0.001782	0.001969	-0.002154	0.246261	0.002303	0.969201	0.040984	-0.999127	-0.008040	0.968337	0.041701	-0.246140
58770	9.529276	-0.060949	-2.396404	-0.000760	-0.003466	-0.001566	0.246315	0.002301	0.969187	0.040980	-0.999128	-0.008043	0.968323	0.041698	-0.246194
58771	9.509104	-0.073852	-2.400428	-0.001739	0.003229	-0.003147	0.246302	0.002313	0.969190	0.040966	-0.999128	-0.008026	0.968327	0.041681	-0.246182
58772	9.538654	-0.101821	-2.455837	0.003818	0.003622	-0.001650	0.246286	0.002310	0.969195	0.041003	-0.999127	-0.008038	0.968330	0.041720	-0.246165
58773	9.511302	-0.062215	-2.447214	-0.000489	0.003347	-0.000791	0.246273	0.002298	0.969198	0.040996	-0.999127	-0.008048	0.968333	0.041715	-0.246152
58774	9.524086	-0.087552	-2.427330	0.001952	0.003071	-0.001818	0.246261	0.002296	0.969201	0.041017	-0.999126	-0.008055	0.968335	0.041737	-0.246140
58775	9.497731	-0.042188	-2.442499	0.000085	0.002520	-0.001986	0.246256	0.002297	0.969202	0.041019	-0.999126	-0.008054	0.968336	0.041739	-0.246135
58776	9.544364	-0.074065	-2.422896	-0.001824	0.000709	-0.001161	0.246268	0.002290	0.969199	0.041000	-0.999127	-0.008057	0.968334	0.041721	-0.246147
58777	9.510509	-0.067259	-2.422640	-0.001781	0.001969	-0.002155	0.246268	0.002292	0.969199	0.040984	-0.999127	-0.008051	0.968335	0.041704	-0.246147
58778	9.516004	-0.039847	-2.390507	-0.000489	0.003347	-0.000791	0.246257	0.002281	0.969202	0.040977	-0.999128	-0.008061	0.968338	0.041700	-0.246135
58779	9.518930	-0.113913	-2.458173	0.000660	0.001692	-0.003182	0.246259	0.002293	0.969201	0.040988	-0.999127	-0.008050	0.968337	0.041708	-0.246138
58780	9.509681	-0.072397	-2.398186	-0.000489	0.003347	-0.000791	0.246247	0.002282	0.969204	0.040981	-0.999127	-0.008060	0.968340	0.041704	-0.246126
58781	9.525519	-0.080695	-2.449468	0.001952	0.003071	-0.001818	0.246237	0.002280	0.969207	0.041000	-0.999127	-0.008066	0.968342	0.041724	-0.246116
58782	9.524563	-0.086187	-2.425505	-0.001781	0.001969	-0.002155	0.246238	0.002282	0.969207	0.040988	-0.999127	-0.008060	0.968342	0.041710	-0.246117
58783	9.525632	-0.080259	-2.449041	-0.001781	0.001969	-0.002155	0.246239	0.002285	0.969207	0.040972	-0.999128	-0.008054	0.968343	0.041693	-0.246118
58784	9.524659	-0.085671	-2.425145	0.000660	0.001693	-0.003182	0.246239	0.002298	0.969206	0.040982	-0.999128	-0.008043	0.968342	0.041700	-0.246118
58785	9.510931	-0.065635	-2.421028	-0.000717	-0.002206	-0.002559	0.246280	0.002306	0.969196	0.040977	-0.999128	-0.008035	0.968332	0.041693	-0.246159
58786	9.525710	-0.079643	-2.448760	-0.001639	0.005002	0.001600	0.246252	0.002270	0.969203	0.040954	-0.999128	-0.008066	0.968340	0.041679	-0.246131
58787	9.525811	-0.079528	-2.448369	-0.001738	0.003229	-0.003148	0.246240	0.002281	0.969206	0.040941	-0.999129	-0.008050	0.968344	0.041662	-0.246119
58788	9.504673	-0.098104	-2.428493	0.000617	0.000433	-0.002189	0.246254	0.002284	0.969203	0.040951	-0.999129	-0.008050	0.968340	0.041672	-0.246133
58789	9.510108	-0.070697	-2.396541	0.002484	0.000984	-0.002021	0.246264	0.002286	0.969200	0.040976	-0.999128	-0.008055	0.968336	0.041698	-0.246143
58790	9.524884	-0.084665	-2.424296	0.000043	0.001260	-0.000993	0.246272	0.002277	0.969198	0.040973	-0.999128	-0.008063	0.968334	0.041696	-0.246150
58791	9.545063	-0.071326	-2.420222	-0.001249	-0.000119	-0.002357	0.246292	0.002283	0.969193	0.040962	-0.999128	-0.008056	0.968330	0.041684	-0.246171
58792	9.529326	-0.062725	-2.368511	-0.002356	0.002796	-0.000959	0.246286	0.002273	0.969195	0.040939	-0.999129	-0.008060	0.968332	0.041663	-0.246164
58793	9.524974	-0.084118	-2.423963	0.000618	0.000433	-0.002189	0.246301	0.002276	0.969191	0.040947	-0.999129	-0.008059	0.968328	0.041670	-0.246179
58794	9.511292	-0.064091	-2.419649	-0.001738	0.003229	-0.003148	0.246288	0.002288	0.969194	0.040935	-0.999129	-0.008044	0.968332	0.041655	-0.246168
58795	9.525083	-0.083663	-2.423549	0.001909	0.001811	-0.000825	0.246291	0.002277	0.969193	0.040951	-0.999129	-0.008059	0.968330	0.041675	-0.246169
58796	9.503961	-0.102323	-2.403610	-0.001738	0.003229	-0.003148	0.246280	0.002289	0.969196	0.040940	-0.999129	-0.008044	0.968334	0.041660	-0.246159
58797	9.525227	-0.083261	-2.422997	-0.000489	0.003348	-0.000791	0.246267	0.002277	0.969199	0.040934	-0.999129	-0.008053	0.968337	0.041656	-0.246146
58798	9.516966	-0.036071	-2.386733	0.000661	0.001693	-0.003182	0.246269	0.002290	0.969199	0.040941	-0.999129	-0.008042	0.968336	0.041661	-0.246148
58799	9.511597	-0.063126	-2.418477	0.000043	0.001260	-0.000993	0.246277	0.002282	0.969197	0.040940	-0.999129	-0.008051	0.968335	0.041662	-0.246156
58800	9.524350	-0.088425	-2.398714	0.000086	0.002520	-0.001987	0.246272	0.002282	0.969198	0.040942	-0.999129	-0.008051	0.968336	0.041664	-0.246151
58801	9.511680	-0.062668	-2.418163	-0.000631	0.000314	-0.004546	0.246287	0.002309	0.969194	0.040943	-0.999129	-0.008024	0.968332	0.041658	-0.246167
58802	9.539191	-0.101915	-2.426265	-0.000489	0.003348	-0.000791	0.246274	0.002298	0.969198	0.040934	-0.999130	-0.008033	0.968336	0.041651	-0.246153
58803	9.510750	-0.067962	-2.394075	-0.001823	0.000709	-0.001162	0.246286	0.002291	0.969194	0.040915	-0.999130	-0.008035	0.968333	0.041633	-0.246166
58804	9.525555	-0.081897	-2.421755	0.001952	0.003072	-0.001818	0.246275	0.002290	0.969197	0.040933	-0.999130	-0.008041	0.968335	0.041652	-0.246155
58805	9.511884	-0.061953	-2.417377	-0.001780	0.001969	-0.002155	0.246276	0.002292	0.969197	0.040917	-0.999130	-0.008034	0.968336	0.041635	-0.246155
58806	9.559541	-0.088074	-2.421511	0.000618	0.000433	-0.002189	0.246291	0.002295	0.969193	0.040927	-0.999130	-0.008034	0.968331	0.041645	-0.246170
58807	9.525668	-0.081326	-2.421332	0.002484	0.000984	-0.002020	0.246301	0.002297	0.969191	0.040952	-0.999129	-0.008039	0.968328	0.041670	-0.246180
58808	9.524653	-0.086813	-2.397569	-0.001248	-0.000119	-0.002357	0.246321	0.002302	0.969185	0.040941	-0.999129	-0.008032	0.968323	0.041658	-0.246201
58809	9.525786	-0.080921	-2.420879	-0.001510	0.008783	-0.001380	0.246256	0.002294	0.969202	0.040925	-0.999130	-0.008033	0.968340	0.041643	-0.246136
58810	9.491990	-0.074204	-2.420393	0.000575	-0.000827	-0.001196	0.246284	0.002288	0.969195	0.040932	-0.999130	-0.008042	0.968333	0.041651	-0.246163
58811	9.539638	-0.100387	-2.424570	-0.004222	0.002245	-0.001129	0.246282	0.002280	0.969196	0.040889	-0.999131	-0.008040	0.968335	0.041610	-0.246161
58812	9.532347	-0.047581	-2.412175	0.002442	-0.000276	-0.001027	0.246304	0.002272	0.969190	0.040911	-0.999130	-0.008054	0.968329	0.041635	-0.246183
58813	9.493109	-0.068103	-2.443776	-0.002312	0.004056	-0.001953	0.246284	0.002272	0.969195	0.040890	-0.999131	-0.008048	0.968335	0.041612	-0.246163
58814	9.558887	-0.092383	-2.396359	-0.001248	-0.000119	-0.002358	0.246304	0.002277	0.969190	0.040879	-0.999132	-0.008041	0.968330	0.041600	-0.246183
58815	9.512306	-0.060094	-2.415764	0.000661	0.001693	-0.003182	0.246306	0.002290	0.969189	0.040889	-0.999131	-0.008030	0.968329	0.041607	-0.246186
58816	9.547250	-0.060720	-2.439515	-0.001248	-0.000119	-0.002358	0.246326	0.002296	0.969184	0.040876	-0.999132	-0.008022	0.968325	0.041593	-0.246206
58817	9.492208	-0.072681	-2.419586	0.000705	0.002954	-0.004175	0.246316	0.002318	0.969187	0.040889	-0.999132	-0.008002	0.968327	0.041600	-0.246197
58818	9.526130	-0.079019	-2.419588	0.000575	-0.000827	-0.001196	0.246345	0.002312	0.969179	0.040895	-0.999131	-0.008011	0.968319	0.041608	-0.246225
58819	9.527173	-0.073270	-2.443262	0.001909	0.001812	-0.000824	0.246347	0.002301	0.969179	0.040911	-0.999131	-0.008026	0.968318	0.041627	-0.246227
58820	9.512484	-0.059113	-2.415087	-0.002888	0.004883	-0.000758	0.246318	0.002289	0.969186	0.040879	-0.999132	-0.008030	0.968327	0.041598	-0.246197
58821	9.526283	-0.078667	-2.418997	-0.001248	-0.000119	-0.002358	0.246338	0.002294	0.969181	0.040869	-0.999132	-0.008023	0.968322	0.041586	-0.246218
58822	9.512588	-0.058648	-2.414688	0.000130	0.003781	-0.002980	0.246321	0.002304	0.969186	0.040875	-0.999132	-0.008013	0.968326	0.041590	-0.246201
58823	9.528465	-0.066767	-2.465991	-0.001780	0.001969	-0.002156	0.246321	0.002306	0.969186	0.040859	-0.999133	-0.008007	0.968327	0.041572	-0.246201
58824	9.541206	-0.091981	-2.446291	0.000619	0.000433	-0.002189	0.246335	0.002310	0.969182	0.040869	-0.999132	-0.008007	0.968323	0.041581	-0.246216
58825	9.491567	-0.076838	-2.394375	-0.000446	0.004608	-0.001784	0.246310	0.002307	0.969188	0.040865	-0.999133	-0.008007	0.968329	0.041578	-0.246191
58826	9.527625	-0.071908	-2.441537	-0.000489	0.003348	-0.000791	0.246297	0.002296	0.969192	0.040856	-0.999133	-0.008016	0.968333	0.041572	-0.246178
58827	9.507505	-0.085120	-2.445447	0.001823	-0.000709	0.001162	0.246325	0.002266	0.969185	0.040867	-0.999132	-0.008050	0.968325	0.041591	-0.246204
58828	9.560559	-0.084155	-2.417628	-0.002312	0.004056	-0.001954	0.246305	0.002266	0.969190	0.040845	-0.999133	-0.008044	0.968331	0.041568	-0.246184
58829	9.511973	-0.063333	-2.389338	0.001953	0.003073	-0.001818	0.246295	0.002265	0.969192	0.040864	-0.999132	-0.008050	0.968333	0.041588	-0.246174
58830	9.507731	-0.084740	-2.444584	-0.000445	0.004608	-0.001785	0.246271	0.002262	0.969198	0.040860	-0.999132	-0.008050	0.968339	0.041584	-0.246149
58831	9.560814	-0.083679	-2.416639	0.000043	0.001260	-0.000993	0.246278	0.002254	0.969197	0.040859	-0.999132	-0.008059	0.968338	0.041585	-0.246157
58832	9.514265	-0.051457	-2.435921	-0.001736	0.003229	-0.003149	0.246265	0.002266	0.969200	0.040844	-0.999133	-0.008043	0.968342	0.041567	-0.246144
58833	9.562004	-0.077514	-2.439772	-0.000445	0.004608	-0.001785	0.246240	0.002263	0.969206	0.040840	-0.999133	-0.008043	0.968348	0.041563	-0.246119
58834	9.513402	-0.056774	-2.411523	0.001910	0.001812	-0.000824	0.246240	0.002252	0.969206	0.040856	-0.999133	-0.008058	0.968347	0.041582	-0.246118
58835	9.507081	-0.089616	-2.419376	-0.002887	0.004884	-0.000759	0.246212	0.002240	0.969213	0.040826	-0.999134	-0.008062	0.968356	0.041554	-0.246091
58836	9.532661	-0.048907	-2.383182	0.003680	0.000592	-0.005404	0.246226	0.002275	0.969210	0.040871	-0.999132	-0.008038	0.968350	0.041592	-0.246106
58837	9.506136	-0.094757	-2.395306	0.000044	0.001260	-0.000993	0.246234	0.002267	0.969208	0.040870	-0.999132	-0.008047	0.968348	0.041593	-0.246113
58838	9.526346	-0.081389	-2.391024	0.000131	0.003781	-0.002980	0.246216	0.002277	0.969212	0.040874	-0.999132	-0.008036	0.968353	0.041594	-0.246095
58839	9.513683	-0.055689	-2.410441	-0.001247	-0.000119	-0.002358	0.246236	0.002282	0.969207	0.040863	-0.999132	-0.008029	0.968348	0.041582	-0.246116
58840	9.523156	-0.096699	-2.470036	-0.001735	0.003229	-0.003149	0.246224	0.002294	0.969210	0.040851	-0.999133	-0.008013	0.968352	0.041566	-0.246105
58841	9.528559	-0.069186	-2.437969	0.000619	0.000434	-0.002189	0.246240	0.002297	0.969206	0.040858	-0.999133	-0.008012	0.968347	0.041573	-0.246120
58842	9.528606	-0.069045	-2.437789	-0.000489	0.003348	-0.000791	0.246229	0.002286	0.969209	0.040852	-0.999133	-0.008022	0.968350	0.041569	-0.246109
58843	9.521232	-0.107346	-2.422008	-0.000583	0.001576	-0.005540	0.246231	0.002322	0.969208	0.040856	-0.999133	-0.007986	0.968350	0.041564	-0.246113
58844	9.508557	-0.081706	-2.441470	0.003732	0.001104	0.000339	0.246241	0.002300	0.969206	0.040888	-0.999132	-0.008017	0.968346	0.041603	-0.246121
58845	9.528741	-0.068458	-2.437279	-0.001779	0.001969	-0.002156	0.246241	0.002303	0.969206	0.040872	-0.999132	-0.008011	0.968346	0.041586	-0.246122
58846	9.547924	-0.060742	-2.409200	-0.000445	0.004609	-0.001785	0.246216	0.002300	0.969212	0.040871	-0.999132	-0.008012	0.968353	0.041585	-0.246097
58847	9.507707	-0.086977	-2.417013	0.000044	0.001261	-0.000993	0.246224	0.002291	0.969210	0.040870	-0.999132	-0.008021	0.968351	0.041586	-0.246104
58848	9.528983	-0.067922	-2.436347	-0.000401	0.005869	-0.002778	0.246187	0.002298	0.969220	0.040870	-0.999132	-0.008012	0.968360	0.041585	-0.246067
58849	9.508936	-0.080847	-2.440022	-0.001779	0.001969	-0.002156	0.246187	0.002300	0.969220	0.040854	-0.999133	-0.008006	0.968361	0.041568	-0.246068
58850	9.549238	-0.054299	-2.431872	0.000576	-0.000827	-0.001195	0.246214	0.002295	0.969213	0.040858	-0.999133	-0.008014	0.968354	0.041573	-0.246095
58851	9.507938	-0.086265	-2.416129	-0.000489	0.003348	-0.000792	0.246202	0.002283	0.969216	0.040851	-0.999133	-0.008024	0.968357	0.041569	-0.246082
58852	9.507994	-0.086048	-2.415916	-0.001202	0.001142	-0.003352	0.246209	0.002298	0.969214	0.040842	-0.999134	-0.008006	0.968356	0.041556	-0.246090
58853	9.508025	-0.085827	-2.415802	0.000044	0.001261	-0.000993	0.246217	0.002289	0.969212	0.040841	-0.999133	-0.008016	0.968354	0.041557	-0.246097
58854	9.528230	-0.072452	-2.411513	0.000131	0.003782	-0.002980	0.246201	0.002299	0.969216	0.040847	-0.999133	-0.008006	0.968358	0.041561	-0.246082
58855	9.543105	-0.086244	-2.439084	-0.001778	0.001969	-0.002157	0.246202	0.002301	0.969216	0.040831	-0.999134	-0.007999	0.968358	0.041544	-0.246082
58856	9.494472	-0.065243	-2.410898	-0.001114	0.003663	-0.005339	0.246186	0.002335	0.969220	0.040833	-0.999134	-0.007965	0.968362	0.041537	-0.246068
58857	9.543217	-0.085552	-2.438670	-0.001866	-0.000552	-0.000170	0.246212	0.002318	0.969213	0.040811	-0.999135	-0.007977	0.968356	0.041519	-0.246093
58858	9.514667	-0.051582	-2.406646	0.000664	0.001695	-0.003182	0.246216	0.002331	0.969212	0.040824	-0.999135	-0.007968	0.968355	0.041529	-0.246098
58859	9.529517	-0.065477	-2.434322	0.001910	0.001813	-0.000824	0.246218	0.002320	0.969212	0.040840	-0.999134	-0.007983	0.968354	0.041548	-0.246099
58860	9.503077	-0.111494	-2.446245	-0.000445	0.004609	-0.001785	0.246190	0.002318	0.969219	0.040837	-0.999134	-0.007984	0.968361	0.041545	-0.246071
58861	9.529691	-0.065217	-2.433649	0.001954	0.003074	-0.001817	0.246179	0.002316	0.969222	0.040856	-0.999133	-0.007990	0.968363	0.041566	-0.246061
58862	9.522335	-0.103698	-2.417827	-0.002354	0.002796	-0.000961	0.246171	0.002307	0.969224	0.040831	-0.999134	-0.007993	0.968366	0.041542	-0.246052
58863	9.515011	-0.050827	-2.405301	-0.001778	0.001969	-0.002157	0.246172	0.002309	0.969224	0.040815	-0.999135	-0.007986	0.968367	0.041525	-0.246053
58864	9.523486	-0.097642	-2.441169	0.000044	0.001261	-0.000993	0.246178	0.002300	0.969222	0.040815	-0.999135	-0.007996	0.968365	0.041527	-0.246059
58865	9.496035	-0.058025	-2.432644	-0.000444	0.004609	-0.001785	0.246153	0.002298	0.969228	0.040811	-0.999135	-0.007996	0.968371	0.041524	-0.246034
58866	9.537401	-0.117010	-2.444712	0.000665	0.001695	-0.003182	0.246154	0.002310	0.969228	0.040822	-0.999135	-0.007986	0.968371	0.041532	-0.246035
58867	9.515223	-0.050026	-2.404480	0.003063	0.000160	-0.003214	0.246171	0.002324	0.969224	0.040856	-0.999133	-0.007981	0.968365	0.041563	-0.246053
58868	9.543832	-0.083596	-2.436329	-0.004220	0.002243	-0.001132	0.246169	0.002316	0.969224	0.040815	-0.999135	-0.007979	0.968367	0.041523	-0.246050
58869	9.508944	-0.082444	-2.412299	0.000709	0.002956	-0.004176	0.246159	0.002338	0.969227	0.040828	-0.999134	-0.007959	0.968369	0.041531	-0.246041
58870	9.530196	-0.063375	-2.431720	-0.000532	0.002088	0.000202	0.246160	0.002317	0.969227	0.040818	-0.999135	-0.007978	0.968369	0.041526	-0.246041
58871	9.510132	-0.076433	-2.435499	0.000132	0.003782	-0.002980	0.246142	0.002327	0.969231	0.040823	-0.999135	-0.007968	0.968374	0.041528	-0.246024
58872	9.510198	-0.076265	-2.435247	-0.002398	0.001535	0.000032	0.246146	0.002308	0.969230	0.040797	-0.999136	-0.007982	0.968374	0.041506	-0.246028
58873	9.509219	-0.081835	-2.411237	-0.000444	0.004609	-0.001785	0.246121	0.002306	0.969236	0.040793	-0.999136	-0.007982	0.968380	0.041502	-0.246003
58874	9.509297	-0.081602	-2.410937	0.000665	0.001695	-0.003182	0.246124	0.002318	0.969236	0.040804	-0.999135	-0.007972	0.968379	0.041511	-0.246006
58875	9.543216	-0.087987	-2.410931	-0.004309	-0.000279	0.000855	0.246147	0.002292	0.969230	0.040756	-0.999137	-0.007988	0.968375	0.041468	-0.246028
58876	9.489186	-0.094547	-2.414911	0.004929	0.000713	-0.003044	0.246161	0.002304	0.969226	0.040808	-0.999135	-0.007990	0.968370	0.041519	-0.246042
58877	9.530561	-0.062209	-2.430319	-0.001733	0.003230	-0.003151	0.246148	0.002316	0.969229	0.040795	-0.999136	-0.007973	0.968373	0.041502	-0.246030
58878	9.509458	-0.080784	-2.410329	0.000133	0.003783	-0.002981	0.246129	0.002325	0.969234	0.040799	-0.999136	-0.007964	0.968378	0.041504	-0.246012
58879	9.510593	-0.074862	-2.433748	0.000089	0.002522	-0.001987	0.246124	0.002326	0.969235	0.040801	-0.999136	-0.007963	0.968379	0.041506	-0.246007
58880	9.510672	-0.074628	-2.433448	0.000133	0.003783	-0.002981	0.246108	0.002336	0.969240	0.040806	-0.999135	-0.007953	0.968383	0.041508	-0.245991
58881	9.542543	-0.092337	-2.385738	0.001955	0.003075	-0.001817	0.246098	0.002335	0.969242	0.040825	-0.999135	-0.007959	0.968385	0.041528	-0.245980
58882	9.516120	-0.047100	-2.400987	0.001910	0.001814	-0.000823	0.246101	0.002324	0.969241	0.040841	-0.999134	-0.007974	0.968383	0.041547	-0.245983
58883	9.545792	-0.075129	-2.456611	0.000577	-0.000827	-0.001195	0.246129	0.002318	0.969234	0.040845	-0.999134	-0.007983	0.968376	0.041554	-0.246011
58884	9.509777	-0.079745	-2.409106	-0.001200	0.001142	-0.003352	0.246137	0.002333	0.969232	0.040838	-0.999134	-0.007966	0.968374	0.041543	-0.246019
58885	9.508773	-0.085215	-2.385174	-0.000488	0.003349	-0.000792	0.246124	0.002321	0.969236	0.040832	-0.999134	-0.007976	0.968378	0.041538	-0.246006
58886	9.509898	-0.079360	-2.408641	-0.001777	0.001969	-0.002157	0.246352	0.002451	0.969177	0.041037	-0.999126	-0.007905	0.968311	0.041720	-0.246238
58887	9.511014	-0.073455	-2.432146	0.000089	0.002522	-0.001987	0.246347	0.002452	0.969178	0.041039	-0.999126	-0.007904	0.968312	0.041721	-0.246233
58888	9.559821	-0.093875	-2.459764	0.001955	0.003075	-0.001817	0.246336	0.002450	0.969181	0.041058	-0.999125	-0.007910	0.968314	0.041741	-0.246221
58889	9.559903	-0.094912	-2.308902	-0.000444	0.004610	-0.001786	0.246311	0.002448	0.969188	0.041054	-0.999126	-0.007910	0.968321	0.041737	-0.246196
58890	9.455124	-0.089933	-2.538260	-0.002975	0.002361	0.001226	0.246309	0.002417	0.969188	0.041018	-0.999127	-0.007933	0.968323	0.041708	-0.246193
58891	9.558972	-0.099119	-2.435232	0.001820	0.000042	-0.005572	0.246327	0.002454	0.969184	0.041046	-0.999126	-0.007902	0.968317	0.041727	-0.246213
58892	9.522980	-0.012260	-2.390829	-0.001732	0.003230	-0.003151	0.246315	0.002466	0.969187	0.041033	-0.999127	-0.007886	0.968321	0.041711	-0.246201
58893	9.545288	-0.078830	-2.430780	0.001866	0.000553	0.000170	0.246330	0.002446	0.969183	0.041046	-0.999126	-0.007911	0.968316	0.041730	-0.246215
58894	9.524112	-0.097676	-2.411070	-0.001821	0.000708	-0.001164	0.246343	0.002440	0.969180	0.041028	-0.999127	-0.007913	0.968314	0.041713	-0.246228
58895	9.524162	-0.097428	-2.410884	-0.001732	0.003230	-0.003151	0.246331	0.002452	0.969183	0.041015	-0.999127	-0.007897	0.968318	0.041696	-0.246217
58896	9.476562	-0.070956	-2.406414	-0.000488	0.003349	-0.000792	0.246319	0.002440	0.969186	0.041008	-0.999128	-0.007907	0.968321	0.041692	-0.246204
58897	9.565589	-0.064873	-2.426047	0.001776	-0.001219	-0.004579	0.246349	0.002468	0.969178	0.041032	-0.999127	-0.007885	0.968312	0.041710	-0.246235
58898	9.511623	-0.071258	-2.429828	-0.005285	0.006417	-0.000730	0.246307	0.002455	0.969189	0.040979	-0.999129	-0.007884	0.968325	0.041658	-0.246193
58899	9.510639	-0.076860	-2.405792	0.004309	0.000280	-0.000854	0.246324	0.002445	0.969184	0.041019	-0.999127	-0.007905	0.968319	0.041702	-0.246210
58900	9.525512	-0.090661	-2.433522	-0.003021	0.001850	-0.004517	0.246325	0.002471	0.969184	0.040997	-0.999128	-0.007872	0.968320	0.041673	-0.246212
58901	9.529760	-0.068775	-2.377780	-0.001821	0.000708	-0.001164	0.246338	0.002464	0.969181	0.040978	-0.999129	-0.007875	0.968317	0.041655	-0.246225
58902	9.539357	-0.109839	-2.437402	0.000667	0.001696	-0.003182	0.246341	0.002477	0.969180	0.040989	-0.999129	-0.007864	0.968316	0.041663	-0.246228
58903	9.517134	-0.042929	-2.397042	0.001955	0.003076	-0.001817	0.246331	0.002476	0.969183	0.041008	-0.999128	-0.007870	0.968318	0.041683	-0.246217
58904	9.530957	-0.062370	-2.400993	-0.000622	0.000316	-0.004548	0.246346	0.002503	0.969179	0.041009	-0.999128	-0.007843	0.968314	0.041678	-0.246234
58905	9.511981	-0.069675	-2.428473	-0.001598	0.006263	0.000604	0.246306	0.002477	0.969189	0.040988	-0.999129	-0.007864	0.968325	0.041662	-0.246193
58906	9.512047	-0.069634	-2.428214	0.000577	-0.000826	-0.001195	0.246334	0.002471	0.969182	0.040993	-0.999128	-0.007872	0.968318	0.041669	-0.246221
58907	9.534346	-0.136234	-2.468318	0.006797	0.001268	-0.002872	0.246341	0.002481	0.969180	0.041062	-0.999126	-0.007879	0.968313	0.041738	-0.246228
58908	9.517412	-0.133436	-2.392851	0.004399	0.002803	-0.002841	0.246333	0.002490	0.969182	0.041108	-0.999124	-0.007881	0.968313	0.041782	-0.246220
58909	9.533417	-0.141533	-2.444082	0.016083	0.003525	-0.007761	0.246316	0.002548	0.969186	0.041279	-0.999117	-0.007864	0.968310	0.041944	-0.246204
58910	9.505909	-0.101927	-2.435636	0.026436	0.000858	-0.006317	0.246326	0.002593	0.969184	0.041546	-0.999105	-0.007887	0.968296	0.042209	-0.246213
58911	9.533553	-0.141374	-2.443559	0.032706	0.004216	-0.008990	0.246302	0.002662	0.969190	0.041881	-0.999091	-0.007899	0.968288	0.042536	-0.246189
58912	9.518780	-0.127213	-2.415419	0.038133	0.001585	-0.011240	0.246302	0.002756	0.969189	0.042274	-0.999075	-0.007902	0.968271	0.042918	-0.246191
58913	9.526319	-0.179836	-2.427358	0.043740	0.003251	-0.010732	0.246287	0.002844	0.969193	0.042720	-0.999056	-0.007924	0.968255	0.043356	-0.246175
58914	9.512642	-0.160085	-2.422826	0.057311	0.004535	-0.015487	0.246256	0.002978	0.969200	0.043309	-0.999030	-0.007934	0.968237	0.043929	-0.246147
58915	9.491478	-0.087736	-2.406145	0.060970	0.003130	-0.013161	0.246241	0.003090	0.969204	0.043928	-0.999003	-0.007975	0.968213	0.044539	-0.246131
58916	9.548905	-0.155357	-2.469468	0.067707	0.002630	-0.020789	0.246227	0.003279	0.969207	0.044631	-0.998972	-0.007959	0.968184	0.045216	-0.246120
58917	9.505430	-0.107185	-2.409610	0.080588	0.000972	-0.021369	0.246228	0.003474	0.969206	0.045460	-0.998934	-0.007969	0.968145	0.046022	-0.246124
58918	9.534173	-0.141017	-2.441160	0.086804	0.001825	-0.022065	0.246221	0.003675	0.969207	0.046351	-0.998893	-0.007987	0.968105	0.046890	-0.246119
58919	9.514328	-0.245591	-2.441084	0.095476	0.002409	-0.023788	0.246207	0.003894	0.969209	0.047329	-0.998847	-0.008010	0.968061	0.047844	-0.246107
58920	9.511915	-0.074013	-2.400832	0.094851	0.001469	-0.027350	0.246200	0.004148	0.969210	0.048311	-0.998800	-0.007997	0.968014	0.048792	-0.246105
58921	9.499668	-0.231176	-2.412492	0.104202	0.003018	-0.025526	0.246179	0.004384	0.969214	0.049379	-0.998748	-0.008025	0.967966	0.049834	-0.246087
58922	9.511008	-0.079388	-2.376450	0.111609	0.002226	-0.028616	0.246164	0.004651	0.969217	0.050525	-0.998690	-0.008041	0.967910	0.050949	-0.246077
58923	9.534364	-0.049867	-2.443489	0.141288	0.002590	-0.031456	0.246143	0.004945	0.969221	0.051966	-0.998616	-0.008102	0.967839	0.052361	-0.246060
58924	9.516040	-0.240310	-2.462312	0.121647	0.003706	-0.034756	0.246110	0.005273	0.969228	0.053225	-0.998550	-0.008083	0.967779	0.053577	-0.246034
58925	9.500978	-0.134678	-2.438357	0.135329	0.004319	-0.032807	0.246071	0.005580	0.969236	0.054612	-0.998475	-0.008117	0.967712	0.054929	-0.246000
58926	9.524230	-0.104383	-2.354784	0.132285	0.003651	-0.035351	0.246037	0.005913	0.969242	0.055975	-0.998399	-0.008118	0.967643	0.056251	-0.245974
58927	9.517228	-0.143924	-2.488703	0.155209	0.002784	-0.035322	0.246011	0.006246	0.969247	0.057560	-0.998309	-0.008176	0.967557	0.057801	-0.245954
58928	9.542966	-0.194300	-2.448181	0.154650	0.001852	-0.038899	0.245991	0.006616	0.969250	0.059148	-0.998216	-0.008198	0.967466	0.059346	-0.245943
58929	9.509163	-0.187958	-2.447762	0.150455	0.002850	-0.039069	0.245960	0.006986	0.969255	0.060695	-0.998123	-0.008208	0.967378	0.060848	-0.245923
58930	9.507656	0.087353	-2.311829	0.171656	0.003963	-0.041230	0.245918	0.007378	0.969263	0.062453	-0.998014	-0.008249	0.967277	0.062562	-0.245890
58931	9.541518	-0.207431	-2.549029	0.191682	0.005514	-0.040021	0.245860	0.007756	0.969274	0.064402	-0.997889	-0.008351	0.967164	0.064476	-0.245840
58932	9.494390	-0.272824	-2.539593	0.133895	-0.000885	-0.041609	0.245862	0.008154	0.969271	0.065795	-0.997799	-0.008295	0.967069	0.065813	-0.245857
58933	9.508968	-0.094664	-2.300446	0.168893	0.003394	-0.043853	0.245821	0.008572	0.969277	0.067532	-0.997683	-0.008304	0.966960	0.067499	-0.245830
58934	9.523196	-0.117042	-2.453989	0.183936	0.003678	-0.045330	0.245775	0.009004	0.969285	0.069418	-0.997553	-0.008336	0.966838	0.069335	-0.245799
58935	9.515523	-0.064034	-2.442570	0.176674	0.005200	-0.049038	0.245711	0.009472	0.969297	0.071243	-0.997424	-0.008313	0.966721	0.071098	-0.245753
58936	9.504343	-0.121847	-2.329879	0.186048	0.002537	-0.049982	0.245672	0.009951	0.969302	0.073160	-0.997286	-0.008304	0.966588	0.072955	-0.245733
58937	9.548696	-0.074865	-2.417481	0.200014	0.005777	-0.050122	0.245600	0.010429	0.969315	0.075213	-0.997133	-0.008329	0.966449	0.074950	-0.245680
58938	9.571798	-0.142773	-2.454565	0.197706	0.006112	-0.049142	0.245524	0.010897	0.969329	0.077240	-0.996978	-0.008357	0.966308	0.076923	-0.245624
58939	9.487014	-0.125250	-2.378959	0.209164	0.007790	-0.052992	0.245429	0.011402	0.969348	0.079387	-0.996809	-0.008375	0.966159	0.079009	-0.245551
58940	9.511348	-0.092385	-2.470332	0.214142	0.001755	-0.056773	0.245387	0.011949	0.969352	0.081591	-0.996631	-0.008369	0.965986	0.081144	-0.245535
58941	9.542443	-0.308807	-2.486602	0.182528	0.003175	-0.056091	0.245331	0.012488	0.969359	0.083488	-0.996474	-0.008292	0.965838	0.082964	-0.245509
58942	9.507202	0.086708	-2.285338	0.186427	0.003153	-0.054812	0.245276	0.013014	0.969366	0.085419	-0.996311	-0.008237	0.965683	0.084823	-0.245483
58943	9.548550	0.017523	-2.421124	0.251812	0.007631	-0.053382	0.245177	0.013522	0.969384	0.087977	-0.996087	-0.008357	0.965478	0.087333	-0.245407
58944	9.536138	-0.155650	-2.528928	0.216843	0.002659	-0.056846	0.245122	0.014069	0.969390	0.090206	-0.995888	-0.008356	0.965286	0.089493	-0.245383
58945	9.489102	-0.119367	-2.398786	0.211636	0.009703	-0.052026	0.245002	0.014561	0.969413	0.092373	-0.995689	-0.008390	0.965112	0.091603	-0.245291
58946	9.586440	-0.166381	-2.427355	0.224217	0.004128	-0.059904	0.244928	0.015137	0.969423	0.094679	-0.995473	-0.008378	0.964907	0.093836	-0.245252
58947	9.462727	-0.170325	-2.382813	0.210788	0.009031	-0.060242	0.244804	0.015711	0.969445	0.096856	-0.995264	-0.008329	0.964723	0.095936	-0.245166
58948	9.535520	-0.057678	-2.382924	0.238556	0.006345	-0.059165	0.244707	0.016276	0.969461	0.099298	-0.995023	-0.008359	0.964499	0.098311	-0.245105
58949	9.526770	-0.016256	-2.499270	0.237556	0.006246	-0.061591	0.244606	0.016866	0.969476	0.101736	-0.994776	-0.008363	0.964271	0.100676	-0.245044
58950	9.538080	-0.251130	-2.490416	0.212527	0.003877	-0.059695	0.244529	0.017439	0.969485	0.103927	-0.994550	-0.008323	0.964056	0.102791	-0.245008
58951	9.557375	-0.133432	-2.368959	0.191902	0.003046	-0.059706	0.244458	0.018013	0.969493	0.105919	-0.994341	-0.008233	0.963858	0.104701	-0.244983
58952	9.448320	0.049688	-2.291594	0.257753	0.005468	-0.056398	0.244367	0.018551	0.969505	0.108537	-0.994057	-0.008337	0.963589	0.107265	-0.244928
58953	9.540946	-0.135046	-2.442750	0.244790	0.005111	-0.060565	0.244273	0.019131	0.969518	0.111040	-0.993781	-0.008367	0.963328	0.109699	-0.244878
58954	9.561022	-0.229394	-2.531410	0.228563	0.003374	-0.060435	0.244194	0.019711	0.969526	0.113385	-0.993516	-0.008360	0.963075	0.111971	-0.244845
58955	9.498461	-0.065705	-2.282999	0.217571	0.007256	-0.067563	0.244068	0.020357	0.969544	0.115641	-0.993257	-0.008256	0.962838	0.114134	-0.244777
58956	9.546236	-0.104618	-2.410550	0.275933	0.003813	-0.061768	0.243981	0.020949	0.969554	0.118444	-0.992926	-0.008351	0.962520	0.116876	-0.244737
58957	9.560347	-0.015971	-2.320674	0.257279	0.004775	-0.062687	0.243882	0.021550	0.969565	0.121069	-0.992609	-0.008392	0.962218	0.119431	-0.244688
58958	9.528214	-0.125961	-2.586427	0.247398	0.003958	-0.063312	0.243788	0.022157	0.969575	0.123600	-0.992297	-0.008402	0.961920	0.121888	-0.244649
58959	9.499426	-0.173781	-2.371843	0.219712	0.004156	-0.062389	0.243692	0.022754	0.969586	0.125861	-0.992013	-0.008353	0.961651	0.124069	-0.244610
58960	9.513420	0.014364	-2.341614	0.260640	0.003655	-0.062933	0.243599	0.023358	0.969595	0.128517	-0.991672	-0.008399	0.961323	0.126655	-0.244572
58961	9.526203	-0.024446	-2.445456	0.254594	0.004033	-0.063292	0.243500	0.023964	0.969605	0.131114	-0.991331	-0.008426	0.960998	0.129181	-0.244531
58962	9.538178	-0.165317	-2.465137	0.284357	0.008036	-0.065223	0.243359	0.024583	0.969625	0.134001	-0.990945	-0.008508	0.960635	0.132001	-0.244449
58963	9.504593	-0.257335	-2.404640	0.236243	0.008672	-0.067427	0.243206	0.025224	0.969647	0.136430	-0.990614	-0.008450	0.960332	0.134344	-0.244365
58964	9.503953	-0.048905	-2.373642	0.259414	0.004870	-0.069037	0.243086	0.025885	0.969659	0.139085	-0.990245	-0.008433	0.959981	0.136915	-0.244315
58965	9.508586	-0.018190	-2.343911	0.257169	0.005240	-0.068089	0.242963	0.026536	0.969673	0.141715	-0.989872	-0.008420	0.959628	0.139463	-0.244262
58966	9.504345	0.065994	-2.307328	0.263878	0.005132	-0.067924	0.242839	0.027185	0.969686	0.144408	-0.989482	-0.008424	0.959258	0.142076	-0.244210
58967	9.571505	-0.177265	-2.411189	0.287838	0.002532	-0.066054	0.242740	0.027819	0.969692	0.147325	-0.989052	-0.008505	0.958839	0.144925	-0.244181
58968	9.479946	-0.111203	-2.528647	0.261273	0.004067	-0.063802	0.242629	0.028428	0.969703	0.149981	-0.988652	-0.008543	0.958456	0.147509	-0.244139
58969	9.525670	-0.260909	-2.520806	0.261003	0.004267	-0.068466	0.242506	0.029082	0.969714	0.152644	-0.988244	-0.008535	0.958066	0.150091	-0.244095
58970	9.590293	-0.069531	-2.443431	0.253677	0.005536	-0.072221	0.242365	0.029772	0.969728	0.155245	-0.987840	-0.008473	0.957684	0.152599	-0.244039
58971	9.423410	-0.094784	-2.181907	0.291325	0.006178	-0.068499	0.242220	0.030423	0.969744	0.158197	-0.987371	-0.008538	0.957237	0.155478	-0.243974
58972	9.587949	0.020532	-2.455698	0.270404	0.005085	-0.068405	0.242085	0.031075	0.969757	0.160946	-0.986926	-0.008553	0.956813	0.158149	-0.243922
58973	9.516875	0.022617	-2.384140	0.279794	0.004789	-0.069312	0.241949	0.031736	0.969770	0.163786	-0.986458	-0.008582	0.956365	0.160912	-0.243871
58974	9.466600	-0.192249	-2.435346	0.288539	0.004173	-0.068000	0.241820	0.032384	0.969781	0.166706	-0.985969	-0.008645	0.955894	0.163759	-0.243825
58975	9.582636	-0.132605	-2.496629	0.261111	0.004410	-0.069192	0.241684	0.033043	0.969792	0.169365	-0.985516	-0.008629	0.955460	0.166334	-0.243779
58976	9.574611	-0.174487	-2.427065	0.284840	0.004445	-0.074086	0.241537	0.033750	0.969804	0.172261	-0.985014	-0.008623	0.954980	0.169142	-0.243732
58977	9.531382	-0.234114	-2.458759	0.267779	0.008987	-0.071245	0.241351	0.034421	0.969827	0.174986	-0.984533	-0.008603	0.954531	0.171782	-0.243641
58978	9.500995	0.037773	-2.331832	0.291500	0.006654	-0.074003	0.241179	0.035123	0.969845	0.177942	-0.984003	-0.008615	0.954028	0.174654	-0.243571
58979	9.509255	-0.039593	-2.437234	0.285325	0.004567	-0.072199	0.241029	0.035810	0.969857	0.180834	-0.983476	-0.008628	0.953522	0.177462	-0.243522
58980	9.539473	-0.054423	-2.338885	0.264095	0.000932	-0.069862	0.240916	0.036480	0.969860	0.183516	-0.982979	-0.008612	0.953038	0.180059	-0.243510
58981	9.544664	-0.020406	-2.335067	0.301005	0.002823	-0.069711	0.240783	0.037145	0.969868	0.186548	-0.982408	-0.008688	0.952483	0.183018	-0.243476
58982	9.521337	-0.185860	-2.400132	0.283888	0.005247	-0.071515	0.240621	0.037823	0.969882	0.189419	-0.981858	-0.008704	0.951957	0.185808	-0.243420
58983	9.582393	-0.138386	-2.441246	0.303977	0.007390	-0.073143	0.240434	0.038512	0.969901	0.192484	-0.981261	-0.008753	0.951389	0.188795	-0.243342
58984	9.495242	-0.262067	-2.479205	0.291329	0.004530	-0.077262	0.240264	0.039247	0.969914	0.195437	-0.980677	-0.008731	0.950830	0.191655	-0.243292
58985	9.558205	0.054402	-2.399616	0.292986	0.003836	-0.073968	0.240105	0.039950	0.969925	0.198396	-0.980083	-0.008745	0.950257	0.194528	-0.243249
58986	9.542684	0.047918	-2.498609	0.305300	0.004618	-0.077090	0.239930	0.040681	0.969937	0.201477	-0.979454	-0.008758	0.949653	0.197521	-0.243197
58987	9.463999	-0.229372	-2.400756	0.275348	0.005756	-0.066832	0.239763	0.041310	0.969952	0.204248	-0.978880	-0.008798	0.949103	0.200220	-0.243137
58988	9.605013	-0.095705	-2.359122	0.289012	0.005954	-0.073338	0.239579	0.042001	0.969968	0.207162	-0.978267	-0.008808	0.948518	0.203050	-0.243073
58989	9.474315	-0.282848	-2.401909	0.282223	0.004970	-0.077149	0.239394	0.042731	0.969982	0.210019	-0.977658	-0.008765	0.947936	0.205813	-0.243020
58990	9.540103	-0.079630	-2.432593	0.297150	0.006486	-0.075634	0.239196	0.043442	0.969999	0.213012	-0.977010	-0.008772	0.947318	0.208719	-0.242950
58991	9.461088	0.007844	-2.282208	0.322691	0.004773	-0.076176	0.239010	0.044161	0.970012	0.216246	-0.976299	-0.008835	0.946632	0.211873	-0.242895
58992	9.575640	-0.083622	-2.454327	0.298033	0.005643	-0.074820	0.238818	0.044865	0.970027	0.219241	-0.975631	-0.008852	0.945991	0.214784	-0.242834
58993	9.468025	0.045591	-2.328016	0.267137	-0.002399	-0.073836	0.238701	0.045577	0.970023	0.221940	-0.975021	-0.008803	0.945391	0.217388	-0.242853
58994	9.607024	-0.092820	-2.379386	0.327382	0.005203	-0.073126	0.238512	0.046264	0.970037	0.225205	-0.974271	-0.008907	0.944667	0.220581	-0.242794
58995	9.531833	-0.270584	-2.440352	0.292216	0.007289	-0.081132	0.238282	0.047024	0.970057	0.228154	-0.973585	-0.008848	0.944017	0.223430	-0.242717
58996	9.550907	-0.105906	-2.307058	0.304617	0.009129	-0.078614	0.238039	0.047754	0.970081	0.231212	-0.972863	-0.008844	0.943334	0.226399	-0.242621
58997	9.550438	-0.135068	-2.405370	0.323659	0.005257	-0.077172	0.237833	0.048479	0.970095	0.234443	-0.972089	-0.008899	0.942588	0.229549	-0.242561
58998	9.537166	0.008652	-2.447315	0.291503	0.004757	-0.079402	0.237625	0.049226	0.970109	0.237375	-0.971378	-0.008854	0.941906	0.232384	-0.242509
58999	9.456629	0.221602	-2.294222	0.299195	0.005008	-0.074785	0.237423	0.049926	0.970123	0.240366	-0.970642	-0.008873	0.941198	0.235291	-0.242453
59000	9.543155	-0.354427	-2.534140	0.319173	0.004976	-0.078964	0.237209	0.050667	0.970137	0.243553	-0.969847	-0.008899	0.940433	0.238390	-0.242396
59001	9.535562	-0.239077	-2.357445	0.289453	0.005186	-0.076511	0.236996	0.051383	0.970151	0.246451	-0.969115	-0.008877	0.939731	0.241199	-0.242340
59002	9.562402	-0.157210	-2.303407	0.303364	0.006489	-0.077427	0.236767	0.052104	0.970168	0.249481	-0.968339	-0.008880	0.938989	0.244141	-0.242270
59003	9.514552	-0.193477	-2.549907	0.302552	0.006250	-0.079895	0.236532	0.052848	0.970185	0.252506	-0.967555	-0.008856	0.938240	0.247072	-0.242202
59004	9.523278	0.182295	-2.366772	0.312393	0.003890	-0.078694	0.236319	0.053586	0.970197	0.255618	-0.966737	-0.008868	0.937450	0.250095	-0.242156
59005	9.492039	0.188513	-2.441365	0.322978	0.005199	-0.076323	0.236098	0.054297	0.970211	0.258821	-0.965884	-0.008928	0.936627	0.253219	-0.242097
59006	9.587239	-0.416187	-2.450833	0.310709	0.004472	-0.077947	0.235877	0.055025	0.970224	0.261910	-0.965051	-0.008943	0.935823	0.256220	-0.242045
59007	9.545712	-0.137565	-2.225596	0.296998	0.005518	-0.077300	0.235646	0.055744	0.970239	0.264867	-0.964244	-0.008930	0.935049	0.259088	-0.241985
59008	9.495479	-0.146342	-2.299952	0.321273	0.010379	-0.078035	0.235365	0.056456	0.970266	0.268049	-0.963363	-0.008969	0.934212	0.262190	-0.241875
59009	9.565474	-0.220094	-2.541300	0.303048	0.003035	-0.082053	0.235140	0.057225	0.970276	0.271068	-0.962519	-0.008924	0.933398	0.265110	-0.241838
59010	9.487990	0.187083	-2.343941	0.319771	0.006478	-0.081859	0.234880	0.057982	0.970293	0.274240	-0.961620	-0.008922	0.932536	0.268189	-0.241766
59011	9.521861	0.148944	-2.440764	0.338460	0.001492	-0.077066	0.234678	0.058706	0.970299	0.277572	-0.960662	-0.009011	0.931601	0.271443	-0.241741
59012	9.550468	-0.446702	-2.417216	0.294728	0.005906	-0.079348	0.234426	0.059439	0.970315	0.280499	-0.959812	-0.008972	0.930787	0.274276	-0.241677
59013	9.593909	-0.069533	-2.315633	0.301039	0.006946	-0.078244	0.234165	0.060158	0.970334	0.283480	-0.958936	-0.008959	0.929950	0.277168	-0.241603
59014	9.495686	-0.178701	-2.367476	0.325814	0.005191	-0.079044	0.233915	0.060888	0.970348	0.286689	-0.957981	-0.008998	0.929028	0.280293	-0.241543
59015	9.532050	-0.217882	-2.511281	0.310329	0.005545	-0.082965	0.233649	0.061655	0.970364	0.289761	-0.957057	-0.008961	0.928141	0.283268	-0.241481
59016	9.463069	0.295679	-2.273379	0.331615	0.002631	-0.081568	0.233411	0.062415	0.970373	0.293024	-0.956063	-0.008989	0.927176	0.286441	-0.241445
59017	9.561820	0.056667	-2.413563	0.330955	0.004723	-0.079524	0.233158	0.063149	0.970386	0.296273	-0.955061	-0.009035	0.926207	0.289606	-0.241389
59018	9.569384	-0.466148	-2.429446	0.293898	0.002244	-0.076923	0.232932	0.063864	0.970394	0.299169	-0.954157	-0.009017	0.925332	0.292412	-0.241360
59019	9.522262	-0.093416	-2.314256	0.301443	0.007073	-0.081596	0.232646	0.064610	0.970413	0.302143	-0.953220	-0.008971	0.924438	0.295291	-0.241284
59020	9.517396	-0.163254	-2.385327	0.333338	0.006755	-0.078937	0.232369	0.065329	0.970431	0.305403	-0.952180	-0.009028	0.923436	0.298471	-0.241209
59021	9.569104	-0.187635	-2.430241	0.313233	0.007712	-0.082915	0.232067	0.066083	0.970452	0.308483	-0.951187	-0.008997	0.922487	0.301456	-0.241125
59022	9.425143	0.266967	-2.300999	0.324827	0.007225	-0.080618	0.231776	0.066816	0.970472	0.311661	-0.950151	-0.009017	0.921492	0.304548	-0.241046
59023	9.557519	-0.014138	-2.482472	0.336371	0.006730	-0.078340	0.231493	0.067527	0.970490	0.314937	-0.949069	-0.009086	0.920449	0.307746	-0.240969
59024	9.525205	-0.444846	-2.468490	0.299706	0.004154	-0.082457	0.231218	0.068285	0.970503	0.317881	-0.948088	-0.009026	0.919505	0.310592	-0.240922
59025	9.520531	-0.089029	-2.235606	0.315862	0.006513	-0.076738	0.230938	0.068980	0.970520	0.320958	-0.947050	-0.009061	0.918506	0.313588	-0.240850
59026	9.606527	-0.117538	-2.278853	0.330110	0.005689	-0.080135	0.230652	0.069709	0.970536	0.324169	-0.945955	-0.009097	0.917450	0.316716	-0.240784
59027	9.491089	-0.127411	-2.428961	0.321418	0.009506	-0.080561	0.230327	0.070429	0.970561	0.327298	-0.944877	-0.009107	0.916420	0.319761	-0.240682
59028	9.498237	0.098493	-2.413852	0.313832	0.002210	-0.082918	0.230059	0.071193	0.970569	0.330360	-0.943811	-0.009077	0.915388	0.322725	-0.240652
59029	9.525868	0.024848	-2.433568	0.342609	0.002058	-0.081603	0.229795	0.071945	0.970576	0.333678	-0.942643	-0.009128	0.914250	0.325958	-0.240621
59030	9.582122	-0.396776	-2.383893	0.321966	0.005207	-0.078732	0.229508	0.072658	0.970591	0.336797	-0.941533	-0.009157	0.913178	0.328994	-0.240560
59031	9.539615	-0.069749	-2.206744	0.299593	0.004195	-0.079139	0.229227	0.073378	0.970603	0.339709	-0.940486	-0.009128	0.912169	0.331815	-0.240512
59032	9.530198	-0.097490	-2.424937	0.326127	0.008967	-0.079201	0.228900	0.074081	0.970627	0.342860	-0.939342	-0.009162	0.911072	0.334887	-0.240415
59033	9.531993	-0.139680	-2.543557	0.331622	0.007342	-0.082717	0.228573	0.074822	0.970647	0.346065	-0.938166	-0.009175	0.909941	0.338004	-0.240333
59034	9.431519	-0.052465	-2.430163	0.304720	0.005799	-0.084265	0.228253	0.075581	0.970664	0.349025	-0.937069	-0.009108	0.908891	0.340865	-0.240268
59035	9.614675	0.152148	-2.190645	0.343726	0.008247	-0.081898	0.227916	0.076309	0.970686	0.352331	-0.935831	-0.009158	0.907699	0.344089	-0.240177
59036	9.591177	-0.325936	-2.352891	0.339421	0.002244	-0.079606	0.227639	0.077035	0.970694	0.355587	-0.934598	-0.009219	0.906498	0.347265	-0.240143
59037	9.488765	-0.161107	-2.392950	0.284811	0.005758	-0.080414	0.227325	0.077756	0.970710	0.358347	-0.933544	-0.009141	0.905489	0.349929	-0.240081
59038	9.514092	-0.075054	-2.373022	0.336239	0.006794	-0.081378	0.226996	0.078480	0.970729	0.361571	-0.932300	-0.009177	0.904290	0.353070	-0.240004
59039	9.521726	-0.089328	-2.542452	0.339106	0.003232	-0.081400	0.226696	0.079217	0.970739	0.364816	-0.931034	-0.009219	0.903060	0.356231	-0.239961
59040	9.502789	-0.175644	-2.339034	0.299852	0.005163	-0.084257	0.226366	0.079972	0.970754	0.367710	-0.929896	-0.009139	0.901969	0.359024	-0.239903
59041	9.597044	0.179845	-2.144426	0.330064	0.006882	-0.082045	0.226026	0.080699	0.970773	0.370867	-0.928641	-0.009153	0.900761	0.362096	-0.239826
59042	9.565035	-0.250500	-2.327180	0.349252	0.003602	-0.078534	0.225727	0.081404	0.970784	0.374184	-0.927308	-0.009247	0.899463	0.365339	-0.239779
59043	9.506357	-0.264716	-2.548244	0.296555	0.003088	-0.078987	0.225428	0.082115	0.970793	0.377024	-0.926158	-0.009210	0.898351	0.368089	-0.239741
59044	9.486778	0.040535	-2.283080	0.331647	0.009707	-0.082820	0.225053	0.082835	0.970819	0.380185	-0.924865	-0.009219	0.897113	0.371165	-0.239636
59045	9.564229	0.014564	-2.472933	0.333282	0.004628	-0.081582	0.224725	0.083562	0.970833	0.383352	-0.923556	-0.009244	0.895846	0.374249	-0.239580
59046	9.530730	-0.327316	-2.438198	0.310054	0.004104	-0.085282	0.224386	0.084324	0.970845	0.386316	-0.922321	-0.009178	0.894657	0.377113	-0.239531
59047	9.498235	0.033820	-2.182016	0.311960	0.009774	-0.078917	0.224018	0.085004	0.970871	0.389279	-0.921074	-0.009178	0.893464	0.379995	-0.239427
59048	9.631260	-0.094268	-2.284076	0.353110	0.004866	-0.082153	0.223679	0.085732	0.970885	0.392611	-0.919658	-0.009244	0.892090	0.383248	-0.239367
59049	9.475322	-0.225004	-2.496847	0.318380	0.003041	-0.076581	0.223375	0.086414	0.970894	0.395617	-0.918369	-0.009281	0.890837	0.386176	-0.239328
59050	9.569379	0.023305	-2.225442	0.312577	0.006285	-0.082744	0.223017	0.087140	0.970912	0.398581	-0.917087	-0.009245	0.889605	0.389049	-0.239258
59051	9.494241	-0.017850	-2.493896	0.342863	0.010312	-0.083188	0.222618	0.087852	0.970939	0.401811	-0.915676	-0.009276	0.888251	0.392199	-0.239146
59052	9.552033	-0.312849	-2.429199	0.329074	0.004102	-0.084133	0.222268	0.088596	0.970952	0.404915	-0.914307	-0.009264	0.886928	0.395212	-0.239095
59053	9.481909	-0.129881	-2.134025	0.288039	0.005466	-0.082119	0.221911	0.089316	0.970968	0.407647	-0.913094	-0.009174	0.885765	0.397848	-0.239035
59054	9.674304	0.159778	-2.334649	0.347444	0.003127	-0.078717	0.221587	0.090012	0.970977	0.410893	-0.911637	-0.009259	0.884345	0.401020	-0.238992
59055	9.471702	-0.210744	-2.368269	0.328677	0.008658	-0.082782	0.221195	0.090722	0.971001	0.413977	-0.910240	-0.009259	0.883004	0.404020	-0.238897
59056	9.543060	-0.077624	-2.505242	0.288697	0.004384	-0.083736	0.220834	0.091457	0.971014	0.416706	-0.908995	-0.009155	0.881809	0.406649	-0.238848
59057	9.457139	-0.106353	-2.257719	0.338757	0.005784	-0.078378	0.220481	0.092136	0.971030	0.419861	-0.907542	-0.009221	0.880400	0.409730	-0.238780
59058	9.637077	-0.144708	-2.415685	0.357307	0.006316	-0.084460	0.220096	0.092867	0.971048	0.423186	-0.905995	-0.009273	0.878903	0.412975	-0.238706
59059	9.525404	-0.251575	-2.132505	0.279151	0.003102	-0.084157	0.219737	0.093607	0.971058	0.425820	-0.904762	-0.009141	0.877720	0.415504	-0.238670
59060	9.529082	0.067302	-2.351820	0.334614	0.007786	-0.078012	0.219362	0.094271	0.971078	0.428922	-0.903295	-0.009200	0.876303	0.418535	-0.238583
59061	9.539994	-0.109529	-2.472088	0.330975	0.006056	-0.082678	0.218979	0.094983	0.971096	0.431998	-0.901828	-0.009206	0.874886	0.421527	-0.238514
59062	9.490673	-0.134066	-2.543943	0.310216	0.005542	-0.080432	0.218608	0.095676	0.971111	0.434882	-0.900441	-0.009183	0.873549	0.424326	-0.238451
59063	9.502160	-0.147202	-2.169203	0.330761	0.003652	-0.082881	0.218240	0.096398	0.971122	0.437947	-0.898954	-0.009186	0.872109	0.427305	-0.238405
59064	9.596418	0.024402	-2.365085	0.352935	0.006097	-0.082301	0.217851	0.097102	0.971140	0.441198	-0.897362	-0.009246	0.870566	0.430479	-0.238333
59065	9.568153	-0.315071	-2.309395	0.300716	0.003031	-0.081903	0.217488	0.097815	0.971149	0.443989	-0.895985	-0.009186	0.869237	0.433177	-0.238295
59066	9.510432	0.010198	-2.390800	0.312784	0.006595	-0.079037	0.217105	0.098486	0.971167	0.446874	-0.894550	-0.009183	0.867853	0.435983	-0.238222
59067	9.522406	-0.037894	-2.356578	0.327546	0.005104	-0.079206	0.216732	0.099164	0.971182	0.449882	-0.893040	-0.009212	0.866391	0.438914	-0.238162
59068	9.501248	-0.218832	-2.498657	0.310541	0.007793	-0.081841	0.216321	0.099851	0.971203	0.452744	-0.891593	-0.009176	0.865001	0.441692	-0.238078
59069	9.557716	-0.133505	-2.186980	0.321426	0.006734	-0.086649	0.215896	0.100585	0.971222	0.455706	-0.890084	-0.009118	0.863551	0.444560	-0.238003
59070	9.489566	0.093334	-2.230706	0.351769	0.006844	-0.082531	0.215486	0.101281	0.971241	0.458916	-0.888432	-0.009172	0.861953	0.447694	-0.237924
59071	9.661419	-0.314896	-2.369429	0.312466	0.005094	-0.081044	0.215095	0.101970	0.971255	0.461778	-0.886948	-0.009147	0.860520	0.450472	-0.237865
59072	9.438689	-0.014018	-2.361408	0.315046	0.007044	-0.082622	0.214678	0.102662	0.971274	0.464661	-0.885442	-0.009113	0.859071	0.453269	-0.237788
59073	9.584007	0.035241	-2.412901	0.324903	0.003464	-0.074456	0.214327	0.103298	0.971284	0.467606	-0.883889	-0.009181	0.857560	0.456146	-0.237744
59074	9.532475	-0.290307	-2.475622	0.310246	0.009544	-0.085554	0.213871	0.104002	0.971310	0.470444	-0.882383	-0.009106	0.856120	0.458894	-0.237643
59075	9.511183	-0.161572	-2.276424	0.322560	0.005142	-0.083108	0.213461	0.104704	0.971325	0.473377	-0.880813	-0.009084	0.854604	0.461742	-0.237583
59076	9.599354	0.152865	-2.259956	0.342158	0.003429	-0.081062	0.213073	0.105394	0.971335	0.476468	-0.879145	-0.009128	0.852982	0.464755	-0.237539
59077	9.522583	-0.246761	-2.256252	0.322851	0.006956	-0.077952	0.212668	0.106039	0.971354	0.479382	-0.877559	-0.009156	0.851449	0.467597	-0.237461
59078	9.520714	0.019446	-2.510494	0.306225	0.005868	-0.083603	0.212242	0.106737	0.971370	0.482161	-0.876035	-0.009090	0.849985	0.470286	-0.237396
59079	9.567539	-0.029127	-2.472171	0.318809	0.007446	-0.080673	0.211815	0.107401	0.971390	0.485036	-0.874447	-0.009082	0.848454	0.473083	-0.237314
59080	9.455006	-0.372644	-2.378024	0.309736	0.006085	-0.082905	0.211387	0.108089	0.971407	0.487834	-0.872890	-0.009030	0.846955	0.475794	-0.237247
59081	9.544667	-0.150217	-2.220148	0.319888	0.005234	-0.083155	0.210962	0.108782	0.971422	0.490713	-0.871275	-0.009000	0.845397	0.478588	-0.237187
59082	9.595676	0.172262	-2.187977	0.339200	0.007311	-0.078111	0.210543	0.109420	0.971442	0.493739	-0.869563	-0.009064	0.843738	0.481547	-0.237105
59083	9.544305	-0.233021	-2.274170	0.325023	0.008611	-0.080586	0.210097	0.110072	0.971464	0.496645	-0.867906	-0.009070	0.842142	0.484379	-0.237012
59084	9.562113	0.033027	-2.583782	0.308287	0.002372	-0.079751	0.209707	0.110745	0.971472	0.499403	-0.866323	-0.009045	0.840607	0.487053	-0.236980
59085	9.473047	-0.093033	-2.383225	0.313158	0.008005	-0.077241	0.209279	0.111368	0.971493	0.502191	-0.864709	-0.009055	0.839051	0.489771	-0.236894
59086	9.548097	-0.287602	-2.357419	0.321372	0.005582	-0.084256	0.208835	0.112062	0.971509	0.505058	-0.863038	-0.009017	0.837439	0.492552	-0.236830
59087	9.575788	-0.170689	-2.156225	0.311875	0.003308	-0.082837	0.208414	0.112754	0.971519	0.507837	-0.861407	-0.008969	0.835862	0.495243	-0.236790
59088	9.507177	0.170041	-2.166015	0.326739	0.006105	-0.077864	0.207994	0.113387	0.971536	0.510724	-0.859698	-0.009005	0.834206	0.498060	-0.236721
59089	9.540881	-0.174995	-2.406525	0.328836	0.004559	-0.077918	0.207583	0.114027	0.971549	0.513623	-0.857968	-0.009045	0.832527	0.500887	-0.236667
59090	9.610730	0.022069	-2.526415	0.314750	0.007132	-0.079356	0.207142	0.114665	0.971568	0.516402	-0.856298	-0.009038	0.830916	0.503592	-0.236589
59091	9.467405	-0.148040	-2.314330	0.310762	0.005610	-0.079271	0.206712	0.115309	0.971583	0.519143	-0.854640	-0.009021	0.829314	0.506255	-0.236526
59092	9.590198	-0.227497	-2.386957	0.318756	0.006943	-0.083312	0.206247	0.115979	0.971602	0.521952	-0.852927	-0.008985	0.827664	0.508983	-0.236450
59093	9.475966	-0.212987	-2.218950	0.302085	0.004589	-0.079339	0.205821	0.116626	0.971615	0.524610	-0.851295	-0.008946	0.826088	0.511561	-0.236398
59094	9.577262	0.165014	-2.184896	0.322396	0.005588	-0.077786	0.205392	0.117253	0.971630	0.527428	-0.849553	-0.008972	0.824399	0.514307	-0.236334
59095	9.595830	-0.206515	-2.439076	0.329847	0.006042	-0.078231	0.204956	0.117880	0.971647	0.530301	-0.847761	-0.009010	0.822663	0.517112	-0.236265
59096	9.518474	0.078430	-2.392433	0.302602	0.007255	-0.077988	0.204508	0.118497	0.971666	0.532945	-0.846102	-0.008985	0.821064	0.519682	-0.236187
59097	9.520263	-0.211563	-2.338265	0.309715	0.004324	-0.076757	0.204090	0.119118	0.971678	0.535639	-0.844400	-0.008990	0.819414	0.522303	-0.236137
59098	9.611644	-0.217507	-2.406180	0.323514	0.007137	-0.085871	0.203597	0.119799	0.971698	0.538458	-0.842605	-0.008938	0.817686	0.525039	-0.236059
59099	9.463071	-0.285108	-2.292990	0.301589	0.004134	-0.080427	0.203156	0.120449	0.971710	0.541082	-0.840923	-0.008887	0.816062	0.527580	-0.236011
59100	9.557417	0.246421	-2.105982	0.321705	0.006421	-0.077962	0.202708	0.121065	0.971727	0.543860	-0.839129	-0.008907	0.814325	0.530289	-0.235940
59101	9.583772	-0.116445	-2.433059	0.329842	0.004853	-0.078150	0.202269	0.121689	0.971740	0.546698	-0.837282	-0.008945	0.812532	0.533058	-0.235883
59102	9.522080	-0.021643	-2.488820	0.298052	0.005984	-0.074194	0.201841	0.122272	0.971756	0.549264	-0.835601	-0.008945	0.810906	0.535556	-0.235818
59103	9.541156	-0.241047	-2.371733	0.300353	0.009356	-0.080805	0.201347	0.122892	0.971780	0.551857	-0.833891	-0.008887	0.809267	0.538073	-0.235720
59104	9.558639	-0.177748	-2.336956	0.319581	0.003783	-0.081827	0.200891	0.123548	0.971792	0.554602	-0.832069	-0.008864	0.807502	0.540738	-0.235675
59105	9.495499	-0.263411	-2.211687	0.306255	0.009553	-0.079059	0.200401	0.124149	0.971816	0.557228	-0.830313	-0.008836	0.805814	0.543293	-0.235575
59106	9.648223	0.244521	-2.175812	0.327808	0.005219	-0.078011	0.199950	0.124762	0.971830	0.560019	-0.828432	-0.008869	0.803989	0.546017	-0.235515
59107	9.514049	-0.227954	-2.448631	0.317889	0.003727	-0.077704	0.199511	0.125380	0.971841	0.562724	-0.826597	-0.008881	0.802208	0.548650	-0.235470
59108	9.537220	0.054592	-2.405605	0.304728	0.006912	-0.076867	0.199049	0.125972	0.971859	0.565316	-0.824827	-0.008870	0.800498	0.551173	-0.235395
59109	9.525135	-0.256334	-2.359731	0.307258	0.007444	-0.079568	0.198566	0.126582	0.971879	0.567928	-0.823031	-0.008839	0.798767	0.553712	-0.235316
59110	9.506694	-0.143843	-2.292251	0.308646	0.007920	-0.079887	0.198075	0.127191	0.971900	0.570546	-0.821218	-0.008807	0.797022	0.556258	-0.235231
59111	9.530542	-0.253459	-2.177606	0.300286	0.002444	-0.078912	0.197631	0.127820	0.971907	0.573090	-0.819446	-0.008765	0.795305	0.558722	-0.235201
59112	9.631210	0.225764	-2.196409	0.325037	0.003353	-0.075344	0.197199	0.128414	0.971917	0.575817	-0.817531	-0.008816	0.793440	0.561385	-0.235159
59113	9.550364	-0.229685	-2.438772	0.317727	0.006618	-0.080580	0.196709	0.129030	0.971935	0.578491	-0.815641	-0.008799	0.791615	0.563986	-0.235087
59114	9.509243	0.065311	-2.486125	0.301125	0.002434	-0.073652	0.196290	0.129613	0.971942	0.581014	-0.813846	-0.008810	0.789869	0.566441	-0.235056
59115	9.669241	-0.241381	-2.399292	0.295499	0.008998	-0.077143	0.195797	0.130185	0.971965	0.583493	-0.812070	-0.008773	0.788162	0.568853	-0.234962
59116	9.367412	-0.163791	-2.262301	0.302172	0.010127	-0.078927	0.195283	0.130763	0.971991	0.586024	-0.810247	-0.008734	0.786410	0.571315	-0.234857
59117	9.599857	-0.242982	-2.141590	0.313433	0.005199	-0.078636	0.194807	0.131366	0.972005	0.588636	-0.808351	-0.008725	0.784575	0.573857	-0.234799
59118	9.545638	0.207372	-2.220766	0.325656	0.002913	-0.078861	0.194346	0.131982	0.972014	0.591338	-0.806376	-0.008742	0.782655	0.576488	-0.234762
59119	9.580801	-0.239546	-2.348415	0.303929	0.004191	-0.076188	0.193889	0.132568	0.972025	0.593859	-0.804522	-0.008733	0.780858	0.578939	-0.234715
59120	9.488934	0.063773	-2.433380	0.302732	0.008663	-0.074797	0.193404	0.133115	0.972047	0.596362	-0.802668	-0.008735	0.779068	0.581381	-0.234624
59121	9.608222	-0.190581	-2.464766	0.295877	0.007886	-0.076954	0.192909	0.133683	0.972067	0.598810	-0.800844	-0.008700	0.777311	0.583762	-0.234541
59122	9.473856	-0.171904	-2.271203	0.301396	0.008991	-0.076369	0.192409	0.134238	0.972090	0.601294	-0.798981	-0.008683	0.775515	0.586183	-0.234447
59123	9.627275	-0.263289	-2.252854	0.315558	0.002043	-0.080514	0.191935	0.134865	0.972097	0.603890	-0.797021	-0.008659	0.773613	0.588702	-0.234420
59124	9.574227	0.161867	-2.149451	0.323289	0.005764	-0.077000	0.191452	0.135441	0.972112	0.606533	-0.795011	-0.008687	0.771664	0.591281	-0.234355
59125	9.554002	-0.189812	-2.412289	0.284186	0.004597	-0.075490	0.190985	0.136010	0.972125	0.608864	-0.793227	-0.008638	0.769941	0.593542	-0.234306
59126	9.453251	0.112713	-2.399771	0.310336	0.006194	-0.072266	0.190523	0.136542	0.972140	0.611386	-0.791285	-0.008681	0.768055	0.596007	-0.234238
59127	9.535521	-0.238367	-2.393189	0.284491	0.008233	-0.075384	0.190026	0.137086	0.972161	0.613709	-0.789485	-0.008633	0.766324	0.598264	-0.234153
59128	9.580314	-0.179565	-2.280011	0.300022	0.008586	-0.075067	0.189526	0.137624	0.972183	0.616144	-0.787586	-0.008625	0.764491	0.600640	-0.234064
59129	9.468630	-0.207972	-2.170847	0.308557	0.004949	-0.080804	0.189016	0.138227	0.972197	0.618650	-0.785620	-0.008580	0.762591	0.603072	-0.234009
59130	9.685162	0.007904	-2.263759	0.322675	0.000663	-0.077191	0.188560	0.138825	0.972200	0.621251	-0.783565	-0.008604	0.760587	0.605602	-0.233994
59131	9.344528	-0.047677	-2.344282	0.276373	0.006295	-0.074238	0.188078	0.139366	0.972216	0.623487	-0.781787	-0.008547	0.758875	0.607772	-0.233929
59132	9.607824	-0.018804	-2.388896	0.314196	0.005089	-0.073388	0.187608	0.139905	0.972229	0.626003	-0.779773	-0.008587	0.756917	0.610230	-0.233873
59133	9.538567	-0.091791	-2.390660	0.289037	0.009156	-0.073347	0.187106	0.140418	0.972252	0.628323	-0.777905	-0.008569	0.755117	0.612491	-0.233779
59134	9.563635	-0.151988	-2.258347	0.300150	0.010105	-0.078942	0.186560	0.140967	0.972278	0.630731	-0.775955	-0.008522	0.753242	0.614835	-0.233674
59135	9.548405	-0.217501	-2.284424	0.303674	0.005929	-0.077244	0.186055	0.141527	0.972293	0.633157	-0.773977	-0.008499	0.751330	0.617195	-0.233611
59136	9.540918	-0.098246	-2.173578	0.300636	0.003817	-0.075683	0.185573	0.142086	0.972304	0.635550	-0.772013	-0.008484	0.749425	0.619522	-0.233568
59137	9.601843	0.132983	-2.288956	0.300256	0.004989	-0.074919	0.185086	0.142630	0.972317	0.637933	-0.770045	-0.008475	0.747519	0.621842	-0.233514
59138	9.505901	-0.132667	-2.398293	0.303648	0.003524	-0.071396	0.184631	0.143155	0.972326	0.640329	-0.768053	-0.008509	0.745580	0.624180	-0.233473
59139	9.538168	-0.082247	-2.363147	0.284587	0.004849	-0.073377	0.184152	0.143686	0.972339	0.642581	-0.766171	-0.008479	0.743759	0.626368	-0.233422
59140	9.638938	-0.177397	-2.314776	0.302250	0.011000	-0.078065	0.183595	0.144212	0.972366	0.644967	-0.764164	-0.008444	0.741829	0.628694	-0.233309
59141	9.536753	-0.218477	-2.330068	0.287316	0.007150	-0.073167	0.183096	0.144724	0.972384	0.647227	-0.762251	-0.008421	0.739982	0.630895	-0.233235
59142	9.571494	-0.065544	-2.098735	0.306271	0.003314	-0.076978	0.182600	0.145287	0.972393	0.649628	-0.760206	-0.008406	0.737998	0.633229	-0.233197
59143	9.547364	0.023706	-2.244518	0.308973	0.002500	-0.074752	0.182123	0.145837	0.972401	0.652038	-0.758139	-0.008418	0.735987	0.635576	-0.233166
59144	9.565281	-0.114000	-2.476521	0.289518	0.004643	-0.072107	0.181645	0.146352	0.972412	0.654295	-0.756193	-0.008411	0.734100	0.637772	-0.233116
59145	9.541002	-0.091304	-2.380943	0.293394	0.002396	-0.073171	0.181175	0.146888	0.972419	0.656576	-0.754213	-0.008402	0.732178	0.639989	-0.233088
59146	9.480102	-0.235975	-2.240889	0.279629	0.011616	-0.075933	0.180619	0.147384	0.972448	0.658755	-0.752311	-0.008334	0.730355	0.642110	-0.232971
59147	9.564094	-0.094325	-2.214789	0.289945	0.008662	-0.075954	0.180081	0.147898	0.972469	0.661004	-0.750337	-0.008290	0.728454	0.644299	-0.232883
59148	9.598740	-0.093389	-2.211344	0.304985	0.004351	-0.074725	0.179583	0.148428	0.972481	0.663354	-0.748260	-0.008292	0.726438	0.646588	-0.232835
59149	9.539469	-0.111919	-2.340932	0.294921	0.003611	-0.075439	0.179082	0.148968	0.972491	0.665626	-0.746240	-0.008264	0.724480	0.648795	-0.232795
59150	9.531902	0.074548	-2.264024	0.277079	0.001840	-0.071915	0.178617	0.149491	0.972496	0.667757	-0.744334	-0.008228	0.722632	0.650860	-0.232774
59151	9.580829	-0.078559	-2.432205	0.301297	0.004689	-0.071614	0.178132	0.149991	0.972508	0.670056	-0.742265	-0.008252	0.720621	0.653104	-0.232723
59152	9.506671	-0.153213	-2.349149	0.273731	0.006713	-0.075618	0.177603	0.150507	0.972525	0.672158	-0.740363	-0.008172	0.718792	0.655141	-0.232656
59153	9.585636	-0.126326	-2.245927	0.296176	0.010300	-0.074228	0.177057	0.150988	0.972550	0.674412	-0.738310	-0.008158	0.716812	0.657344	-0.232551
59154	9.567803	-0.173061	-2.224138	0.285856	0.007721	-0.072062	0.176543	0.151467	0.972569	0.676583	-0.736321	-0.008141	0.714890	0.659461	-0.232472
59155	9.582537	-0.000357	-2.221572	0.292506	0.004570	-0.076639	0.176018	0.152000	0.972581	0.678804	-0.734275	-0.008094	0.712912	0.661616	-0.232424
59156	9.498053	-0.027508	-2.242299	0.309320	0.001184	-0.069747	0.175563	0.152503	0.972584	0.681126	-0.732121	-0.008153	0.710806	0.663884	-0.232407
59157	9.690714	-0.108292	-2.485875	0.267138	0.002139	-0.072657	0.175079	0.153020	0.972590	0.683147	-0.730237	-0.008086	0.708984	0.665837	-0.232384
59158	9.455417	-0.095807	-2.347696	0.283794	0.005827	-0.071040	0.174580	0.153498	0.972605	0.685277	-0.728238	-0.008073	0.707048	0.667913	-0.232324
59159	9.621634	-0.226556	-2.215151	0.280400	0.009004	-0.071804	0.174051	0.153960	0.972627	0.687380	-0.726254	-0.008045	0.705135	0.669964	-0.232234
59160	9.563786	-0.002547	-2.191085	0.274912	0.008010	-0.076224	0.173497	0.154459	0.972647	0.689445	-0.724294	-0.007961	0.703253	0.671968	-0.232154
59161	9.519474	-0.061527	-2.274034	0.306967	0.006505	-0.068243	0.173007	0.154908	0.972662	0.691716	-0.722125	-0.008028	0.701140	0.674195	-0.232086
59162	9.535337	-0.169384	-2.218588	0.281489	0.004978	-0.075011	0.172481	0.155416	0.972675	0.693814	-0.720110	-0.007971	0.699194	0.676230	-0.232034
59163	9.594389	0.073511	-2.388189	0.288683	-0.000270	-0.069482	0.172027	0.155917	0.972675	0.695946	-0.718049	-0.007984	0.697184	0.678303	-0.232034
59164	9.511026	-0.192980	-2.343937	0.277163	0.005755	-0.069310	0.171531	0.156375	0.972689	0.697992	-0.716061	-0.007971	0.695258	0.680297	-0.231975
59165	9.594550	-0.091669	-2.331713	0.279461	0.008822	-0.070396	0.171005	0.156818	0.972710	0.700051	-0.714049	-0.007953	0.693315	0.682306	-0.231887
59166	9.590315	-0.130957	-2.256053	0.284951	0.007159	-0.071675	0.170481	0.157281	0.972728	0.702143	-0.711992	-0.007936	0.691326	0.684347	-0.231815
59167	9.552025	-0.139863	-2.198471	0.269362	0.007963	-0.071127	0.169953	0.157732	0.972747	0.704121	-0.710036	-0.007887	0.689441	0.686272	-0.231736
59168	9.568948	0.010526	-2.245645	0.291520	0.004165	-0.070444	0.169455	0.158203	0.972757	0.706245	-0.707924	-0.007896	0.687389	0.688343	-0.231692
59169	9.543043	-0.168816	-2.292404	0.289027	0.002562	-0.072474	0.168953	0.158699	0.972764	0.708349	-0.705819	-0.007879	0.685345	0.690387	-0.231664
59170	9.506019	-0.024433	-2.314924	0.268496	0.002913	-0.070283	0.168462	0.159174	0.972771	0.710302	-0.703853	-0.007837	0.683441	0.692282	-0.231634
59171	9.616670	-0.127641	-2.360779	0.283847	0.008190	-0.065547	0.167967	0.159579	0.972791	0.712347	-0.701784	-0.007875	0.681432	0.694287	-0.231552
59172	9.509353	-0.169108	-2.291979	0.257505	0.008234	-0.068920	0.167447	0.160005	0.972810	0.714212	-0.699886	-0.007820	0.679605	0.696102	-0.231471
59173	9.567572	0.024129	-2.221681	0.288784	0.007308	-0.072002	0.166910	0.160458	0.972828	0.716289	-0.697760	-0.007806	0.677548	0.698129	-0.231397
59174	9.624368	-0.145055	-2.208351	0.276394	0.004802	-0.070730	0.166397	0.160918	0.972840	0.718275	-0.695716	-0.007777	0.675569	0.700060	-0.231349
59175	9.483261	-0.065183	-2.207766	0.272028	0.000829	-0.069551	0.165919	0.161397	0.972842	0.720223	-0.693700	-0.007748	0.673610	0.701948	-0.231339
59176	9.613764	-0.103578	-2.313739	0.293157	0.001784	-0.067712	0.165446	0.161854	0.972847	0.722304	-0.691532	-0.007787	0.671494	0.703979	-0.231319
59177	9.543346	-0.033703	-2.329954	0.263428	0.004804	-0.068003	0.164949	0.162291	0.972858	0.724180	-0.689568	-0.007753	0.669593	0.705803	-0.231272
59178	9.532040	-0.144952	-2.352928	0.277597	0.007029	-0.068488	0.164433	0.162714	0.972875	0.726146	-0.687497	-0.007748	0.667588	0.707723	-0.231202
59179	9.560576	-0.168409	-2.251782	0.251097	0.012706	-0.068479	0.163878	0.163095	0.972905	0.727930	-0.685609	-0.007680	0.665779	0.709465	-0.231078
59180	9.510727	0.106515	-2.183723	0.276206	0.005565	-0.067098	0.163380	0.163516	0.972918	0.729873	-0.683539	-0.007685	0.663771	0.711362	-0.231023
59181	9.645060	-0.197587	-2.196557	0.284806	0.006494	-0.068105	0.162866	0.163936	0.972933	0.731869	-0.681402	-0.007699	0.661696	0.713314	-0.230957
59182	9.509779	-0.124282	-2.277825	0.268109	0.001101	-0.070504	0.162370	0.164410	0.972937	0.733753	-0.679373	-0.007651	0.659729	0.715137	-0.230946
59183	9.638530	-0.121941	-2.378660	0.279575	0.002941	-0.068323	0.161876	0.164854	0.972944	0.735703	-0.677262	-0.007650	0.657676	0.717036	-0.230915
59184	9.561646	-0.016594	-2.332754	0.259215	0.004816	-0.065207	0.161392	0.165261	0.972955	0.737508	-0.675296	-0.007634	0.655771	0.718794	-0.230869
59185	9.499224	-0.115620	-2.366142	0.269506	0.004944	-0.067322	0.160889	0.165682	0.972967	0.739378	-0.673247	-0.007619	0.653785	0.720616	-0.230820
59186	9.542945	-0.168950	-2.216670	0.248802	0.009103	-0.068458	0.160351	0.166078	0.972988	0.741110	-0.671341	-0.007547	0.651954	0.722301	-0.230732
59187	9.562607	0.098129	-2.169995	0.276629	0.005412	-0.071916	0.159809	0.166523	0.973001	0.743023	-0.669223	-0.007504	0.649906	0.724162	-0.230678
59188	9.612352	-0.194262	-2.192066	0.276635	0.005845	-0.066129	0.159307	0.166924	0.973015	0.744921	-0.667110	-0.007517	0.647853	0.726017	-0.230620
59189	9.442337	-0.124760	-2.277327	0.263343	0.000249	-0.069822	0.158812	0.167389	0.973016	0.746733	-0.665082	-0.007464	0.645885	0.727769	-0.230618
59190	9.665843	-0.069223	-2.286977	0.276362	0.002707	-0.067974	0.158314	0.167823	0.973022	0.748621	-0.662956	-0.007459	0.643820	0.729606	-0.230591
59191	9.553511	-0.020619	-2.440838	0.257961	0.000980	-0.067537	0.157828	0.168265	0.973025	0.750383	-0.660961	-0.007415	0.641884	0.731312	-0.230582
59192	9.515662	-0.115822	-2.330036	0.266109	0.009009	-0.064554	0.157313	0.168627	0.973045	0.752188	-0.658907	-0.007420	0.639895	0.733080	-0.230494
59193	9.602030	-0.125950	-2.313696	0.247353	0.009516	-0.068383	0.156765	0.169010	0.973068	0.753873	-0.656979	-0.007343	0.638044	0.734721	-0.230403
59194	9.512028	-0.002754	-2.109514	0.266065	0.008985	-0.068517	0.156218	0.169395	0.973088	0.755673	-0.654908	-0.007308	0.636046	0.736479	-0.230316
59195	9.609925	-0.193530	-2.125634	0.267843	0.001290	-0.064057	0.155752	0.169807	0.973091	0.757472	-0.652827	-0.007320	0.634017	0.738229	-0.230303
59196	9.533431	-0.069647	-2.352122	0.260955	0.005457	-0.068635	0.155225	0.170217	0.973104	0.759228	-0.650784	-0.007272	0.632043	0.739936	-0.230251
59197	9.527558	-0.089858	-2.253161	0.264434	0.002896	-0.065830	0.154733	0.170626	0.973111	0.760996	-0.648716	-0.007259	0.630034	0.741657	-0.230223
59198	9.559064	0.013131	-2.284081	0.260219	0.004942	-0.065073	0.154234	0.171013	0.973122	0.762731	-0.646675	-0.007244	0.628055	0.743348	-0.230176
59199	9.607646	-0.149733	-2.349995	0.252830	0.005798	-0.063708	0.153739	0.171384	0.973135	0.764412	-0.644687	-0.007225	0.626130	0.744987	-0.230121
59200	9.484869	-0.038918	-2.171073	0.248056	0.006953	-0.065073	0.153225	0.171754	0.973151	0.766060	-0.642728	-0.007181	0.624238	0.746593	-0.230055
59201	9.616608	-0.111015	-2.255369	0.272946	0.004275	-0.065069	0.152726	0.172142	0.973161	0.767858	-0.640579	-0.007195	0.622148	0.748349	-0.230014
59202	9.531359	-0.159229	-2.233028	0.237420	0.005056	-0.063970	0.152231	0.172516	0.973172	0.769429	-0.638693	-0.007137	0.620327	0.749873	-0.229968
59203	9.542644	-0.000568	-2.273555	0.250443	0.006110	-0.062986	0.151735	0.172875	0.973186	0.771073	-0.636707	-0.007119	0.618404	0.751478	-0.229910
59204	9.576003	-0.072189	-2.194341	0.267124	-0.000279	-0.067342	0.151244	0.173308	0.973185	0.772822	-0.634583	-0.007097	0.616337	0.753172	-0.229913
59205	9.531720	0.002785	-2.363730	0.271165	0.004040	-0.063043	0.150759	0.173680	0.973194	0.774583	-0.632432	-0.007125	0.614242	0.754894	-0.229875
59206	9.594365	-0.177348	-2.356417	0.242730	0.006713	-0.061811	0.150266	0.174023	0.973209	0.776162	-0.630493	-0.007101	0.612366	0.756435	-0.229812
59207	9.509983	-0.088368	-2.217671	0.243484	0.007694	-0.063550	0.149752	0.174368	0.973227	0.777744	-0.628541	-0.007060	0.610482	0.757979	-0.229739
59208	9.623392	-0.192193	-2.252687	0.245814	0.009264	-0.065608	0.149212	0.174713	0.973248	0.779338	-0.626564	-0.007005	0.608578	0.759534	-0.229652
