// General information: 
//  MT Manager version: 2019.2.0 
//  XDA version: 2019.2.0 build 3853 rev 94535 built on 2019-09-09
// Device information: 
//  DeviceId: 00B44113
//  ProductCode: MTW2-3A7G6
//  Firmware Version: 4.3.5
//  Hardware Version: 1.1.0
// Device settings: 
//  Filter Profile: human(46.1)
//  Option Flags: Orientation Smoother Disabled, AHS Disabled, ICC Disabled
// Coordinate system: ENU
PacketCounter	Acc_X	Acc_Y	Acc_Z	Gyr_X	Gyr_Y	Gyr_Z	Mat[1][1]	Mat[2][1]	Mat[3][1]	Mat[1][2]	Mat[2][2]	Mat[3][2]	Mat[1][3]	Mat[2][3]	Mat[3][3]
58398	9.628217	-0.464678	-1.737118	0.007083	0.001437	-0.002510	-0.175638	-0.048999	0.983235	-0.521146	0.851964	-0.050636	-0.835199	-0.521303	-0.175173
58399	9.637645	-0.505083	-1.693951	0.006087	0.002550	-0.002826	-0.175638	-0.048996	0.983235	-0.521143	0.851966	-0.050639	-0.835201	-0.521300	-0.175171
58400	9.644281	-0.512212	-1.716002	0.004171	0.002349	-0.004860	-0.175630	-0.049010	0.983236	-0.521124	0.851979	-0.050618	-0.835215	-0.521278	-0.175173
58401	9.637758	-0.504466	-1.693493	0.009563	0.001002	-0.004484	-0.175634	-0.049029	0.983234	-0.521152	0.851962	-0.050610	-0.835196	-0.521303	-0.175185
58402	9.648013	-0.488639	-1.722207	0.005524	0.003186	0.001179	-0.175651	-0.048987	0.983233	-0.521134	0.851970	-0.050651	-0.835204	-0.521293	-0.175178
58403	9.667662	-0.513327	-1.707916	0.008568	0.002115	-0.004799	-0.175644	-0.049003	0.983233	-0.521155	0.851959	-0.050639	-0.835193	-0.521311	-0.175180
58404	9.648114	-0.488462	-1.721693	0.006801	0.001756	-0.000509	-0.175661	-0.048985	0.983231	-0.521156	0.851957	-0.050663	-0.835189	-0.521316	-0.175184
58405	9.644516	-0.511624	-1.714858	0.004885	0.001555	-0.002543	-0.175670	-0.048984	0.983230	-0.521142	0.851965	-0.050666	-0.835195	-0.521303	-0.175193
58406	9.628612	-0.463510	-1.735235	0.007290	0.003545	-0.003113	-0.175659	-0.048978	0.983232	-0.521150	0.851960	-0.050667	-0.835192	-0.521312	-0.175179
58407	9.644644	-0.511190	-1.714267	0.006370	0.002232	-0.004831	-0.175651	-0.048993	0.983233	-0.521153	0.851959	-0.050650	-0.835193	-0.521311	-0.175180
58408	9.661330	-0.505152	-1.684424	0.005599	0.000761	-0.000224	-0.175678	-0.048977	0.983229	-0.521143	0.851963	-0.050677	-0.835193	-0.521306	-0.175195
58409	9.628087	-0.516688	-1.743549	0.005656	0.003025	-0.007150	-0.175652	-0.049007	0.983232	-0.521144	0.851965	-0.050636	-0.835198	-0.521300	-0.175189
58410	9.644821	-0.510590	-1.713451	0.007929	0.005177	0.000607	-0.175648	-0.048960	0.983235	-0.521148	0.851961	-0.050676	-0.835196	-0.521312	-0.175160
58411	9.648506	-0.487329	-1.719814	0.006164	0.000124	-0.004231	-0.175661	-0.048982	0.983232	-0.521148	0.851961	-0.050664	-0.835194	-0.521308	-0.175183
58412	9.644935	-0.510294	-1.712897	0.008493	0.004540	-0.003400	-0.175642	-0.048971	0.983235	-0.521162	0.851952	-0.050666	-0.835188	-0.521324	-0.175161
58413	9.648632	-0.486915	-1.719227	0.004886	0.001555	-0.002544	-0.175652	-0.048971	0.983234	-0.521148	0.851961	-0.050669	-0.835195	-0.521311	-0.175169
58414	9.645050	-0.509977	-1.712343	0.008287	0.002433	-0.002800	-0.175654	-0.048966	0.983233	-0.521158	0.851954	-0.050677	-0.835188	-0.521322	-0.175168
58415	9.642139	-0.479214	-1.696475	0.007084	0.001438	-0.002514	-0.175665	-0.048966	0.983231	-0.521162	0.851951	-0.050684	-0.835183	-0.521327	-0.175177
58416	9.645139	-0.509543	-1.711972	0.007649	0.000800	-0.006521	-0.175662	-0.049002	0.983230	-0.521173	0.851947	-0.050652	-0.835178	-0.521331	-0.175193
58417	9.645846	-0.455462	-1.702838	0.004604	0.001873	-0.000541	-0.175679	-0.048983	0.983228	-0.521153	0.851958	-0.050674	-0.835186	-0.521315	-0.175199
58418	9.664821	-0.534144	-1.697510	0.005524	0.003187	0.001176	-0.175695	-0.048942	0.983227	-0.521138	0.851964	-0.050715	-0.835192	-0.521308	-0.175191
58419	9.669168	-0.456963	-1.694931	0.011051	0.001678	-0.006778	-0.175682	-0.048977	0.983228	-0.521183	0.851938	-0.050687	-0.835167	-0.521347	-0.175196
58420	9.641712	-0.532183	-1.704348	0.006089	0.002550	-0.002831	-0.175682	-0.048973	0.983228	-0.521176	0.851943	-0.050690	-0.835172	-0.521340	-0.175195
58421	9.646058	-0.454869	-1.701797	0.006372	0.002231	-0.004835	-0.175675	-0.048988	0.983229	-0.521178	0.851942	-0.050673	-0.835172	-0.521339	-0.175196
58422	9.645459	-0.508453	-1.710493	0.006089	0.002550	-0.002832	-0.175676	-0.048984	0.983229	-0.521173	0.851945	-0.050675	-0.835175	-0.521334	-0.175195
58423	9.672357	-0.486592	-1.709570	0.004886	0.001555	-0.002546	-0.175685	-0.048983	0.983227	-0.521159	0.851954	-0.050678	-0.835182	-0.521321	-0.175204
58424	9.642604	-0.477542	-1.694301	0.006013	0.004976	-0.001431	-0.175672	-0.048955	0.983231	-0.521152	0.851957	-0.050695	-0.835189	-0.521318	-0.175178
58425	9.662290	-0.502199	-1.679796	0.002611	0.004097	-0.001175	-0.175668	-0.048929	0.983233	-0.521116	0.851978	-0.050707	-0.835212	-0.521286	-0.175163
58426	9.615887	-0.499000	-1.694315	0.006166	0.000123	-0.004234	-0.175682	-0.048951	0.983229	-0.521116	0.851979	-0.050695	-0.835209	-0.521283	-0.175186
58427	9.675570	-0.516591	-1.724017	0.008571	0.002114	-0.004807	-0.175675	-0.048967	0.983230	-0.521137	0.851967	-0.050683	-0.835197	-0.521301	-0.175188
58428	9.649410	-0.484223	-1.715613	0.005883	0.000443	-0.002231	-0.175696	-0.048969	0.983226	-0.521130	0.851971	-0.050690	-0.835197	-0.521294	-0.175207
58429	9.645826	-0.507303	-1.708759	0.008288	0.002433	-0.002804	-0.175697	-0.048966	0.983226	-0.521145	0.851961	-0.050697	-0.835188	-0.521310	-0.175205
58430	9.649504	-0.483953	-1.715165	0.006089	0.002550	-0.002834	-0.175695	-0.048963	0.983226	-0.521146	0.851960	-0.050699	-0.835187	-0.521312	-0.175202
58431	9.652537	-0.514531	-1.730484	0.005807	0.002869	-0.000830	-0.175703	-0.048941	0.983226	-0.521137	0.851965	-0.050720	-0.835191	-0.521307	-0.175197
58432	9.626402	-0.482187	-1.721923	0.005376	0.003342	-0.005154	-0.175683	-0.048955	0.983229	-0.521138	0.851966	-0.050698	-0.835195	-0.521304	-0.175188
58433	9.646046	-0.506744	-1.707688	0.006597	-0.000349	0.000089	-0.175722	-0.048941	0.983222	-0.521133	0.851966	-0.050730	-0.835190	-0.521304	-0.175215
58434	9.649691	-0.483446	-1.714253	0.008572	0.002114	-0.004809	-0.175716	-0.048955	0.983223	-0.521150	0.851957	-0.050718	-0.835180	-0.521319	-0.175216
58435	9.646112	-0.506483	-1.707390	0.001203	0.000995	-0.000287	-0.175743	-0.048938	0.983219	-0.521101	0.851985	-0.050736	-0.835205	-0.521273	-0.175232
58436	9.643166	-0.475759	-1.691600	0.008289	0.002433	-0.002806	-0.175747	-0.048933	0.983219	-0.521111	0.851979	-0.050745	-0.835199	-0.521284	-0.175232
58437	9.652819	-0.513627	-1.729177	0.007576	0.003225	-0.005126	-0.175729	-0.048945	0.983221	-0.521124	0.851972	-0.050728	-0.835194	-0.521294	-0.175223
58438	9.662917	-0.500003	-1.676841	0.004810	0.003981	-0.001149	-0.175725	-0.048919	0.983223	-0.521106	0.851982	-0.050745	-0.835206	-0.521281	-0.175207
58439	9.646368	-0.505962	-1.706100	0.007009	0.003865	-0.001119	-0.175723	-0.048894	0.983225	-0.521107	0.851980	-0.050766	-0.835206	-0.521286	-0.175192
58440	9.646437	-0.505695	-1.705787	0.006657	0.001909	-0.006844	-0.175708	-0.048926	0.983226	-0.521113	0.851979	-0.050731	-0.835205	-0.521286	-0.175196
58441	9.623261	-0.504060	-1.712943	0.006520	0.002079	0.001488	-0.175734	-0.048888	0.983223	-0.521106	0.851980	-0.050776	-0.835204	-0.521286	-0.175198
58442	9.656747	-0.489933	-1.734276	0.003608	0.002986	-0.000862	-0.175740	-0.048866	0.983223	-0.521084	0.851992	-0.050794	-0.835216	-0.521269	-0.175192
58443	9.653190	-0.512962	-1.727301	0.008573	0.002113	-0.004811	-0.175733	-0.048881	0.983224	-0.521105	0.851980	-0.050781	-0.835205	-0.521287	-0.175194
58444	9.627044	-0.480546	-1.718786	0.005094	0.003661	-0.003154	-0.175720	-0.048875	0.983226	-0.521097	0.851986	-0.050778	-0.835213	-0.521279	-0.175180
58445	9.646733	-0.504937	-1.704338	0.007577	0.003224	-0.005129	-0.175703	-0.048888	0.983229	-0.521110	0.851979	-0.050760	-0.835209	-0.521289	-0.175171
58446	9.616970	-0.495716	-1.689126	0.006091	0.002550	-0.002838	-0.175701	-0.048885	0.983229	-0.521109	0.851979	-0.050762	-0.835209	-0.521288	-0.175168
58447	9.646853	-0.504408	-1.703814	0.005172	0.001234	-0.004554	-0.175703	-0.048903	0.983228	-0.521101	0.851985	-0.050746	-0.835214	-0.521277	-0.175180
58448	9.653511	-0.511734	-1.725871	0.008006	0.002754	-0.000805	-0.175712	-0.048879	0.983227	-0.521105	0.851981	-0.050772	-0.835210	-0.521286	-0.175174
58449	9.623764	-0.502582	-1.710545	0.005584	0.005447	-0.005764	-0.175673	-0.048885	0.983234	-0.521102	0.851984	-0.050745	-0.835220	-0.521280	-0.175145
58450	9.647061	-0.503604	-1.702875	0.008652	-0.000314	-0.006212	-0.175679	-0.048925	0.983231	-0.521126	0.851972	-0.050719	-0.835204	-0.521297	-0.175169
58451	9.650732	-0.480051	-1.709339	0.004098	0.004772	-0.003473	-0.175657	-0.048915	0.983235	-0.521107	0.851984	-0.050711	-0.835220	-0.521278	-0.175147
58452	9.627556	-0.478504	-1.716489	0.006598	-0.000347	0.000087	-0.175696	-0.048901	0.983229	-0.521098	0.851987	-0.050743	-0.835217	-0.521275	-0.175173
58453	9.617358	-0.494197	-1.687359	0.006091	0.002550	-0.002839	-0.175696	-0.048897	0.983229	-0.521095	0.851989	-0.050745	-0.835219	-0.521272	-0.175172
58454	9.634263	-0.485788	-1.738306	0.007294	0.003545	-0.003128	-0.175685	-0.048890	0.983232	-0.521101	0.851985	-0.050747	-0.835218	-0.521278	-0.175158
58455	9.666943	-0.527466	-1.687487	0.006091	0.002550	-0.002840	-0.175685	-0.048886	0.983232	-0.521097	0.851987	-0.050750	-0.835220	-0.521275	-0.175156
58456	9.634380	-0.485452	-1.737755	0.004889	0.001554	-0.002552	-0.175696	-0.048886	0.983230	-0.521083	0.851996	-0.050753	-0.835227	-0.521261	-0.175166
58457	9.657644	-0.486593	-1.730220	0.007656	0.000796	-0.006531	-0.175691	-0.048923	0.983229	-0.521099	0.851988	-0.050722	-0.835218	-0.521271	-0.175180
58458	9.640855	-0.494409	-1.678766	0.008575	0.002113	-0.004816	-0.175684	-0.048940	0.983229	-0.521122	0.851974	-0.050708	-0.835205	-0.521291	-0.175182
58459	9.647531	-0.501723	-1.700766	0.003608	0.002986	-0.000866	-0.175691	-0.048917	0.983229	-0.521094	0.851990	-0.050725	-0.835221	-0.521267	-0.175177
58460	9.620771	-0.523349	-1.701094	0.007294	0.003545	-0.003130	-0.175681	-0.048911	0.983231	-0.521102	0.851986	-0.050727	-0.835218	-0.521276	-0.175165
58461	9.631056	-0.507382	-1.729830	0.005173	0.001233	-0.004557	-0.175683	-0.048929	0.983230	-0.521094	0.851991	-0.050711	-0.835222	-0.521264	-0.175177
58462	9.647707	-0.501097	-1.699951	0.006092	0.002550	-0.002842	-0.175683	-0.048926	0.983230	-0.521090	0.851994	-0.050713	-0.835225	-0.521261	-0.175175
58463	9.654395	-0.508487	-1.721882	0.004811	0.003982	-0.001155	-0.175680	-0.048900	0.983232	-0.521073	0.852003	-0.050729	-0.835236	-0.521248	-0.175160
58464	9.634844	-0.483662	-1.735679	0.008576	0.002113	-0.004818	-0.175672	-0.048916	0.983233	-0.521093	0.851992	-0.050716	-0.835225	-0.521265	-0.175161
58465	9.661152	-0.515727	-1.743482	0.004526	0.004304	0.000849	-0.175677	-0.048872	0.983234	-0.521070	0.852004	-0.050752	-0.835239	-0.521250	-0.175143
58466	9.651570	-0.477472	-1.705328	0.008576	0.002113	-0.004818	-0.175669	-0.048889	0.983235	-0.521094	0.851990	-0.050738	-0.835225	-0.521271	-0.175144
58467	9.624828	-0.498838	-1.705647	0.006583	0.004334	-0.005454	-0.175641	-0.048898	0.983239	-0.521100	0.851988	-0.050716	-0.835228	-0.521273	-0.175124
58468	9.658356	-0.484236	-1.726903	0.008576	0.002113	-0.004819	-0.175634	-0.048914	0.983240	-0.521121	0.851975	-0.050703	-0.835216	-0.521292	-0.175126
58469	9.654797	-0.507188	-1.720008	0.003687	0.000559	-0.002265	-0.175653	-0.048916	0.983236	-0.521096	0.851990	-0.050706	-0.835227	-0.521268	-0.175145
58470	9.641591	-0.491931	-1.675260	0.007580	0.003224	-0.005137	-0.175637	-0.048928	0.983238	-0.521104	0.851986	-0.050689	-0.835226	-0.521273	-0.175137
58471	9.631709	-0.505185	-1.726834	0.005096	0.003660	-0.003162	-0.175626	-0.048922	0.983241	-0.521093	0.851993	-0.050686	-0.835235	-0.521262	-0.175125
58472	9.651368	-0.529776	-1.712503	0.006599	-0.000345	0.000085	-0.175665	-0.048908	0.983234	-0.521088	0.851995	-0.050718	-0.835230	-0.521261	-0.175151
58473	9.651972	-0.475662	-1.703557	0.005665	0.003016	-0.007171	-0.175639	-0.048939	0.983237	-0.521089	0.851997	-0.050677	-0.835235	-0.521255	-0.175145
58474	9.652039	-0.475467	-1.703231	0.005523	0.003194	0.001164	-0.175652	-0.048899	0.983237	-0.521080	0.852000	-0.050717	-0.835238	-0.521253	-0.175136
58475	9.658746	-0.482868	-1.725104	0.006583	0.004334	-0.005457	-0.175624	-0.048908	0.983242	-0.521085	0.851998	-0.050695	-0.835241	-0.521256	-0.175117
58476	9.632001	-0.504341	-1.725452	0.007090	0.001439	-0.002527	-0.175635	-0.048907	0.983240	-0.521085	0.851997	-0.050702	-0.835238	-0.521257	-0.175125
58477	9.658862	-0.482454	-1.724568	0.006093	0.002550	-0.002845	-0.175635	-0.048903	0.983240	-0.521082	0.851999	-0.050705	-0.835240	-0.521254	-0.175124
58478	9.632107	-0.504027	-1.724951	0.006093	0.002550	-0.002846	-0.175634	-0.048901	0.983240	-0.521082	0.851999	-0.050705	-0.835240	-0.521254	-0.175121
58479	9.662029	-0.512806	-1.739479	0.007296	0.003546	-0.003136	-0.175624	-0.048895	0.983242	-0.521089	0.851995	-0.050707	-0.835238	-0.521262	-0.175109
58480	9.615385	-0.511842	-1.672970	0.007296	0.003546	-0.003136	-0.175614	-0.048889	0.983244	-0.521097	0.851990	-0.050708	-0.835235	-0.521271	-0.175097
58481	9.652478	-0.474461	-1.701022	0.006520	0.002085	0.001481	-0.175640	-0.048852	0.983242	-0.521090	0.851992	-0.050754	-0.835234	-0.521271	-0.175100
58482	9.625713	-0.496133	-1.701438	0.004179	0.002342	-0.004879	-0.175631	-0.048865	0.983242	-0.521071	0.852004	-0.050733	-0.835248	-0.521250	-0.175101
58483	9.655615	-0.504660	-1.716159	0.008658	-0.000316	-0.006219	-0.175638	-0.048906	0.983239	-0.521095	0.851991	-0.050707	-0.835231	-0.521267	-0.175126
58484	9.659258	-0.481141	-1.722720	0.005096	0.003660	-0.003165	-0.175626	-0.048898	0.983242	-0.521084	0.851998	-0.050705	-0.835241	-0.521256	-0.175113
58485	9.645502	-0.519892	-1.686604	0.005808	0.002873	-0.000843	-0.175634	-0.048876	0.983242	-0.521074	0.852003	-0.050726	-0.835245	-0.521251	-0.175108
58486	9.656340	-0.450146	-1.706552	0.005382	0.003337	-0.005170	-0.175616	-0.048888	0.983244	-0.521068	0.852007	-0.050704	-0.835253	-0.521242	-0.175100
58487	9.618833	-0.541177	-1.686613	0.008294	0.002436	-0.002820	-0.175617	-0.048885	0.983244	-0.521083	0.851998	-0.050711	-0.835243	-0.521258	-0.175098
58488	9.659529	-0.480311	-1.721428	0.005382	0.003337	-0.005171	-0.175600	-0.048897	0.983247	-0.521074	0.852005	-0.050690	-0.835252	-0.521246	-0.175091
58489	9.655997	-0.503417	-1.714374	0.006520	0.002086	0.001480	-0.175627	-0.048859	0.983244	-0.521067	0.852007	-0.050735	-0.835251	-0.521246	-0.175094
58490	9.626162	-0.494367	-1.699410	0.008659	-0.000317	-0.006221	-0.175632	-0.048899	0.983241	-0.521090	0.851994	-0.050709	-0.835235	-0.521263	-0.175118
58491	9.662707	-0.510646	-1.736345	0.008009	0.002759	-0.000816	-0.175641	-0.048877	0.983240	-0.521099	0.851987	-0.050734	-0.835228	-0.521277	-0.175114
58492	9.596394	-0.485066	-1.684137	0.006380	0.002227	-0.004854	-0.175634	-0.048893	0.983241	-0.521101	0.851987	-0.050717	-0.835228	-0.521276	-0.175116
58493	9.636560	-0.478002	-1.727702	0.007582	0.003222	-0.005145	-0.175616	-0.048906	0.983243	-0.521114	0.851980	-0.050699	-0.835224	-0.521286	-0.175107
58494	9.639692	-0.508444	-1.742872	0.006094	0.002550	-0.002850	-0.175615	-0.048903	0.983244	-0.521113	0.851981	-0.050701	-0.835225	-0.521284	-0.175104
58495	9.623390	-0.462507	-1.682612	0.006094	0.002550	-0.002850	-0.175615	-0.048899	0.983244	-0.521109	0.851983	-0.050703	-0.835227	-0.521281	-0.175103
58496	9.656379	-0.501903	-1.712664	0.006380	0.002226	-0.004855	-0.175607	-0.048915	0.983244	-0.521113	0.851981	-0.050685	-0.835226	-0.521282	-0.175104
58497	9.633195	-0.500176	-1.719989	0.007172	-0.000989	-0.003927	-0.175631	-0.048940	0.983239	-0.521121	0.851977	-0.050679	-0.835217	-0.521287	-0.175137
58498	9.649809	-0.493915	-1.690094	0.006014	0.004979	-0.001456	-0.175618	-0.048913	0.983242	-0.521116	0.851979	-0.050694	-0.835223	-0.521286	-0.175112
58499	9.607012	-0.467917	-1.711407	0.005603	0.000768	-0.000236	-0.175647	-0.048896	0.983238	-0.521104	0.851985	-0.050721	-0.835224	-0.521278	-0.175128
58500	9.652979	-0.524498	-1.705032	0.007583	0.003222	-0.005147	-0.175629	-0.048909	0.983241	-0.521115	0.851979	-0.050703	-0.835221	-0.521286	-0.175119
58501	9.657127	-0.447274	-1.702850	0.006806	0.001764	-0.000528	-0.175647	-0.048890	0.983238	-0.521113	0.851978	-0.050729	-0.835218	-0.521289	-0.175125
58502	9.653095	-0.524175	-1.704476	0.005383	0.003336	-0.005176	-0.175628	-0.048902	0.983241	-0.521105	0.851985	-0.050707	-0.835227	-0.521278	-0.175116
58503	9.630456	-0.468578	-1.702905	0.006095	0.002550	-0.002852	-0.175628	-0.048899	0.983241	-0.521102	0.851987	-0.050709	-0.835229	-0.521275	-0.175114
58504	9.649641	-0.547006	-1.697083	0.008009	0.002760	-0.000820	-0.175635	-0.048877	0.983241	-0.521114	0.851978	-0.050734	-0.835220	-0.521291	-0.175108
58505	9.656887	-0.500448	-1.710224	0.005589	0.005441	-0.005787	-0.175596	-0.048884	0.983248	-0.521111	0.851981	-0.050706	-0.835230	-0.521285	-0.175078
58506	9.656961	-0.499990	-1.709941	0.008662	-0.000318	-0.006225	-0.175602	-0.048924	0.983245	-0.521133	0.851969	-0.050679	-0.835215	-0.521301	-0.175103
58507	9.627115	-0.490620	-1.695094	0.001775	0.000348	-0.004302	-0.175612	-0.048944	0.983242	-0.521096	0.851993	-0.050660	-0.835236	-0.521260	-0.175125
58508	9.657021	-0.499243	-1.709820	0.009579	0.001003	-0.004512	-0.175615	-0.048963	0.983241	-0.521125	0.851976	-0.050652	-0.835218	-0.521286	-0.175136
58509	9.630280	-0.520793	-1.710242	0.006095	0.002550	-0.002854	-0.175615	-0.048959	0.983241	-0.521121	0.851978	-0.050654	-0.835220	-0.521283	-0.175134
58510	9.637496	-0.474267	-1.723502	0.007298	0.003546	-0.003146	-0.175606	-0.048953	0.983243	-0.521128	0.851974	-0.050656	-0.835217	-0.521291	-0.175123
58511	9.623777	-0.512773	-1.687257	0.006587	0.004331	-0.005471	-0.175578	-0.048962	0.983247	-0.521133	0.851972	-0.050633	-0.835220	-0.521293	-0.175103
58512	9.657275	-0.498306	-1.708656	0.006888	-0.000665	-0.001924	-0.175609	-0.048967	0.983241	-0.521136	0.851970	-0.050646	-0.835212	-0.521296	-0.175132
58513	9.657310	-0.498277	-1.708466	0.007012	0.003871	-0.001142	-0.175606	-0.048942	0.983243	-0.521137	0.851968	-0.050667	-0.835212	-0.521302	-0.175117
58514	9.660966	-0.475014	-1.714822	0.008501	0.004542	-0.003440	-0.175585	-0.048932	0.983247	-0.521154	0.851957	-0.050667	-0.835206	-0.521320	-0.175092
58515	9.637348	-0.527341	-1.730510	0.006096	0.002550	-0.002855	-0.175585	-0.048929	0.983248	-0.521151	0.851959	-0.050669	-0.835208	-0.521317	-0.175091
58516	9.627651	-0.488792	-1.692574	0.006382	0.002225	-0.004861	-0.175506	-0.048951	0.983261	-0.520988	0.852065	-0.050574	-0.835326	-0.521143	-0.175046
58517	9.630806	-0.519256	-1.707747	0.006096	0.002550	-0.002856	-0.175506	-0.048948	0.983261	-0.520984	0.852067	-0.050576	-0.835328	-0.521140	-0.175044
58518	9.634434	-0.495912	-1.714275	0.006096	0.002550	-0.002856	-0.175505	-0.048943	0.983261	-0.520979	0.852069	-0.050578	-0.835331	-0.521136	-0.175040
58519	9.664353	-0.504721	-1.728904	0.005891	0.000445	-0.002244	-0.175525	-0.048945	0.983257	-0.520973	0.852073	-0.050586	-0.835331	-0.521130	-0.175060
58520	9.604637	-0.486765	-1.699060	0.007012	0.003871	-0.001144	-0.175523	-0.048920	0.983259	-0.520972	0.852073	-0.050606	-0.835332	-0.521133	-0.175044
58521	9.664457	-0.504498	-1.728386	0.005180	0.001229	-0.004569	-0.175525	-0.048938	0.983258	-0.520963	0.852078	-0.050590	-0.835337	-0.521121	-0.175056
58522	9.604762	-0.486399	-1.698460	0.006015	0.004981	-0.001464	-0.175512	-0.048909	0.983262	-0.520955	0.852083	-0.050606	-0.835345	-0.521117	-0.175031
58523	9.631134	-0.518351	-1.706170	0.006178	0.000120	-0.004250	-0.175525	-0.048931	0.983258	-0.520955	0.852084	-0.050595	-0.835343	-0.521113	-0.175053
58524	9.661547	-0.473316	-1.712018	0.006931	0.006302	0.000248	-0.175510	-0.048882	0.983263	-0.520951	0.852084	-0.050628	-0.835348	-0.521117	-0.175014
58525	9.631290	-0.518252	-1.705316	0.007300	0.003546	-0.003151	-0.175500	-0.048876	0.983265	-0.520958	0.852080	-0.050629	-0.835346	-0.521125	-0.175002
58526	9.661684	-0.473170	-1.711285	0.008092	0.000332	-0.002218	-0.175521	-0.048879	0.983262	-0.520970	0.852071	-0.050641	-0.835334	-0.521138	-0.175020
58527	9.631383	-0.518071	-1.704848	0.004812	0.003984	-0.001173	-0.175517	-0.048854	0.983263	-0.520953	0.852081	-0.050657	-0.835345	-0.521125	-0.175005
58528	9.658246	-0.496176	-1.703783	0.008503	0.004542	-0.003445	-0.175495	-0.048845	0.983268	-0.520974	0.852068	-0.050657	-0.835337	-0.521147	-0.174981
58529	9.641758	-0.502145	-1.733242	0.007177	-0.000990	-0.003931	-0.175519	-0.048869	0.983262	-0.520981	0.852064	-0.050650	-0.835327	-0.521151	-0.175013
58530	9.651646	-0.488279	-1.681220	0.008011	0.002763	-0.000827	-0.175526	-0.048847	0.983262	-0.520990	0.852057	-0.050675	-0.835320	-0.521165	-0.175007
58531	9.631620	-0.517536	-1.703673	0.004101	0.004768	-0.003499	-0.175504	-0.048838	0.983267	-0.520972	0.852069	-0.050667	-0.835336	-0.521146	-0.174985
58532	9.648214	-0.511072	-1.673740	0.008380	0.000006	-0.004225	-0.175519	-0.048857	0.983263	-0.520985	0.852061	-0.050661	-0.835325	-0.521158	-0.175007
58533	9.638867	-0.470690	-1.716803	0.006302	0.004655	-0.003473	-0.175498	-0.048848	0.983267	-0.520985	0.852062	-0.050657	-0.835330	-0.521157	-0.174984
58534	9.645595	-0.478028	-1.738821	0.007178	-0.000990	-0.003932	-0.175521	-0.048872	0.983262	-0.520995	0.852055	-0.050651	-0.835318	-0.521165	-0.175016
58535	9.645634	-0.477812	-1.738663	0.007300	0.003546	-0.003154	-0.175511	-0.048866	0.983264	-0.521002	0.852051	-0.050653	-0.835316	-0.521173	-0.175003
58536	9.642149	-0.500801	-1.731454	0.007300	0.003546	-0.003154	-0.175500	-0.048860	0.983266	-0.521011	0.852046	-0.050654	-0.835313	-0.521182	-0.174990
58537	9.652073	-0.486848	-1.679182	0.009502	0.003433	-0.003129	-0.175491	-0.048854	0.983268	-0.521036	0.852030	-0.050660	-0.835299	-0.521208	-0.174978
58538	9.638732	-0.523655	-1.723912	0.006098	0.002550	-0.002861	-0.175491	-0.048851	0.983268	-0.521034	0.852031	-0.050662	-0.835301	-0.521207	-0.174976
58539	9.639212	-0.469461	-1.715203	0.001778	0.000344	-0.004305	-0.175501	-0.048871	0.983265	-0.520997	0.852055	-0.050642	-0.835321	-0.521166	-0.174999
58540	9.662036	-0.524558	-1.716078	0.007013	0.003872	-0.001150	-0.175500	-0.048847	0.983267	-0.520997	0.852054	-0.050662	-0.835322	-0.521170	-0.174984
58541	9.658966	-0.493749	-1.700402	0.007096	0.001441	-0.002541	-0.175510	-0.048847	0.983265	-0.521001	0.852051	-0.050669	-0.835317	-0.521175	-0.174993
58542	9.605899	-0.483303	-1.692905	0.007096	0.001441	-0.002542	-0.175519	-0.048848	0.983263	-0.521007	0.852047	-0.050674	-0.835311	-0.521181	-0.175000
58543	9.665727	-0.501069	-1.722274	0.004895	0.001554	-0.002568	-0.175529	-0.048847	0.983262	-0.520993	0.852056	-0.050677	-0.835318	-0.521167	-0.175009
58544	9.626052	-0.505762	-1.759116	0.007301	0.003546	-0.003157	-0.175519	-0.048840	0.983264	-0.520998	0.852052	-0.050679	-0.835317	-0.521173	-0.174997
58545	9.628831	-0.538117	-1.693261	0.007096	0.001441	-0.002542	-0.175530	-0.048840	0.983262	-0.521002	0.852049	-0.050685	-0.835312	-0.521178	-0.175006
58546	9.659184	-0.493012	-1.699378	0.003692	0.000557	-0.002274	-0.175549	-0.048842	0.983258	-0.520977	0.852064	-0.050689	-0.835324	-0.521153	-0.175025
58547	9.636035	-0.491365	-1.706568	0.006591	0.004328	-0.005484	-0.175520	-0.048852	0.983263	-0.520982	0.852062	-0.050666	-0.835326	-0.521155	-0.175005
58548	9.666011	-0.500120	-1.720955	0.005811	0.002877	-0.000858	-0.175528	-0.048830	0.983263	-0.520972	0.852067	-0.050687	-0.835331	-0.521150	-0.175001
58549	9.636157	-0.491111	-1.705951	0.007097	0.001441	-0.002543	-0.175539	-0.048830	0.983261	-0.520977	0.852064	-0.050694	-0.835326	-0.521155	-0.175009
58550	9.649585	-0.506181	-1.750158	0.008300	0.002438	-0.002838	-0.175539	-0.048826	0.983261	-0.520991	0.852055	-0.050701	-0.835317	-0.521170	-0.175007
58551	9.642962	-0.498407	-1.727615	0.005100	0.003658	-0.003185	-0.175528	-0.048820	0.983263	-0.520979	0.852062	-0.050698	-0.835326	-0.521159	-0.174995
58552	9.639466	-0.521397	-1.720484	0.007097	0.001441	-0.002544	-0.175540	-0.048819	0.983261	-0.520981	0.852061	-0.050705	-0.835323	-0.521161	-0.175004
58553	9.652901	-0.484214	-1.675179	0.005100	0.003658	-0.003186	-0.175529	-0.048813	0.983263	-0.520970	0.852068	-0.050702	-0.835332	-0.521150	-0.174992
58554	9.632919	-0.513419	-1.697562	0.008505	0.004542	-0.003455	-0.175509	-0.048804	0.983267	-0.520986	0.852058	-0.050702	-0.835327	-0.521167	-0.174970
58555	9.636543	-0.490267	-1.704012	0.005523	0.003204	0.001146	-0.175524	-0.048763	0.983267	-0.520971	0.852065	-0.050743	-0.835333	-0.521160	-0.174962
58556	9.662939	-0.522330	-1.711665	0.007385	0.001114	-0.004550	-0.175525	-0.048782	0.983266	-0.520984	0.852058	-0.050730	-0.835324	-0.521170	-0.174972
58557	9.606733	-0.481034	-1.688811	0.008301	0.002438	-0.002840	-0.175526	-0.048779	0.983266	-0.520999	0.852048	-0.050736	-0.835315	-0.521186	-0.174971
58558	9.673295	-0.506406	-1.740248	0.006099	0.002550	-0.002866	-0.175528	-0.048775	0.983266	-0.520992	0.852052	-0.050739	-0.835319	-0.521179	-0.174970
58559	9.630024	-0.482107	-1.680955	0.006893	-0.000663	-0.001929	-0.175559	-0.048780	0.983260	-0.520993	0.852051	-0.050751	-0.835311	-0.521181	-0.175000
58560	9.656415	-0.514098	-1.688664	0.007302	0.003546	-0.003162	-0.175549	-0.048775	0.983262	-0.521000	0.852047	-0.050751	-0.835309	-0.521189	-0.174987
58561	9.647085	-0.473775	-1.731705	0.007591	0.003218	-0.005168	-0.175531	-0.048788	0.983264	-0.521013	0.852040	-0.050733	-0.835305	-0.521199	-0.174978
58562	9.640055	-0.519895	-1.717640	0.003609	0.002989	-0.000887	-0.175535	-0.048764	0.983265	-0.520986	0.852055	-0.050751	-0.835321	-0.521176	-0.174971
58563	9.636962	-0.488876	-1.702042	0.011080	0.001671	-0.006829	-0.175522	-0.048799	0.983265	-0.521031	0.852029	-0.050723	-0.835295	-0.521215	-0.174976
58564	9.633472	-0.511806	-1.694908	0.005811	0.002877	-0.000862	-0.175529	-0.048777	0.983265	-0.521022	0.852033	-0.050744	-0.835299	-0.521210	-0.174971
58565	9.666974	-0.497553	-1.716283	0.007098	0.001441	-0.002547	-0.175540	-0.048777	0.983263	-0.521027	0.852030	-0.050751	-0.835295	-0.521215	-0.174980
58566	9.624166	-0.471548	-1.737811	0.005101	0.003658	-0.003190	-0.175527	-0.048771	0.983266	-0.521017	0.852037	-0.050747	-0.835303	-0.521205	-0.174966
58567	9.656852	-0.512624	-1.686612	0.006388	0.002222	-0.004875	-0.175519	-0.048787	0.983266	-0.521019	0.852036	-0.050730	-0.835304	-0.521205	-0.174968
58568	9.670736	-0.473709	-1.722141	0.005017	0.006090	-0.001801	-0.175496	-0.048756	0.983272	-0.521004	0.852045	-0.050741	-0.835318	-0.521194	-0.174932
58569	9.623556	-0.526487	-1.664172	0.007099	0.001442	-0.002548	-0.175506	-0.048756	0.983270	-0.521009	0.852041	-0.050748	-0.835313	-0.521199	-0.174941
58570	9.644087	-0.495324	-1.722213	0.008097	0.000334	-0.002226	-0.175528	-0.048758	0.983266	-0.521022	0.852033	-0.050760	-0.835300	-0.521213	-0.174960
58571	9.663789	-0.519573	-1.707704	0.004187	0.002333	-0.004901	-0.175519	-0.048774	0.983267	-0.521006	0.852044	-0.050738	-0.835312	-0.521194	-0.174961
58572	9.641022	-0.464133	-1.706461	0.008013	0.002766	-0.000838	-0.175529	-0.048752	0.983266	-0.521014	0.852037	-0.050764	-0.835305	-0.521206	-0.174958
58573	9.660747	-0.488535	-1.691766	0.005102	0.003658	-0.003191	-0.175518	-0.048746	0.983269	-0.521003	0.852044	-0.050761	-0.835314	-0.521195	-0.174946
58574	9.640788	-0.517692	-1.714186	0.007592	0.003218	-0.005173	-0.175501	-0.048759	0.983271	-0.521014	0.852039	-0.050743	-0.835311	-0.521203	-0.174938
58575	9.637689	-0.486638	-1.698562	0.006100	0.002550	-0.002870	-0.175501	-0.048755	0.983271	-0.521010	0.852041	-0.050745	-0.835313	-0.521200	-0.174936
58576	9.644450	-0.494081	-1.720536	0.002695	0.001665	-0.002599	-0.175509	-0.048754	0.983270	-0.520976	0.852062	-0.050744	-0.835333	-0.521166	-0.174945
58577	9.627546	-0.501682	-1.668990	0.007593	0.003218	-0.005174	-0.175492	-0.048767	0.983272	-0.520989	0.852055	-0.050726	-0.835328	-0.521176	-0.174936
58578	9.614643	-0.484615	-1.705341	0.008098	0.000334	-0.002228	-0.175512	-0.048771	0.983268	-0.521005	0.852044	-0.050737	-0.835314	-0.521193	-0.174954
58579	9.637887	-0.485699	-1.697710	0.004188	0.002332	-0.004903	-0.175503	-0.048786	0.983269	-0.520989	0.852055	-0.050716	-0.835326	-0.521173	-0.174955
58580	9.634425	-0.508649	-1.690438	0.008218	0.004872	-0.001459	-0.175490	-0.048759	0.983273	-0.521001	0.852047	-0.050734	-0.835321	-0.521190	-0.174929
58581	9.667957	-0.494369	-1.711660	0.006101	0.002550	-0.002872	-0.175490	-0.048756	0.983273	-0.520998	0.852049	-0.050736	-0.835323	-0.521187	-0.174928
58582	9.634555	-0.508408	-1.689767	0.008303	0.002439	-0.002847	-0.175489	-0.048754	0.983273	-0.521015	0.852038	-0.050741	-0.835313	-0.521204	-0.174925
58583	9.621653	-0.491451	-1.726111	0.007100	0.001442	-0.002551	-0.175500	-0.048754	0.983272	-0.521019	0.852035	-0.050748	-0.835308	-0.521210	-0.174934
58584	9.661390	-0.486295	-1.688739	0.006101	0.002550	-0.002873	-0.175499	-0.048751	0.983272	-0.521019	0.852035	-0.050749	-0.835308	-0.521210	-0.174931
58585	9.654834	-0.530842	-1.755783	0.007185	-0.000991	-0.003939	-0.175522	-0.048775	0.983266	-0.521026	0.852031	-0.050743	-0.835298	-0.521214	-0.174964
58586	9.621781	-0.490829	-1.725569	0.004103	0.004765	-0.003517	-0.175500	-0.048766	0.983271	-0.521007	0.852043	-0.050735	-0.835315	-0.521195	-0.174941
58587	9.651763	-0.499616	-1.740006	0.008099	0.000334	-0.002230	-0.175522	-0.048769	0.983267	-0.521019	0.852035	-0.050747	-0.835303	-0.521208	-0.174960
58588	9.645097	-0.491933	-1.717524	0.008219	0.004872	-0.001462	-0.175509	-0.048740	0.983271	-0.521032	0.852026	-0.050767	-0.835298	-0.521225	-0.174934
58589	9.595223	-0.512283	-1.725249	0.005188	0.001224	-0.004583	-0.175511	-0.048759	0.983269	-0.521024	0.852032	-0.050750	-0.835302	-0.521214	-0.174945
58590	9.678683	-0.477301	-1.738554	0.007305	0.003546	-0.003172	-0.175500	-0.048754	0.983271	-0.521032	0.852027	-0.050751	-0.835300	-0.521223	-0.174933
58591	9.641758	-0.514461	-1.709699	0.006102	0.002550	-0.002875	-0.175500	-0.048750	0.983272	-0.521029	0.852029	-0.050753	-0.835302	-0.521220	-0.174931
58592	9.615413	-0.482206	-1.701679	0.007101	0.001442	-0.002553	-0.175510	-0.048751	0.983270	-0.521035	0.852024	-0.050759	-0.835295	-0.521227	-0.174939
58593	9.641846	-0.514147	-1.709297	0.002696	0.001664	-0.002602	-0.175518	-0.048750	0.983268	-0.521003	0.852044	-0.050758	-0.835314	-0.521195	-0.174948
58594	9.631641	-0.529377	-1.679985	0.008594	0.002109	-0.004857	-0.175511	-0.048766	0.983269	-0.521025	0.852032	-0.050744	-0.835302	-0.521214	-0.174949
58595	9.641952	-0.513826	-1.708794	0.005523	0.003209	0.001138	-0.175526	-0.048725	0.983268	-0.521010	0.852039	-0.050785	-0.835308	-0.521206	-0.174941
58596	9.649060	-0.467479	-1.722388	0.007391	0.001112	-0.004560	-0.175529	-0.048743	0.983267	-0.521020	0.852033	-0.050773	-0.835301	-0.521214	-0.174952
58597	9.618855	-0.512222	-1.715775	0.007305	0.003546	-0.003174	-0.175519	-0.048737	0.983269	-0.521028	0.852028	-0.050774	-0.835298	-0.521222	-0.174940
58598	9.645645	-0.490225	-1.714933	0.007101	0.001442	-0.002554	-0.175529	-0.048737	0.983267	-0.521031	0.852026	-0.050781	-0.835294	-0.521226	-0.174949
58599	9.642155	-0.513151	-1.707852	0.007391	0.001112	-0.004561	-0.175532	-0.048755	0.983266	-0.521041	0.852020	-0.050768	-0.835287	-0.521233	-0.174960
58600	9.652493	-0.497373	-1.736594	0.005307	0.005761	-0.003820	-0.175500	-0.048741	0.983272	-0.521030	0.852028	-0.050761	-0.835301	-0.521223	-0.174927
58601	9.642313	-0.512654	-1.707109	0.007102	0.001442	-0.002555	-0.175511	-0.048741	0.983270	-0.521034	0.852024	-0.050768	-0.835296	-0.521228	-0.174935
58602	9.662857	-0.481595	-1.765200	0.008101	0.000335	-0.002233	-0.175530	-0.048745	0.983267	-0.521050	0.852014	-0.050778	-0.835282	-0.521244	-0.174953
58603	9.626254	-0.464685	-1.728067	0.002191	0.004544	-0.005554	-0.175499	-0.048755	0.983272	-0.521018	0.852036	-0.050747	-0.835308	-0.521209	-0.174934
58604	9.642483	-0.511950	-1.706359	0.008305	0.002439	-0.002854	-0.175501	-0.048751	0.983271	-0.521031	0.852027	-0.050753	-0.835300	-0.521222	-0.174933
58605	9.675991	-0.497617	-1.727753	0.004899	0.001553	-0.002580	-0.175511	-0.048751	0.983270	-0.521017	0.852036	-0.050756	-0.835307	-0.521208	-0.174942
58606	9.626441	-0.463938	-1.727225	0.005394	0.003327	-0.005208	-0.175492	-0.048763	0.983272	-0.521012	0.852040	-0.050734	-0.835314	-0.521200	-0.174933
58607	9.642663	-0.511221	-1.705559	0.006103	0.002550	-0.002879	-0.175492	-0.048760	0.983273	-0.521009	0.852042	-0.050736	-0.835316	-0.521197	-0.174931
58608	9.649760	-0.464693	-1.719216	0.007392	0.001112	-0.004563	-0.175495	-0.048779	0.983271	-0.521017	0.852038	-0.050723	-0.835310	-0.521203	-0.174943
58609	9.639231	-0.533899	-1.698252	0.007102	0.001443	-0.002556	-0.175505	-0.048779	0.983269	-0.521022	0.852034	-0.050730	-0.835305	-0.521208	-0.174952
58610	9.629327	-0.495261	-1.660609	0.006103	0.002550	-0.002879	-0.175503	-0.048776	0.983270	-0.521021	0.852035	-0.050731	-0.835306	-0.521207	-0.174948
58611	9.629918	-0.493758	-1.741277	0.003610	0.002990	-0.000897	-0.175510	-0.048754	0.983270	-0.520993	0.852051	-0.050748	-0.835322	-0.521184	-0.174944
58612	9.636169	-0.502664	-1.682269	0.007393	0.001112	-0.004564	-0.175512	-0.048773	0.983268	-0.521004	0.852045	-0.050734	-0.835315	-0.521191	-0.174955
58613	9.646468	-0.486979	-1.711225	0.007103	0.001443	-0.002557	-0.175522	-0.048773	0.983267	-0.521008	0.852042	-0.050741	-0.835310	-0.521196	-0.174964
58614	9.623298	-0.485484	-1.718612	0.006190	0.000115	-0.004265	-0.175536	-0.048793	0.983263	-0.521007	0.852044	-0.050731	-0.835308	-0.521192	-0.174986
58615	9.653268	-0.494228	-1.733183	0.007103	0.001443	-0.002558	-0.175546	-0.048793	0.983261	-0.521011	0.852040	-0.050737	-0.835303	-0.521197	-0.174994
58616	9.639557	-0.532649	-1.696791	0.006307	0.004653	-0.003503	-0.175523	-0.048783	0.983266	-0.521012	0.852041	-0.050733	-0.835308	-0.521198	-0.174969
58617	9.653406	-0.493760	-1.732543	0.005191	0.001222	-0.004589	-0.175525	-0.048801	0.983265	-0.521004	0.852046	-0.050717	-0.835312	-0.521186	-0.174981
58618	9.653457	-0.493498	-1.732333	0.006104	0.002550	-0.002881	-0.175523	-0.048798	0.983265	-0.521001	0.852048	-0.050718	-0.835314	-0.521184	-0.174978
58619	9.656760	-0.524213	-1.747161	0.006017	0.004985	-0.001497	-0.175509	-0.048771	0.983269	-0.520994	0.852051	-0.050733	-0.835321	-0.521182	-0.174952
58620	9.643629	-0.454707	-1.694224	0.007394	0.001112	-0.004566	-0.175512	-0.048789	0.983268	-0.521005	0.852045	-0.050720	-0.835314	-0.521190	-0.174963
58621	9.639885	-0.531537	-1.695278	0.005104	0.003657	-0.003205	-0.175500	-0.048783	0.983270	-0.520994	0.852052	-0.050717	-0.835323	-0.521179	-0.174951
58622	9.657235	-0.469638	-1.738029	0.007103	0.001443	-0.002559	-0.175511	-0.048782	0.983268	-0.520997	0.852050	-0.050725	-0.835319	-0.521183	-0.174959
58623	9.643506	-0.508075	-1.701727	0.006104	0.002550	-0.002883	-0.175510	-0.048779	0.983268	-0.520994	0.852052	-0.050727	-0.835321	-0.521180	-0.174957
58624	9.647059	-0.484793	-1.708509	0.005900	0.000446	-0.002260	-0.175530	-0.048780	0.983265	-0.520988	0.852055	-0.050734	-0.835321	-0.521175	-0.174975
58625	9.627143	-0.514183	-1.730995	0.005104	0.003656	-0.003206	-0.175519	-0.048774	0.983267	-0.520977	0.852062	-0.050731	-0.835330	-0.521164	-0.174963
58626	9.647175	-0.484425	-1.707957	0.006104	0.002550	-0.002883	-0.175518	-0.048771	0.983267	-0.520972	0.852065	-0.050733	-0.835333	-0.521159	-0.174961
58627	9.643706	-0.507207	-1.700855	0.004279	-0.000107	-0.006298	-0.175523	-0.048811	0.983265	-0.520959	0.852075	-0.050698	-0.835340	-0.521139	-0.174987
58628	9.630832	-0.490139	-1.737238	0.008511	0.004544	-0.003484	-0.175502	-0.048801	0.983269	-0.520978	0.852063	-0.050699	-0.835333	-0.521159	-0.174963
58629	9.667043	-0.507923	-1.692725	0.006104	0.002550	-0.002884	-0.175501	-0.048798	0.983269	-0.520974	0.852065	-0.050701	-0.835335	-0.521156	-0.174961
58630	9.654168	-0.490954	-1.729095	0.006395	0.002218	-0.004892	-0.175492	-0.048814	0.983270	-0.520980	0.852063	-0.050683	-0.835334	-0.521158	-0.174961
58631	9.624268	-0.481734	-1.714228	0.004901	0.001553	-0.002584	-0.175501	-0.048814	0.983268	-0.520966	0.852071	-0.050685	-0.835341	-0.521145	-0.174970
58632	9.640474	-0.529215	-1.692651	0.005610	0.000778	-0.000254	-0.175526	-0.048797	0.983265	-0.520957	0.852075	-0.050711	-0.835341	-0.521139	-0.174983
58633	9.651031	-0.459596	-1.713446	0.007687	0.000780	-0.006576	-0.175521	-0.048835	0.983264	-0.520973	0.852067	-0.050680	-0.835332	-0.521149	-0.174998
58634	9.630886	-0.542945	-1.744042	0.003523	0.005427	0.000482	-0.175514	-0.048787	0.983267	-0.520940	0.852085	-0.050710	-0.835354	-0.521124	-0.174968
58635	9.617712	-0.473467	-1.691106	0.008599	0.002109	-0.004870	-0.175507	-0.048803	0.983268	-0.520961	0.852073	-0.050697	-0.835342	-0.521142	-0.174970
58636	9.657731	-0.520620	-1.742861	0.006396	0.002218	-0.004893	-0.175499	-0.048819	0.983268	-0.520963	0.852074	-0.050680	-0.835343	-0.521141	-0.174971
58637	9.644288	-0.504940	-1.698229	0.007308	0.003547	-0.003187	-0.175489	-0.048813	0.983270	-0.520970	0.852069	-0.050680	-0.835340	-0.521148	-0.174959
58638	9.614400	-0.495805	-1.683252	0.006105	0.002550	-0.002886	-0.175488	-0.048809	0.983271	-0.520966	0.852071	-0.050682	-0.835343	-0.521145	-0.174956
58639	9.651162	-0.512318	-1.719832	0.007105	0.001444	-0.002563	-0.175499	-0.048809	0.983269	-0.520971	0.852068	-0.050689	-0.835338	-0.521150	-0.174965
58640	9.658230	-0.465806	-1.733527	0.007600	0.003215	-0.005195	-0.175483	-0.048820	0.983271	-0.520983	0.852062	-0.050673	-0.835334	-0.521160	-0.174957
58641	9.617820	-0.526071	-1.697668	0.004610	0.001885	-0.000579	-0.175500	-0.048801	0.983269	-0.520963	0.852073	-0.050695	-0.835343	-0.521144	-0.174962
58642	9.654832	-0.488616	-1.726047	0.008600	0.002109	-0.004872	-0.175492	-0.048817	0.983270	-0.520985	0.852060	-0.050682	-0.835331	-0.521163	-0.174963
58643	9.644626	-0.503786	-1.696649	0.006105	0.002550	-0.002888	-0.175492	-0.048814	0.983270	-0.520981	0.852062	-0.050683	-0.835333	-0.521160	-0.174961
58644	9.628269	-0.510147	-1.725923	0.006017	0.004986	-0.001505	-0.175477	-0.048786	0.983274	-0.520974	0.852065	-0.050698	-0.835340	-0.521157	-0.174934
58645	9.667955	-0.504744	-1.688463	0.006194	0.000114	-0.004271	-0.175490	-0.048807	0.983271	-0.520974	0.852066	-0.050687	-0.835338	-0.521154	-0.174957
58646	9.625125	-0.478862	-1.710219	0.006309	0.004653	-0.003514	-0.175470	-0.048798	0.983275	-0.520971	0.852069	-0.050684	-0.835344	-0.521151	-0.174935
58647	9.644886	-0.503053	-1.695389	0.007106	0.001444	-0.002565	-0.175481	-0.048798	0.983273	-0.520975	0.852065	-0.050690	-0.835339	-0.521156	-0.174943
58648	9.621718	-0.501766	-1.702766	0.003407	0.000888	-0.000279	-0.175508	-0.048781	0.983269	-0.520945	0.852083	-0.050713	-0.835352	-0.521129	-0.174959
58649	9.644944	-0.502769	-1.695142	0.007689	0.000778	-0.006580	-0.175503	-0.048818	0.983268	-0.520961	0.852074	-0.050681	-0.835343	-0.521139	-0.174974
58650	9.645031	-0.502561	-1.694712	0.005929	0.007422	-0.000125	-0.175475	-0.048766	0.983275	-0.520952	0.852078	-0.050710	-0.835355	-0.521138	-0.174923
58651	9.648604	-0.479324	-1.701311	0.006194	0.000114	-0.004272	-0.175487	-0.048788	0.983272	-0.520952	0.852079	-0.050698	-0.835352	-0.521135	-0.174945
58652	9.632205	-0.485710	-1.730857	0.009018	0.001668	-0.000535	-0.175505	-0.048769	0.983270	-0.520970	0.852066	-0.050727	-0.835337	-0.521157	-0.174949
58653	9.621973	-0.501082	-1.701523	0.004903	0.001553	-0.002589	-0.175515	-0.048769	0.983268	-0.520956	0.852075	-0.050730	-0.835344	-0.521143	-0.174958
58654	9.641710	-0.525276	-1.686832	0.004903	0.001553	-0.002589	-0.175524	-0.048769	0.983267	-0.520943	0.852083	-0.050732	-0.835350	-0.521130	-0.174966
58655	9.662313	-0.494296	-1.744795	0.008513	0.004544	-0.003494	-0.175504	-0.048760	0.983271	-0.520961	0.852072	-0.050732	-0.835343	-0.521149	-0.174944
58656	9.641875	-0.524788	-1.686036	0.006602	0.004320	-0.005525	-0.175473	-0.048771	0.983276	-0.520967	0.852069	-0.050707	-0.835346	-0.521152	-0.174923
58657	9.655706	-0.486180	-1.721841	0.006523	0.002111	0.001449	-0.175499	-0.048733	0.983273	-0.520960	0.852071	-0.050753	-0.835345	-0.521153	-0.174925
58658	9.629043	-0.507977	-1.722237	0.008691	-0.000328	-0.006258	-0.175506	-0.048774	0.983269	-0.520982	0.852059	-0.050726	-0.835330	-0.521168	-0.174951
58659	9.629102	-0.507804	-1.721960	0.003522	0.005428	0.000475	-0.175499	-0.048727	0.983273	-0.520951	0.852076	-0.050756	-0.835350	-0.521145	-0.174923
58660	9.675545	-0.510176	-1.706620	0.008399	0.000005	-0.004251	-0.175514	-0.048748	0.983269	-0.520966	0.852068	-0.050750	-0.835338	-0.521157	-0.174946
58661	9.622433	-0.499747	-1.699315	0.005107	0.003656	-0.003217	-0.175503	-0.048742	0.983272	-0.520955	0.852075	-0.050746	-0.835347	-0.521146	-0.174934
58662	9.639546	-0.491989	-1.750267	0.005815	0.002883	-0.000885	-0.175512	-0.048719	0.983271	-0.520942	0.852081	-0.050768	-0.835353	-0.521137	-0.174930
58663	9.638981	-0.492949	-1.668978	0.007603	0.003213	-0.005203	-0.175494	-0.048732	0.983274	-0.520955	0.852074	-0.050750	-0.835349	-0.521148	-0.174921
58664	9.652618	-0.508050	-1.712913	0.007603	0.003213	-0.005203	-0.175476	-0.048745	0.983276	-0.520968	0.852067	-0.050732	-0.835345	-0.521157	-0.174912
58665	9.636470	-0.460296	-1.734206	0.002700	0.001661	-0.002613	-0.175485	-0.048744	0.983275	-0.520935	0.852087	-0.050731	-0.835363	-0.521125	-0.174921
58666	9.652713	-0.507430	-1.712558	0.008693	-0.000329	-0.006260	-0.175491	-0.048784	0.983272	-0.520960	0.852074	-0.050704	-0.835347	-0.521143	-0.174945
58667	9.616022	-0.490369	-1.675562	0.004106	0.004761	-0.003543	-0.175468	-0.048775	0.983276	-0.520941	0.852086	-0.050696	-0.835363	-0.521124	-0.174923
58668	9.643414	-0.467057	-1.755701	0.007400	0.001111	-0.004577	-0.175471	-0.048794	0.983275	-0.520950	0.852081	-0.050683	-0.835357	-0.521131	-0.174934
58669	9.652895	-0.506623	-1.711773	0.005815	0.002884	-0.000886	-0.175478	-0.048772	0.983275	-0.520941	0.852085	-0.050704	-0.835361	-0.521126	-0.174930
58670	9.606557	-0.504142	-1.726592	0.007108	0.001445	-0.002570	-0.175490	-0.048770	0.983272	-0.520943	0.852084	-0.050713	-0.835357	-0.521129	-0.174938
58671	9.649693	-0.475549	-1.696190	0.006108	0.002550	-0.002895	-0.175490	-0.048767	0.983273	-0.520940	0.852086	-0.050715	-0.835359	-0.521126	-0.174937
58672	9.629823	-0.505178	-1.718697	0.006612	-0.000324	0.000066	-0.175529	-0.048753	0.983266	-0.520934	0.852087	-0.050746	-0.835354	-0.521125	-0.174963
58673	9.653056	-0.506148	-1.711006	0.005693	0.002987	-0.007236	-0.175502	-0.048785	0.983270	-0.520935	0.852089	-0.050704	-0.835359	-0.521119	-0.174957
58674	9.636739	-0.512407	-1.740258	0.010426	0.004771	-0.001472	-0.175492	-0.048757	0.983273	-0.520963	0.852071	-0.050729	-0.835345	-0.521151	-0.174932
58675	9.653238	-0.505747	-1.710094	0.004107	0.004761	-0.003546	-0.175470	-0.048748	0.983277	-0.520944	0.852083	-0.050721	-0.835361	-0.521132	-0.174909
58676	9.630107	-0.504347	-1.717352	0.005905	0.000447	-0.002268	-0.175491	-0.048749	0.983273	-0.520934	0.852088	-0.050729	-0.835362	-0.521124	-0.174929
58677	9.660136	-0.513060	-1.731739	0.007605	0.003213	-0.005208	-0.175473	-0.048762	0.983276	-0.520948	0.852081	-0.050711	-0.835358	-0.521134	-0.174920
58678	9.646628	-0.497278	-1.687162	0.006108	0.002550	-0.002897	-0.175473	-0.048759	0.983276	-0.520943	0.852084	-0.050713	-0.835361	-0.521129	-0.174918
58679	9.630275	-0.503680	-1.716604	0.007109	0.001445	-0.002572	-0.175483	-0.048759	0.983274	-0.520947	0.852081	-0.050719	-0.835356	-0.521135	-0.174927
58680	9.657009	-0.481494	-1.715840	0.005401	0.003320	-0.005231	-0.175464	-0.048772	0.983277	-0.520942	0.852085	-0.050697	-0.835363	-0.521126	-0.174917
58681	9.650120	-0.527600	-1.701376	0.004522	0.004325	0.000794	-0.175468	-0.048728	0.983279	-0.520919	0.852097	-0.050732	-0.835377	-0.521110	-0.174899
58682	9.663925	-0.488974	-1.737352	0.008696	-0.000330	-0.006264	-0.175475	-0.048769	0.983275	-0.520944	0.852084	-0.050705	-0.835360	-0.521129	-0.174925
58683	9.637274	-0.510703	-1.737795	0.005612	0.000782	-0.000261	-0.175503	-0.048753	0.983271	-0.520932	0.852089	-0.050732	-0.835362	-0.521121	-0.174941
58684	9.650236	-0.527179	-1.700847	0.005108	0.003655	-0.003223	-0.175491	-0.048747	0.983273	-0.520921	0.852096	-0.050728	-0.835370	-0.521111	-0.174929
58685	9.653776	-0.503887	-1.707609	0.007109	0.001445	-0.002573	-0.175502	-0.048747	0.983271	-0.520926	0.852093	-0.050735	-0.835365	-0.521116	-0.174937
58686	9.630646	-0.502423	-1.714888	0.005401	0.003320	-0.005232	-0.175482	-0.048761	0.983274	-0.520923	0.852096	-0.050712	-0.835372	-0.521109	-0.174928
58687	9.677096	-0.504515	-1.699494	0.006109	0.002550	-0.002899	-0.175482	-0.048758	0.983275	-0.520919	0.852098	-0.050713	-0.835374	-0.521106	-0.174927
58688	9.630773	-0.502050	-1.714285	0.005816	0.002885	-0.000891	-0.175488	-0.048735	0.983275	-0.520910	0.852103	-0.050735	-0.835378	-0.521101	-0.174920
58689	9.624025	-0.494039	-1.691950	0.007696	0.000775	-0.006591	-0.175483	-0.048773	0.983274	-0.520926	0.852094	-0.050703	-0.835369	-0.521111	-0.174935
58690	9.654086	-0.502532	-1.706251	0.006605	0.004317	-0.005538	-0.175455	-0.048782	0.983278	-0.520928	0.852095	-0.050680	-0.835374	-0.521110	-0.174917
58691	9.634432	-0.478056	-1.720567	0.005613	0.000783	-0.000262	-0.175484	-0.048766	0.983274	-0.520916	0.852100	-0.050707	-0.835375	-0.521102	-0.174933
58692	9.654181	-0.502304	-1.705784	0.006109	0.002550	-0.002900	-0.175482	-0.048764	0.983274	-0.520917	0.852100	-0.050708	-0.835375	-0.521103	-0.174930
58693	9.641326	-0.485602	-1.742226	0.006109	0.002550	-0.002900	-0.175482	-0.048761	0.983274	-0.520914	0.852102	-0.050709	-0.835377	-0.521100	-0.174929
58694	9.661098	-0.509726	-1.727351	0.006109	0.002550	-0.002901	-0.175481	-0.048757	0.983275	-0.520909	0.852105	-0.050711	-0.835380	-0.521095	-0.174927
58695	9.668117	-0.463226	-1.741148	0.007607	0.003212	-0.005214	-0.175463	-0.048771	0.983277	-0.520922	0.852098	-0.050693	-0.835376	-0.521106	-0.174918
58696	9.620949	-0.515682	-1.683062	0.005613	0.000783	-0.000262	-0.175489	-0.048756	0.983273	-0.520913	0.852102	-0.050718	-0.835376	-0.521100	-0.174932
58697	9.638081	-0.507857	-1.734148	0.005696	0.002983	-0.007244	-0.175462	-0.048787	0.983277	-0.520914	0.852104	-0.050676	-0.835381	-0.521094	-0.174926
58698	9.631347	-0.499841	-1.711702	0.001113	0.003436	0.001073	-0.175475	-0.048746	0.983276	-0.520861	0.852134	-0.050708	-0.835411	-0.521048	-0.174918
58699	9.661416	-0.508688	-1.725878	0.011016	0.004103	-0.005499	-0.175448	-0.048758	0.983281	-0.520903	0.852109	-0.050692	-0.835391	-0.521088	-0.174899
58700	9.628156	-0.468587	-1.695940	0.004906	0.001552	-0.002597	-0.175457	-0.048757	0.983279	-0.520889	0.852118	-0.050694	-0.835398	-0.521074	-0.174908
58701	9.658063	-0.531395	-1.718276	0.008314	0.002443	-0.002881	-0.175458	-0.048755	0.983279	-0.520904	0.852108	-0.050700	-0.835388	-0.521090	-0.174906
58702	9.635079	-0.475943	-1.717524	0.005403	0.003319	-0.005237	-0.175437	-0.048770	0.983282	-0.520902	0.852111	-0.050675	-0.835394	-0.521084	-0.174897
58703	9.661676	-0.507716	-1.724712	0.006110	0.002550	-0.002903	-0.175437	-0.048767	0.983282	-0.520898	0.852113	-0.050677	-0.835396	-0.521081	-0.174895
58704	9.654955	-0.499629	-1.702182	0.007811	0.005314	-0.005848	-0.175397	-0.048774	0.983289	-0.520916	0.852103	-0.050653	-0.835393	-0.521096	-0.174863
58705	9.625033	-0.490543	-1.687228	0.002113	0.002332	0.001398	-0.175420	-0.048736	0.983287	-0.520872	0.852128	-0.050690	-0.835416	-0.521059	-0.174866
58706	9.638705	-0.505965	-1.731230	0.011108	0.001664	-0.006879	-0.175406	-0.048773	0.983287	-0.520921	0.852100	-0.050659	-0.835389	-0.521101	-0.174871
58707	9.631931	-0.497977	-1.708957	0.005613	0.000784	-0.000264	-0.175434	-0.048757	0.983283	-0.520909	0.852106	-0.050686	-0.835390	-0.521093	-0.174887
58708	9.625165	-0.490110	-1.686605	0.005109	0.003655	-0.003230	-0.175422	-0.048750	0.983285	-0.520895	0.852115	-0.050683	-0.835401	-0.521080	-0.174874
58709	9.668850	-0.514471	-1.745108	0.007112	0.001446	-0.002578	-0.175433	-0.048751	0.983284	-0.520900	0.852111	-0.050689	-0.835396	-0.521085	-0.174883
58710	9.642364	-0.482278	-1.737401	0.008315	0.002443	-0.002884	-0.175434	-0.048747	0.983284	-0.520913	0.852103	-0.050695	-0.835387	-0.521099	-0.174881
58711	9.632128	-0.497536	-1.707974	0.004613	0.001889	-0.000590	-0.175451	-0.048728	0.983282	-0.520894	0.852114	-0.050717	-0.835396	-0.521083	-0.174886
58712	9.662182	-0.506208	-1.722317	0.004494	0.001984	-0.006943	-0.175433	-0.048764	0.983283	-0.520886	0.852121	-0.050675	-0.835405	-0.521069	-0.174891
58713	9.635712	-0.473965	-1.714517	0.008931	0.004114	0.000828	-0.175439	-0.048721	0.983284	-0.520900	0.852110	-0.050718	-0.835395	-0.521090	-0.174872
58714	9.612482	-0.526655	-1.729697	0.006700	0.001877	-0.006923	-0.175424	-0.048755	0.983285	-0.520907	0.852108	-0.050682	-0.835394	-0.521091	-0.174877
58715	9.665843	-0.482397	-1.728495	0.006111	0.002550	-0.002906	-0.175423	-0.048752	0.983285	-0.520904	0.852109	-0.050684	-0.835396	-0.521088	-0.174875
58716	9.641864	-0.535965	-1.662806	0.007112	0.001446	-0.002580	-0.175501	-0.048917	0.983263	-0.520960	0.852080	-0.050595	-0.835344	-0.521120	-0.175025
58717	9.665949	-0.482071	-1.727994	0.005110	0.003654	-0.003233	-0.175490	-0.048911	0.983265	-0.520949	0.852087	-0.050591	-0.835354	-0.521109	-0.175013
58718	9.609338	-0.494805	-1.713767	0.004999	-0.000887	-0.003977	-0.175513	-0.048936	0.983260	-0.520937	0.852095	-0.050580	-0.835356	-0.521094	-0.175046
58719	9.639377	-0.503451	-1.728218	0.008611	0.002107	-0.004895	-0.175506	-0.048952	0.983261	-0.520958	0.852083	-0.050567	-0.835344	-0.521113	-0.175048
58720	9.659239	-0.473548	-1.705466	0.003409	0.000892	-0.000286	-0.175533	-0.048935	0.983257	-0.520927	0.852101	-0.050589	-0.835358	-0.521085	-0.175064
58721	9.652386	-0.519576	-1.690959	0.010017	0.005207	-0.005835	-0.175496	-0.048944	0.983263	-0.520961	0.852081	-0.050569	-0.835345	-0.521117	-0.175034
58722	9.666220	-0.480700	-1.726861	0.006701	0.001876	-0.006926	-0.175480	-0.048978	0.983264	-0.520969	0.852079	-0.050532	-0.835343	-0.521117	-0.175038
58723	9.629358	-0.517588	-1.697891	0.006111	0.002550	-0.002908	-0.175479	-0.048975	0.983264	-0.520966	0.852081	-0.050534	-0.835345	-0.521114	-0.175037
58724	9.632873	-0.494308	-1.704709	0.006112	0.002550	-0.002908	-0.175479	-0.048971	0.983264	-0.520962	0.852083	-0.050536	-0.835348	-0.521111	-0.175035
58725	9.656107	-0.495207	-1.696934	0.007408	0.001109	-0.004591	-0.175482	-0.048991	0.983263	-0.520973	0.852077	-0.050523	-0.835341	-0.521119	-0.175047
58726	9.629507	-0.516943	-1.697242	0.007113	0.001446	-0.002582	-0.175491	-0.048991	0.983261	-0.520979	0.852072	-0.050529	-0.835334	-0.521126	-0.175054
58727	9.656194	-0.494831	-1.696549	0.006112	0.002550	-0.002909	-0.175491	-0.048988	0.983261	-0.520976	0.852074	-0.050531	-0.835336	-0.521123	-0.175053
58728	9.609896	-0.492254	-1.711371	0.005405	0.003317	-0.005245	-0.175472	-0.049001	0.983264	-0.520972	0.852078	-0.050508	-0.835343	-0.521116	-0.175044
58729	9.679490	-0.495336	-1.688526	0.007206	-0.000993	-0.003958	-0.175496	-0.049026	0.983259	-0.520979	0.852074	-0.050501	-0.835333	-0.521120	-0.175077
58730	9.626320	-0.485139	-1.681440	0.008022	0.002782	-0.000881	-0.175504	-0.049004	0.983258	-0.520988	0.852067	-0.050526	-0.835326	-0.521133	-0.175071
58731	9.629751	-0.516068	-1.696125	0.003612	0.002994	-0.000921	-0.175510	-0.048982	0.983258	-0.520960	0.852083	-0.050543	-0.835342	-0.521109	-0.175067
58732	9.643544	-0.477584	-1.732142	0.006112	0.002550	-0.002910	-0.175512	-0.048978	0.983258	-0.520955	0.852086	-0.050546	-0.835345	-0.521105	-0.175067
58733	9.636705	-0.523699	-1.717585	0.007021	0.003886	-0.001208	-0.175510	-0.048954	0.983260	-0.520956	0.852084	-0.050566	-0.835345	-0.521110	-0.175052
58734	9.636843	-0.469518	-1.709379	0.008613	0.002107	-0.004900	-0.175501	-0.048971	0.983260	-0.520980	0.852070	-0.050552	-0.835332	-0.521131	-0.175052
58735	9.663469	-0.501208	-1.716548	0.004202	0.002318	-0.004940	-0.175492	-0.048987	0.983261	-0.520965	0.852081	-0.050530	-0.835343	-0.521112	-0.175054
58736	9.630042	-0.515185	-1.694740	0.005615	0.000787	-0.000268	-0.175518	-0.048971	0.983257	-0.520953	0.852087	-0.050556	-0.835345	-0.521104	-0.175069
58737	9.633540	-0.491933	-1.701627	0.007612	0.003210	-0.005228	-0.175500	-0.048985	0.983260	-0.520967	0.852080	-0.050537	-0.835340	-0.521115	-0.175060
58738	9.636994	-0.522657	-1.716278	0.003612	0.002994	-0.000922	-0.175506	-0.048962	0.983260	-0.520938	0.852096	-0.050554	-0.835357	-0.521090	-0.175055
58739	9.637132	-0.468449	-1.708038	0.011021	0.004102	-0.005517	-0.175479	-0.048974	0.983264	-0.520981	0.852071	-0.050538	-0.835336	-0.521130	-0.175035
58740	9.637119	-0.522360	-1.715670	0.006617	-0.000317	0.000059	-0.175518	-0.048961	0.983258	-0.520977	0.852071	-0.050569	-0.835330	-0.521131	-0.175061
58741	9.637215	-0.468189	-1.707642	0.005407	0.003315	-0.005249	-0.175499	-0.048975	0.983261	-0.520972	0.852076	-0.050546	-0.835337	-0.521122	-0.175053
58742	9.617495	-0.497698	-1.729877	0.006113	0.002550	-0.002913	-0.175498	-0.048972	0.983261	-0.520967	0.852079	-0.050547	-0.835340	-0.521118	-0.175051
58743	9.637283	-0.521579	-1.714985	0.007706	0.000770	-0.006605	-0.175493	-0.049010	0.983260	-0.520984	0.852070	-0.050515	-0.835331	-0.521128	-0.175066
58744	9.657141	-0.491401	-1.692146	0.006315	0.004652	-0.003549	-0.175473	-0.049001	0.983264	-0.520983	0.852071	-0.050511	-0.835336	-0.521127	-0.175044
58745	9.640869	-0.497933	-1.721483	0.007115	0.001447	-0.002586	-0.175483	-0.049002	0.983262	-0.520987	0.852068	-0.050517	-0.835331	-0.521132	-0.175053
58746	9.660633	-0.522045	-1.706654	0.008117	0.000343	-0.002259	-0.175504	-0.049005	0.983258	-0.521000	0.852060	-0.050528	-0.835319	-0.521146	-0.175072
58747	9.644380	-0.474495	-1.728328	0.004203	0.002317	-0.004943	-0.175495	-0.049021	0.983259	-0.520985	0.852071	-0.050506	-0.835330	-0.521126	-0.175074
58748	9.657341	-0.490762	-1.691193	0.006726	0.004226	0.000797	-0.175499	-0.048979	0.983260	-0.520982	0.852070	-0.050545	-0.835331	-0.521132	-0.175055
58749	9.641059	-0.497422	-1.720565	0.007411	0.001108	-0.004597	-0.175502	-0.048998	0.983259	-0.520993	0.852064	-0.050532	-0.835324	-0.521139	-0.175067
58750	9.611083	-0.488222	-1.705851	0.006113	0.002550	-0.002915	-0.175502	-0.048993	0.983259	-0.520989	0.852066	-0.050535	-0.835326	-0.521136	-0.175064
58751	9.660906	-0.521207	-1.705364	0.006114	0.002550	-0.002915	-0.175501	-0.048991	0.983259	-0.520986	0.852068	-0.050536	-0.835328	-0.521133	-0.175063
58752	9.644659	-0.473642	-1.727005	0.005206	0.001213	-0.004617	-0.175505	-0.049009	0.983258	-0.520976	0.852075	-0.050520	-0.835333	-0.521120	-0.175076
58753	9.630972	-0.511742	-1.690492	0.007116	0.001447	-0.002588	-0.175515	-0.049010	0.983256	-0.520981	0.852072	-0.050526	-0.835328	-0.521126	-0.175085
58754	9.644767	-0.473200	-1.726521	0.004110	0.004757	-0.003572	-0.175495	-0.049001	0.983260	-0.520961	0.852084	-0.050519	-0.835345	-0.521106	-0.175064
58755	9.641404	-0.496182	-1.718990	0.008024	0.002784	-0.000887	-0.175503	-0.048980	0.983260	-0.520970	0.852077	-0.050543	-0.835338	-0.521120	-0.175059
58756	9.638015	-0.519028	-1.711640	0.005502	0.000874	-0.006627	-0.175496	-0.049017	0.983259	-0.520969	0.852080	-0.050507	-0.835340	-0.521111	-0.175073
58757	9.638081	-0.518569	-1.711409	0.007614	0.003209	-0.005235	-0.175478	-0.049031	0.983262	-0.520983	0.852073	-0.050488	-0.835335	-0.521122	-0.175065
58758	9.671609	-0.504180	-1.732784	0.007116	0.001447	-0.002589	-0.175488	-0.049031	0.983260	-0.520989	0.852069	-0.050495	-0.835329	-0.521128	-0.175072
58759	9.645071	-0.471979	-1.725158	0.007318	0.003549	-0.003226	-0.175477	-0.049026	0.983262	-0.520996	0.852064	-0.050495	-0.835327	-0.521136	-0.175060
58760	9.638257	-0.518004	-1.710590	0.007116	0.001447	-0.002590	-0.175487	-0.049026	0.983260	-0.521001	0.852061	-0.050501	-0.835322	-0.521142	-0.175069
58761	9.634898	-0.486809	-1.695399	0.007615	0.003209	-0.005237	-0.175469	-0.049040	0.983263	-0.521014	0.852054	-0.050482	-0.835317	-0.521152	-0.175060
58762	9.661566	-0.518575	-1.702427	0.006114	0.002550	-0.002918	-0.175468	-0.049038	0.983263	-0.521012	0.852055	-0.050483	-0.835319	-0.521150	-0.175057
58763	9.611828	-0.485193	-1.702518	0.006209	0.000110	-0.004291	-0.175480	-0.049060	0.983260	-0.521012	0.852056	-0.050471	-0.835316	-0.521146	-0.175080
58764	9.648756	-0.501856	-1.738906	0.005818	0.002890	-0.000909	-0.175488	-0.049038	0.983259	-0.521002	0.852061	-0.050491	-0.835321	-0.521140	-0.175076
58765	9.645379	-0.470852	-1.723744	0.007117	0.001447	-0.002591	-0.175499	-0.049039	0.983258	-0.521006	0.852058	-0.050498	-0.835316	-0.521146	-0.175084
58766	9.615383	-0.515783	-1.716799	0.006115	0.002550	-0.002919	-0.175498	-0.049034	0.983258	-0.521002	0.852060	-0.050500	-0.835319	-0.521142	-0.175082
58767	9.648924	-0.447526	-1.730335	0.007022	0.003889	-0.001219	-0.175495	-0.049010	0.983260	-0.521003	0.852058	-0.050520	-0.835318	-0.521147	-0.175067
58768	9.635252	-0.539795	-1.701414	0.004911	0.001552	-0.002610	-0.175505	-0.049010	0.983258	-0.520989	0.852067	-0.050522	-0.835326	-0.521133	-0.175076
58769	9.638745	-0.462512	-1.700542	0.009525	0.003444	-0.003211	-0.175496	-0.049005	0.983260	-0.521014	0.852051	-0.050527	-0.835311	-0.521160	-0.175064
58770	9.645687	-0.524319	-1.729918	0.006020	0.004991	-0.001548	-0.175483	-0.048977	0.983263	-0.521006	0.852055	-0.050543	-0.835319	-0.521155	-0.175039
58771	9.642315	-0.493190	-1.714733	0.006210	0.000109	-0.004293	-0.175496	-0.048999	0.983260	-0.521006	0.852056	-0.050531	-0.835317	-0.521152	-0.175061
58772	9.665549	-0.494195	-1.706846	0.005724	0.005332	0.000461	-0.175490	-0.048953	0.983263	-0.520995	0.852061	-0.050564	-0.835325	-0.521149	-0.175032
58773	9.639017	-0.516082	-1.706882	0.006412	0.002210	-0.004931	-0.175481	-0.048970	0.983264	-0.520998	0.852060	-0.050546	-0.835325	-0.521149	-0.175034
58774	9.658810	-0.485964	-1.684174	0.007118	0.001447	-0.002593	-0.175490	-0.048969	0.983263	-0.521004	0.852056	-0.050553	-0.835319	-0.521156	-0.175041
58775	9.635665	-0.484566	-1.691678	0.006507	-0.000232	-0.006303	-0.175496	-0.049010	0.983260	-0.521010	0.852054	-0.050522	-0.835314	-0.521155	-0.175066
58776	9.665747	-0.493277	-1.705991	0.005819	0.002891	-0.000912	-0.175502	-0.048988	0.983259	-0.521001	0.852058	-0.050542	-0.835318	-0.521150	-0.175061
58777	9.642619	-0.492023	-1.713362	0.005208	0.001211	-0.004622	-0.175504	-0.049007	0.983258	-0.520994	0.852064	-0.050525	-0.835323	-0.521139	-0.175073
58778	9.639260	-0.514905	-1.705864	0.006020	0.004992	-0.001551	-0.175489	-0.048980	0.983262	-0.520989	0.852066	-0.050540	-0.835329	-0.521138	-0.175046
58779	9.676251	-0.477646	-1.734163	0.006020	0.004992	-0.001551	-0.175476	-0.048953	0.983266	-0.520982	0.852069	-0.050555	-0.835336	-0.521135	-0.175021
58780	9.652305	-0.530866	-1.668200	0.007712	0.000766	-0.006614	-0.175470	-0.048992	0.983265	-0.521000	0.852060	-0.050521	-0.835326	-0.521146	-0.175036
58781	9.666077	-0.492233	-1.704419	0.006116	0.002550	-0.002923	-0.175469	-0.048990	0.983265	-0.520997	0.852062	-0.050522	-0.835328	-0.521143	-0.175034
58782	9.649822	-0.498770	-1.733873	0.005209	0.001211	-0.004623	-0.175473	-0.049007	0.983264	-0.520986	0.852069	-0.050506	-0.835334	-0.521129	-0.175047
58783	9.662765	-0.514755	-1.696770	0.005114	0.003653	-0.003252	-0.175461	-0.049002	0.983266	-0.520975	0.852076	-0.050503	-0.835343	-0.521119	-0.175035
58784	9.619885	-0.489374	-1.718927	0.008121	0.000346	-0.002266	-0.175481	-0.049006	0.983262	-0.520990	0.852067	-0.050513	-0.835330	-0.521134	-0.175053
58785	9.656006	-0.506629	-1.674138	0.005018	0.006095	-0.001882	-0.175456	-0.048976	0.983268	-0.520976	0.852075	-0.050522	-0.835344	-0.521123	-0.175017
58786	9.673239	-0.499300	-1.725081	0.005617	0.000790	-0.000274	-0.175482	-0.048960	0.983264	-0.520966	0.852080	-0.050548	-0.835345	-0.521117	-0.175031
58787	9.632909	-0.505611	-1.681277	0.005617	0.000790	-0.000274	-0.175510	-0.048944	0.983260	-0.520954	0.852085	-0.050575	-0.835346	-0.521109	-0.175047
58788	9.646697	-0.521159	-1.725235	0.008918	0.001764	-0.006927	-0.175496	-0.048979	0.983261	-0.520980	0.852071	-0.050542	-0.835333	-0.521129	-0.175053
58789	9.643308	-0.489732	-1.710133	0.004207	0.002313	-0.004953	-0.175487	-0.048995	0.983262	-0.520964	0.852082	-0.050520	-0.835345	-0.521110	-0.175054
58790	9.643369	-0.489440	-1.709873	0.006117	0.002550	-0.002925	-0.175486	-0.048991	0.983262	-0.520961	0.852084	-0.050522	-0.835347	-0.521107	-0.175051
58791	9.643437	-0.489258	-1.709546	0.007321	0.003549	-0.003237	-0.175475	-0.048986	0.983264	-0.520968	0.852080	-0.050522	-0.835345	-0.521115	-0.175039
58792	9.636626	-0.481185	-1.687163	0.006117	0.002550	-0.002926	-0.175476	-0.048982	0.983264	-0.520962	0.852083	-0.050525	-0.835348	-0.521109	-0.175038
58793	9.650430	-0.496814	-1.731050	0.007119	0.001448	-0.002597	-0.175486	-0.048983	0.983263	-0.520967	0.852080	-0.050531	-0.835343	-0.521115	-0.175047
58794	9.650478	-0.496663	-1.730824	0.006117	0.002550	-0.002926	-0.175485	-0.048979	0.983263	-0.520965	0.852081	-0.050533	-0.835345	-0.521113	-0.175044
58795	9.663418	-0.512540	-1.693721	0.006712	0.001867	-0.006948	-0.175469	-0.049015	0.983264	-0.520974	0.852078	-0.050496	-0.835342	-0.521115	-0.175049
58796	9.650580	-0.496150	-1.730404	0.005320	0.001133	0.001735	-0.175505	-0.048980	0.983259	-0.520954	0.852087	-0.050541	-0.835347	-0.521103	-0.175062
58797	9.633424	-0.503593	-1.678929	0.006822	0.001790	-0.000587	-0.175524	-0.048961	0.983257	-0.520953	0.852086	-0.050567	-0.835344	-0.521106	-0.175068
58798	9.620574	-0.487326	-1.715650	0.005916	0.000450	-0.002287	-0.175546	-0.048963	0.983253	-0.520945	0.852091	-0.050575	-0.835345	-0.521099	-0.175088
58799	9.650667	-0.496154	-1.729918	0.008324	0.002447	-0.002910	-0.175546	-0.048961	0.983253	-0.520960	0.852081	-0.050581	-0.835335	-0.521115	-0.175086
58800	9.636959	-0.480195	-1.685539	0.006117	0.002550	-0.002928	-0.175545	-0.048960	0.983253	-0.520958	0.852082	-0.050581	-0.835336	-0.521113	-0.175085
58801	9.663668	-0.512023	-1.692449	0.005115	0.003652	-0.003257	-0.175534	-0.048954	0.983256	-0.520947	0.852089	-0.050577	-0.835346	-0.521102	-0.175073
58802	9.613903	-0.478671	-1.692617	0.006214	0.000108	-0.004298	-0.175548	-0.048975	0.983252	-0.520945	0.852091	-0.050567	-0.835344	-0.521097	-0.175096
58803	9.644075	-0.541503	-1.714416	0.006021	0.004993	-0.001559	-0.175534	-0.048948	0.983256	-0.520939	0.852094	-0.050581	-0.835350	-0.521095	-0.175071
58804	9.650902	-0.441140	-1.720918	0.008421	0.000004	-0.004281	-0.175548	-0.048971	0.983252	-0.520960	0.852082	-0.050573	-0.835335	-0.521113	-0.175093
58805	9.637282	-0.533145	-1.691992	0.007419	0.001106	-0.004610	-0.175551	-0.048990	0.983251	-0.520971	0.852076	-0.050560	-0.835327	-0.521120	-0.175105
58806	9.667329	-0.487795	-1.698588	0.006118	0.002550	-0.002929	-0.175549	-0.048989	0.983251	-0.520970	0.852076	-0.050560	-0.835328	-0.521120	-0.175103
58807	9.610751	-0.500684	-1.684231	0.007322	0.003549	-0.003242	-0.175539	-0.048984	0.983253	-0.520977	0.852072	-0.050561	-0.835326	-0.521128	-0.175091
58808	9.644299	-0.486377	-1.705497	0.007322	0.003549	-0.003242	-0.175529	-0.048979	0.983255	-0.520983	0.852068	-0.050561	-0.835324	-0.521134	-0.175080
58809	9.644356	-0.486219	-1.705221	0.007121	0.001448	-0.002601	-0.175540	-0.048980	0.983253	-0.520988	0.852065	-0.050567	-0.835319	-0.521140	-0.175089
58810	9.647848	-0.516995	-1.720043	0.003806	-0.001890	-0.003675	-0.175572	-0.049006	0.983246	-0.520968	0.852077	-0.050558	-0.835324	-0.521117	-0.175132
58811	9.641016	-0.508903	-1.697722	0.008430	0.006990	-0.002187	-0.175539	-0.048974	0.983254	-0.520983	0.852067	-0.050570	-0.835322	-0.521136	-0.175085
58812	9.628221	-0.492520	-1.734223	0.006215	0.000107	-0.004300	-0.175552	-0.048996	0.983250	-0.520984	0.852068	-0.050558	-0.835318	-0.521133	-0.175108
58813	9.644551	-0.485395	-1.704353	0.007323	0.003549	-0.003244	-0.175542	-0.048991	0.983252	-0.520992	0.852063	-0.050559	-0.835316	-0.521141	-0.175097
58814	9.671278	-0.517143	-1.711242	0.006417	0.002207	-0.004943	-0.175533	-0.049007	0.983253	-0.520995	0.852062	-0.050541	-0.835316	-0.521142	-0.175098
58815	9.618089	-0.506998	-1.704212	0.006823	0.001791	-0.000591	-0.175551	-0.048989	0.983251	-0.520994	0.852061	-0.050567	-0.835313	-0.521144	-0.175104
58816	9.687640	-0.510047	-1.681162	0.004914	0.001551	-0.002619	-0.175562	-0.048989	0.983249	-0.520982	0.852068	-0.050569	-0.835318	-0.521133	-0.175113
58817	9.625018	-0.460483	-1.718114	0.005615	0.005409	-0.005916	-0.175522	-0.048997	0.983256	-0.520980	0.852071	-0.050540	-0.835327	-0.521127	-0.175084
58818	9.638021	-0.530571	-1.688585	0.007625	-0.001410	0.000381	-0.175570	-0.048988	0.983247	-0.520985	0.852066	-0.050576	-0.835314	-0.521137	-0.175119
58819	9.641338	-0.453292	-1.688278	0.008722	-0.000339	-0.006295	-0.175576	-0.049029	0.983244	-0.521010	0.852053	-0.050549	-0.835298	-0.521155	-0.175145
58820	9.644959	-0.538125	-1.710502	0.005820	0.002893	-0.000922	-0.175583	-0.049008	0.983244	-0.521002	0.852056	-0.050569	-0.835301	-0.521152	-0.175140
58821	9.678376	-0.469914	-1.724386	0.008125	0.000347	-0.002274	-0.175604	-0.049012	0.983240	-0.521015	0.852048	-0.050580	-0.835288	-0.521165	-0.175159
58822	9.651851	-0.491726	-1.724564	0.007622	0.003206	-0.005258	-0.175587	-0.049025	0.983242	-0.521026	0.852042	-0.050562	-0.835285	-0.521173	-0.175151
58823	9.618469	-0.505532	-1.702503	0.006320	0.004650	-0.003578	-0.175566	-0.049017	0.983247	-0.521026	0.852042	-0.050557	-0.835290	-0.521173	-0.175129
58824	9.641699	-0.506359	-1.694603	0.003711	0.000553	-0.002308	-0.175586	-0.049020	0.983243	-0.521002	0.852056	-0.050561	-0.835300	-0.521150	-0.175149
58825	9.664940	-0.507064	-1.686667	0.005616	0.005408	-0.005919	-0.175546	-0.049028	0.983250	-0.521000	0.852059	-0.050532	-0.835310	-0.521144	-0.175119
58826	9.648742	-0.513695	-1.716013	0.008126	0.000348	-0.002274	-0.175568	-0.049031	0.983246	-0.521014	0.852050	-0.050543	-0.835297	-0.521158	-0.175139
58827	9.618711	-0.504498	-1.701447	0.004211	0.002309	-0.004963	-0.175559	-0.049047	0.983246	-0.520998	0.852061	-0.050521	-0.835308	-0.521139	-0.175140
58828	9.672029	-0.514358	-1.707831	0.007930	0.005235	0.000460	-0.175552	-0.049003	0.983250	-0.521009	0.852053	-0.050558	-0.835303	-0.521157	-0.175111
58829	9.645418	-0.482343	-1.700310	0.004915	0.001551	-0.002622	-0.175562	-0.049003	0.983248	-0.520995	0.852061	-0.050560	-0.835310	-0.521144	-0.175120
58830	9.648992	-0.513142	-1.714770	0.006321	0.004650	-0.003580	-0.175539	-0.048995	0.983253	-0.520995	0.852061	-0.050554	-0.835315	-0.521144	-0.175096
58831	9.652458	-0.489894	-1.721688	0.007123	0.001449	-0.002606	-0.175549	-0.048996	0.983251	-0.521000	0.852058	-0.050561	-0.835309	-0.521149	-0.175105
58832	9.619043	-0.503825	-1.699765	0.005117	0.003651	-0.003267	-0.175536	-0.048991	0.983253	-0.520990	0.852064	-0.050556	-0.835318	-0.521140	-0.175092
58833	9.649178	-0.512602	-1.713886	0.007123	0.001449	-0.002606	-0.175547	-0.048991	0.983251	-0.520995	0.852061	-0.050562	-0.835313	-0.521145	-0.175101
58834	9.632869	-0.465298	-1.735690	0.008529	0.004548	-0.003565	-0.175526	-0.048984	0.983255	-0.521014	0.852049	-0.050562	-0.835305	-0.521165	-0.175078
58835	9.645927	-0.535313	-1.705924	0.006120	0.002550	-0.002937	-0.175526	-0.048981	0.983256	-0.521011	0.852051	-0.050563	-0.835307	-0.521162	-0.175077
58836	9.652764	-0.489128	-1.720188	0.006824	0.001793	-0.000595	-0.175543	-0.048962	0.983253	-0.521010	0.852050	-0.050589	-0.835304	-0.521165	-0.175082
58837	9.649413	-0.512225	-1.712676	0.005821	0.002894	-0.000926	-0.175550	-0.048941	0.983253	-0.521001	0.852055	-0.050609	-0.835309	-0.521160	-0.175077
58838	9.656262	-0.465923	-1.726912	0.006420	0.002206	-0.004949	-0.175543	-0.048957	0.983254	-0.521002	0.852055	-0.050592	-0.835309	-0.521158	-0.175079
58839	9.619452	-0.502817	-1.697747	0.006120	0.002550	-0.002938	-0.175542	-0.048954	0.983254	-0.520999	0.852057	-0.050593	-0.835311	-0.521155	-0.175077
58840	9.653005	-0.488504	-1.719017	0.006322	0.004650	-0.003583	-0.175522	-0.048946	0.983258	-0.520997	0.852058	-0.050589	-0.835317	-0.521154	-0.175055
58841	9.649682	-0.511268	-1.711445	0.005216	0.001207	-0.004635	-0.175524	-0.048965	0.983257	-0.520989	0.852064	-0.050571	-0.835321	-0.521142	-0.175068
58842	9.649733	-0.510999	-1.711235	0.006121	0.002550	-0.002939	-0.175523	-0.048962	0.983257	-0.520987	0.852065	-0.050573	-0.835323	-0.521141	-0.175066
58843	9.606854	-0.485568	-1.733528	0.006720	0.001861	-0.006962	-0.175508	-0.048998	0.983258	-0.520996	0.852062	-0.050536	-0.835320	-0.521143	-0.175071
58844	9.673045	-0.511253	-1.703003	0.008530	0.004548	-0.003569	-0.175488	-0.048991	0.983262	-0.521013	0.852052	-0.050535	-0.835314	-0.521160	-0.175049
58845	9.643037	-0.502109	-1.688241	0.006121	0.002550	-0.002940	-0.175487	-0.048988	0.983262	-0.521010	0.852053	-0.050536	-0.835316	-0.521157	-0.175048
58846	9.656921	-0.517962	-1.732038	0.006825	0.001794	-0.000597	-0.175506	-0.048969	0.983260	-0.521008	0.852053	-0.050562	-0.835313	-0.521160	-0.175054
58847	9.660357	-0.494845	-1.739064	0.006121	0.002550	-0.002940	-0.175506	-0.048967	0.983260	-0.521005	0.852055	-0.050563	-0.835315	-0.521157	-0.175053
58848	9.646716	-0.532844	-1.702227	0.008329	0.002448	-0.002924	-0.175507	-0.048965	0.983260	-0.521019	0.852045	-0.050569	-0.835306	-0.521173	-0.175052
58849	9.653562	-0.486543	-1.716442	0.005118	0.003651	-0.003272	-0.175495	-0.048960	0.983262	-0.521009	0.852052	-0.050565	-0.835315	-0.521162	-0.175040
58850	9.639912	-0.524542	-1.679653	0.008129	0.000349	-0.002279	-0.175518	-0.048962	0.983258	-0.521019	0.852045	-0.050577	-0.835304	-0.521174	-0.175060
58851	9.653647	-0.486259	-1.716042	0.006121	0.002550	-0.002941	-0.175518	-0.048960	0.983258	-0.521016	0.852047	-0.050578	-0.835306	-0.521171	-0.175058
58852	9.657242	-0.517103	-1.730505	0.006122	0.002550	-0.002941	-0.175516	-0.048958	0.983258	-0.521013	0.852049	-0.050579	-0.835308	-0.521168	-0.175056
58853	9.653772	-0.485916	-1.715439	0.009534	0.003447	-0.003241	-0.175507	-0.048953	0.983260	-0.521039	0.852033	-0.050583	-0.835294	-0.521195	-0.175044
58854	9.637598	-0.492732	-1.744770	0.006122	0.002550	-0.002942	-0.175507	-0.048951	0.983260	-0.521036	0.852034	-0.050584	-0.835296	-0.521192	-0.175043
58855	9.653915	-0.485563	-1.714733	0.008531	0.004548	-0.003573	-0.175486	-0.048944	0.983265	-0.521054	0.852023	-0.050583	-0.835289	-0.521211	-0.175021
58856	9.644681	-0.500331	-1.766026	0.006122	0.002550	-0.002943	-0.175485	-0.048941	0.983265	-0.521051	0.852025	-0.050584	-0.835291	-0.521208	-0.175018
58857	9.654042	-0.485106	-1.714146	0.005218	0.001206	-0.004639	-0.175487	-0.048960	0.983264	-0.521044	0.852031	-0.050567	-0.835295	-0.521197	-0.175030
58858	9.657633	-0.516053	-1.728631	0.005522	0.003241	0.001080	-0.175501	-0.048920	0.983263	-0.521029	0.852037	-0.050606	-0.835301	-0.521190	-0.175023
58859	9.680873	-0.516962	-1.720585	0.011040	0.004101	-0.005571	-0.175474	-0.048932	0.983267	-0.521072	0.852012	-0.050590	-0.835280	-0.521230	-0.175003
58860	9.624118	-0.475746	-1.698942	0.002509	-0.000447	-0.001996	-0.175503	-0.048938	0.983262	-0.521037	0.852033	-0.050594	-0.835296	-0.521195	-0.175033
58861	9.657790	-0.515567	-1.727898	0.006122	0.002550	-0.002944	-0.175502	-0.048935	0.983262	-0.521034	0.852035	-0.050595	-0.835298	-0.521192	-0.175031
58862	9.634509	-0.460331	-1.727896	0.004918	0.001551	-0.002628	-0.175513	-0.048936	0.983260	-0.521020	0.852043	-0.050597	-0.835304	-0.521179	-0.175041
58863	9.647574	-0.530389	-1.698129	0.005822	0.002896	-0.000933	-0.175520	-0.048915	0.983260	-0.521011	0.852048	-0.050618	-0.835308	-0.521174	-0.175037
58864	9.661127	-0.438148	-1.727162	0.006926	-0.000650	-0.001965	-0.175551	-0.048921	0.983254	-0.521013	0.852046	-0.050629	-0.835300	-0.521177	-0.175066
58865	9.631427	-0.537276	-1.727351	0.005019	0.006095	-0.001912	-0.175526	-0.048892	0.983260	-0.520999	0.852054	-0.050638	-0.835314	-0.521166	-0.175030
58866	9.661422	-0.491945	-1.733962	0.006222	0.000105	-0.004309	-0.175538	-0.048912	0.983257	-0.520999	0.852054	-0.050628	-0.835312	-0.521163	-0.175051
58867	9.627986	-0.505722	-1.712169	0.008632	0.002103	-0.004942	-0.175531	-0.048929	0.983257	-0.521021	0.852042	-0.050613	-0.835300	-0.521182	-0.175053
58868	9.651211	-0.506346	-1.704270	0.006423	0.002204	-0.004957	-0.175523	-0.048945	0.983258	-0.521023	0.852042	-0.050595	-0.835300	-0.521181	-0.175055
58869	9.654670	-0.482972	-1.711208	0.004115	0.004750	-0.003609	-0.175501	-0.048937	0.983262	-0.521005	0.852054	-0.050586	-0.835317	-0.521162	-0.175033
58870	9.635136	-0.512835	-1.733238	0.007127	0.001450	-0.002614	-0.175510	-0.048938	0.983261	-0.521009	0.852051	-0.050591	-0.835312	-0.521167	-0.175040
58871	9.651215	-0.451599	-1.696009	0.007127	0.001450	-0.002614	-0.175520	-0.048938	0.983259	-0.521014	0.852047	-0.050598	-0.835307	-0.521172	-0.175049
58872	9.621522	-0.550669	-1.696275	0.004919	0.001551	-0.002630	-0.175530	-0.048938	0.983257	-0.520999	0.852056	-0.050600	-0.835313	-0.521158	-0.175059
58873	9.647935	-0.474147	-1.688288	0.010138	0.002755	-0.007272	-0.175506	-0.048972	0.983260	-0.521038	0.852035	-0.050566	-0.835295	-0.521190	-0.175053
58874	9.648217	-0.527757	-1.695292	0.006625	0.004303	-0.005608	-0.175476	-0.048983	0.983264	-0.521044	0.852032	-0.050541	-0.835298	-0.521192	-0.175033
58875	9.648103	-0.473437	-1.687532	0.003614	0.002997	-0.000951	-0.175482	-0.048962	0.983264	-0.521016	0.852048	-0.050557	-0.835313	-0.521168	-0.175029
58876	9.628578	-0.503293	-1.709554	0.005420	0.003304	-0.005292	-0.175465	-0.048974	0.983267	-0.521009	0.852054	-0.050536	-0.835321	-0.521159	-0.175021
58877	9.635582	-0.511014	-1.731292	0.007128	0.001450	-0.002616	-0.175475	-0.048974	0.983265	-0.521014	0.852050	-0.050542	-0.835316	-0.521164	-0.175030
58878	9.655221	-0.480756	-1.708721	0.003915	0.002651	-0.002963	-0.175475	-0.048971	0.983265	-0.520993	0.852063	-0.050540	-0.835329	-0.521143	-0.175029
58879	9.625364	-0.525738	-1.701528	0.009337	0.001349	-0.002601	-0.175486	-0.048972	0.983263	-0.521016	0.852049	-0.050550	-0.835312	-0.521167	-0.175038
58880	9.658685	-0.457513	-1.715571	0.005823	0.002897	-0.000937	-0.175492	-0.048950	0.983263	-0.521009	0.852051	-0.050572	-0.835315	-0.521164	-0.175032
58881	9.655589	-0.534353	-1.715306	0.005722	0.002956	-0.007305	-0.175466	-0.048983	0.983266	-0.521011	0.852053	-0.050529	-0.835320	-0.521158	-0.175026
58882	9.616077	-0.486149	-1.744938	0.005521	0.003244	0.001075	-0.175480	-0.048941	0.983266	-0.520996	0.852059	-0.050570	-0.835326	-0.521152	-0.175018
58883	9.675317	-0.503939	-1.692242	0.006626	0.004302	-0.005611	-0.175451	-0.048953	0.983270	-0.521002	0.852057	-0.050546	-0.835328	-0.521154	-0.174999
58884	9.639384	-0.486732	-1.736571	0.009337	0.001350	-0.002602	-0.175461	-0.048953	0.983268	-0.521025	0.852043	-0.050556	-0.835312	-0.521178	-0.175006
58885	9.632694	-0.532688	-1.721700	0.006124	0.002550	-0.002950	-0.175461	-0.048951	0.983269	-0.521022	0.852044	-0.050557	-0.835314	-0.521176	-0.175005
58886	9.635906	-0.455390	-1.721402	0.008333	0.002450	-0.002935	-0.175461	-0.048947	0.983269	-0.521036	0.852036	-0.050563	-0.835305	-0.521191	-0.175002
58887	9.622492	-0.547407	-1.691824	0.006124	0.002550	-0.002951	-0.175460	-0.048945	0.983269	-0.521033	0.852037	-0.050564	-0.835307	-0.521188	-0.175001
58888	9.659159	-0.456122	-1.713274	0.005623	0.000798	-0.000288	-0.175490	-0.048929	0.983265	-0.521021	0.852043	-0.050591	-0.835308	-0.521180	-0.175018
58889	9.702140	-0.480836	-1.690506	0.007732	0.000756	-0.006643	-0.175485	-0.048968	0.983263	-0.521038	0.852035	-0.050558	-0.835299	-0.521190	-0.175034
58890	9.636537	-0.562947	-1.735168	0.003513	0.005444	0.000408	-0.175478	-0.048922	0.983267	-0.521007	0.852052	-0.050588	-0.835320	-0.521166	-0.175005
58891	9.610755	-0.476770	-1.801218	0.013454	0.006099	-0.006221	-0.175430	-0.048929	0.983275	-0.521071	0.852014	-0.050570	-0.835290	-0.521228	-0.174964
58892	9.645756	-0.493386	-1.675231	0.005925	0.000451	-0.002301	-0.175451	-0.048931	0.983271	-0.521065	0.852017	-0.050577	-0.835289	-0.521222	-0.174983
58893	9.636530	-0.508279	-1.726817	0.008435	0.000003	-0.004299	-0.175464	-0.048954	0.983268	-0.521084	0.852006	-0.050569	-0.835275	-0.521238	-0.175006
58894	9.663094	-0.485933	-1.726325	0.003916	0.002650	-0.002967	-0.175463	-0.048951	0.983268	-0.521062	0.852019	-0.050566	-0.835289	-0.521217	-0.175004
58895	9.636630	-0.507857	-1.726381	0.008334	0.002450	-0.002938	-0.175463	-0.048949	0.983268	-0.521078	0.852010	-0.050571	-0.835279	-0.521233	-0.175002
58896	9.629741	-0.499579	-1.704084	0.007632	0.003201	-0.005284	-0.175445	-0.048963	0.983271	-0.521091	0.852003	-0.050552	-0.835274	-0.521243	-0.174993
58897	9.649613	-0.523439	-1.688676	0.004517	0.004345	0.000739	-0.175448	-0.048920	0.983272	-0.521068	0.852015	-0.050586	-0.835288	-0.521227	-0.174975
58898	9.656366	-0.477213	-1.703236	0.006329	-0.002343	-0.005676	-0.175474	-0.048966	0.983266	-0.521072	0.852014	-0.050561	-0.835280	-0.521224	-0.175021
58899	9.633229	-0.476044	-1.710854	0.003614	0.002998	-0.000956	-0.175480	-0.048944	0.983266	-0.521044	0.852030	-0.050577	-0.835296	-0.521200	-0.175016
58900	9.649731	-0.522964	-1.688148	0.009539	0.003449	-0.003258	-0.175470	-0.048940	0.983268	-0.521070	0.852014	-0.050581	-0.835282	-0.521227	-0.175004
58901	9.630000	-0.498827	-1.702839	0.006126	0.002550	-0.002954	-0.175470	-0.048937	0.983268	-0.521067	0.852016	-0.050582	-0.835284	-0.521224	-0.175002
58902	9.653217	-0.499557	-1.694888	0.003916	0.002650	-0.002969	-0.175468	-0.048934	0.983268	-0.521046	0.852029	-0.050580	-0.835298	-0.521203	-0.175001
58903	9.610587	-0.528461	-1.724509	0.008837	0.004200	-0.005605	-0.175440	-0.048946	0.983273	-0.521070	0.852015	-0.050559	-0.835289	-0.521224	-0.174982
58904	9.660344	-0.506804	-1.716174	0.006730	0.001853	-0.006980	-0.175424	-0.048981	0.983274	-0.521079	0.852012	-0.050522	-0.835286	-0.521226	-0.174986
58905	9.630547	-0.551560	-1.708851	0.005121	0.003649	-0.003288	-0.175412	-0.048976	0.983276	-0.521068	0.852019	-0.050518	-0.835296	-0.521215	-0.174975
58906	9.644298	-0.513238	-1.745221	0.008638	0.002102	-0.004954	-0.175405	-0.048993	0.983277	-0.521089	0.852007	-0.050504	-0.835284	-0.521234	-0.174976
58907	9.627090	-0.519722	-1.693593	0.016071	0.003204	-0.009591	-0.175364	-0.049044	0.983281	-0.521181	0.851953	-0.050457	-0.835235	-0.521316	-0.174963
58908	9.618233	-0.588567	-1.752057	0.031236	0.002856	-0.007483	-0.175337	-0.049078	0.983284	-0.521396	0.851822	-0.050457	-0.835107	-0.521527	-0.174945
58909	9.661005	-0.559229	-1.721690	0.050222	0.000611	-0.009062	-0.175321	-0.049138	0.983284	-0.521772	0.851591	-0.050476	-0.834875	-0.521899	-0.174941
58910	9.624242	-0.596482	-1.692231	0.071321	0.000715	-0.009281	-0.175302	-0.049199	0.983285	-0.522324	0.851249	-0.050529	-0.834534	-0.522451	-0.174924
58911	9.653882	-0.497750	-1.691628	0.087703	0.001369	-0.007531	-0.175288	-0.049242	0.983285	-0.523009	0.850822	-0.050627	-0.834108	-0.523142	-0.174893
58912	9.657544	-0.529856	-1.705667	0.100477	-0.000974	-0.004833	-0.175307	-0.049274	0.983280	-0.523796	0.850329	-0.050775	-0.833610	-0.523940	-0.174878
58913	9.634429	-0.530317	-1.712700	0.118580	0.002427	-0.006116	-0.175290	-0.049299	0.983282	-0.524736	0.849740	-0.050942	-0.833022	-0.524893	-0.174820
58914	9.664595	-0.541109	-1.726197	0.129860	-0.000559	-0.001121	-0.175325	-0.049297	0.983276	-0.525760	0.849092	-0.051177	-0.832369	-0.525939	-0.174786
58915	9.645064	-0.573478	-1.747679	0.155128	-0.002714	-0.007161	-0.175346	-0.049358	0.983269	-0.527004	0.848307	-0.051397	-0.831577	-0.527199	-0.174759
58916	9.637527	-0.459368	-1.711243	0.165416	0.002406	-0.000515	-0.175360	-0.049336	0.983268	-0.528320	0.847470	-0.051701	-0.830739	-0.528546	-0.174677
58917	9.657356	-0.486231	-1.695052	0.184875	-0.000226	0.002068	-0.175409	-0.049306	0.983260	-0.529793	0.846528	-0.052063	-0.829790	-0.530056	-0.174610
58918	9.633891	-0.434760	-1.695230	0.197910	-0.000463	0.003934	-0.175469	-0.049261	0.983252	-0.531368	0.845515	-0.052467	-0.828769	-0.531675	-0.174537
58919	9.661220	-0.579091	-1.713901	0.213475	-0.001161	0.003751	-0.175535	-0.049222	0.983242	-0.533070	0.844416	-0.052896	-0.827661	-0.533422	-0.174463
58920	9.631569	-0.467284	-1.766819	0.227241	-0.002129	0.007886	-0.175631	-0.049152	0.983228	-0.534877	0.843241	-0.053389	-0.826475	-0.535283	-0.174390
58921	9.654639	-0.688660	-1.702252	0.248273	-0.001664	0.015648	-0.175765	-0.049016	0.983211	-0.536841	0.841954	-0.053995	-0.825172	-0.537319	-0.174300
58922	9.651194	-0.501987	-1.749306	0.256841	-0.001709	0.010976	-0.175874	-0.048919	0.983196	-0.538881	0.840613	-0.054570	-0.823818	-0.539423	-0.174204
58923	9.660051	-0.437454	-1.690872	0.277916	-0.001229	0.018619	-0.176021	-0.048756	0.983178	-0.541077	0.839156	-0.055257	-0.822346	-0.541701	-0.174090
58924	9.637282	-0.551913	-1.709137	0.280966	-0.002058	0.020597	-0.176186	-0.048581	0.983157	-0.543290	0.837677	-0.055968	-0.820850	-0.544001	-0.173981
58925	9.656447	-0.473943	-1.680619	0.301682	-0.001222	0.023762	-0.176362	-0.048376	0.983136	-0.545664	0.836081	-0.056745	-0.819236	-0.546470	-0.173850
58926	9.639868	-0.435501	-1.703237	0.307080	-0.002103	0.032017	-0.176591	-0.048107	0.983108	-0.548062	0.834451	-0.057613	-0.817584	-0.548978	-0.173722
58927	9.624125	-0.615053	-1.747341	0.325220	-0.000838	0.030712	-0.176803	-0.047842	0.983083	-0.550606	0.832713	-0.058499	-0.815827	-0.551634	-0.173568
58928	9.662490	-0.399129	-1.687829	0.353498	-0.003487	0.034606	-0.177059	-0.047561	0.983050	-0.553367	0.830812	-0.059472	-0.813901	-0.554518	-0.173421
58929	9.632909	-0.616321	-1.692340	0.345819	0.002845	0.036403	-0.177274	-0.047230	0.983028	-0.556056	0.828944	-0.060449	-0.812020	-0.557334	-0.173213
58930	9.669135	-0.427180	-1.706545	0.354926	-0.002056	0.041477	-0.177558	-0.046885	0.982993	-0.558803	0.827018	-0.061491	-0.810069	-0.560217	-0.173043
58931	9.642492	-0.513894	-1.708870	0.377319	-0.000631	0.041834	-0.177834	-0.046531	0.982960	-0.561723	0.824955	-0.062574	-0.807986	-0.563279	-0.172843
58932	9.612338	-0.623938	-1.701885	0.382530	-0.001043	0.051803	-0.178171	-0.046097	0.982919	-0.564660	0.822857	-0.063764	-0.805862	-0.566376	-0.172639
58933	9.647786	-0.540955	-1.645754	0.388258	-0.002370	0.051368	-0.178518	-0.045677	0.982876	-0.567636	0.820713	-0.064958	-0.803692	-0.569512	-0.172440
58934	9.640649	-0.706726	-1.634116	0.405166	-0.001608	0.058310	-0.178899	-0.045196	0.982829	-0.570726	0.818464	-0.066249	-0.801416	-0.572778	-0.172217
58935	9.601851	-0.624056	-1.741666	0.397941	-0.002570	0.062430	-0.179314	-0.044688	0.982776	-0.573741	0.816245	-0.067567	-0.799167	-0.575975	-0.172004
58936	9.670801	-0.747860	-1.723188	0.416211	-0.003303	0.067593	-0.179766	-0.044145	0.982718	-0.576884	0.813909	-0.068966	-0.796799	-0.579313	-0.171779
58937	9.679659	-0.688374	-1.666528	0.410332	0.001305	0.071840	-0.180208	-0.043542	0.982664	-0.579963	0.811596	-0.070396	-0.794461	-0.582595	-0.171509
58938	9.634329	-0.489898	-1.747568	0.424478	0.000369	0.075005	-0.180678	-0.042920	0.982605	-0.583138	0.809187	-0.071880	-0.792027	-0.585981	-0.171231
58939	9.635085	-0.577749	-1.598880	0.442728	-0.000563	0.073611	-0.181150	-0.042317	0.982545	-0.586449	0.806656	-0.073381	-0.789470	-0.589505	-0.170943
58940	9.652995	-0.597022	-1.728649	0.453390	0.000131	0.078329	-0.181646	-0.041674	0.982480	-0.589823	0.804047	-0.074944	-0.786837	-0.593103	-0.170633
58941	9.634042	-0.887485	-1.685682	0.465400	-0.000702	0.081311	-0.182170	-0.041015	0.982411	-0.593275	0.801352	-0.076556	-0.784117	-0.596786	-0.170315
58942	9.616525	-0.796177	-1.625679	0.455614	0.001475	0.088607	-0.182723	-0.040286	0.982339	-0.596623	0.798700	-0.078221	-0.781443	-0.600379	-0.169976
58943	9.653346	-0.724147	-1.652647	0.467657	0.000641	0.091523	-0.183302	-0.039542	0.982261	-0.600048	0.795961	-0.079934	-0.778680	-0.604056	-0.169629
58944	9.660008	-0.524399	-1.583497	0.481983	-0.000314	0.094271	-0.183909	-0.038785	0.982178	-0.603565	0.793117	-0.081697	-0.775814	-0.607833	-0.169271
58945	9.602842	-0.670666	-1.648634	0.473654	0.000664	0.106189	-0.184584	-0.037930	0.982085	-0.606982	0.790311	-0.083560	-0.772983	-0.611531	-0.168901
58946	9.671596	-0.689701	-1.622072	0.482084	0.001195	0.104375	-0.185247	-0.037089	0.981992	-0.610452	0.787434	-0.085418	-0.770085	-0.615283	-0.168511
58947	9.627149	-0.794395	-1.645682	0.492997	-0.000618	0.107504	-0.185948	-0.036238	0.981891	-0.613987	0.784471	-0.087323	-0.767101	-0.619106	-0.168120
58948	9.608955	-0.813284	-1.589906	0.519244	-0.000640	0.106682	-0.186647	-0.035397	0.981789	-0.617708	0.781326	-0.089262	-0.763937	-0.623119	-0.167697
58949	9.642406	-0.766904	-1.608643	0.519817	0.002138	0.112899	-0.187367	-0.034493	0.981684	-0.621404	0.778157	-0.091261	-0.760756	-0.627122	-0.167236
58950	9.587956	-0.895002	-1.679266	0.535370	0.000053	0.115541	-0.188124	-0.033586	0.981571	-0.625196	0.774870	-0.093309	-0.757455	-0.631228	-0.166770
58951	9.671132	-1.014296	-1.622090	0.526071	-0.000603	0.119441	-0.188915	-0.032658	0.981450	-0.628893	0.771620	-0.095377	-0.754192	-0.635245	-0.166309
58952	9.570527	-1.022313	-1.627113	0.523176	0.001396	0.126176	-0.189738	-0.031668	0.981324	-0.632537	0.768369	-0.097504	-0.750931	-0.639224	-0.165820
58953	9.661742	-0.913960	-1.662587	0.516138	0.004816	0.124104	-0.190527	-0.030677	0.981203	-0.636114	0.765140	-0.099597	-0.747702	-0.643132	-0.165294
58954	9.677014	-1.053092	-1.556365	0.523110	0.003180	0.131479	-0.191379	-0.029644	0.981068	-0.639711	0.761848	-0.101770	-0.744408	-0.647077	-0.164765
58955	9.603256	-1.107944	-1.642446	0.528091	0.007871	0.132173	-0.192206	-0.028580	0.980938	-0.643326	0.758502	-0.103955	-0.741072	-0.651044	-0.164175
58956	9.620574	-1.009139	-1.611381	0.561461	0.003084	0.136171	-0.193099	-0.027521	0.980793	-0.647161	0.754916	-0.106231	-0.737492	-0.655244	-0.163584
58957	9.605576	-0.865142	-1.559988	0.556551	0.004311	0.134619	-0.193979	-0.026471	0.980648	-0.650942	0.751337	-0.108480	-0.733926	-0.659388	-0.162975
58958	9.645019	-1.032265	-1.602602	0.573312	0.003619	0.138264	-0.194893	-0.025403	0.980496	-0.654817	0.747624	-0.110788	-0.730227	-0.663637	-0.162341
58959	9.537664	-1.172152	-1.590221	0.563276	0.006205	0.140943	-0.195811	-0.024303	0.980340	-0.658591	0.743953	-0.113103	-0.726578	-0.667790	-0.161680
58960	9.613913	-1.225520	-1.508740	0.567421	0.005324	0.145826	-0.196773	-0.023178	0.980175	-0.662364	0.740230	-0.115468	-0.722879	-0.671954	-0.161010
58961	9.613957	-0.979437	-1.577482	0.553288	0.005692	0.152077	-0.197780	-0.022010	0.979999	-0.666001	0.736580	-0.117867	-0.719253	-0.675992	-0.160339
58962	9.596053	-0.928398	-1.444007	0.574676	0.007224	0.156287	-0.198810	-0.020805	0.979817	-0.669761	0.732761	-0.120338	-0.715468	-0.680168	-0.159615
58963	9.666887	-1.391793	-1.585087	0.565770	0.003644	0.157161	-0.199877	-0.019625	0.979624	-0.673433	0.728978	-0.122800	-0.711714	-0.684256	-0.158922
58964	9.554310	-1.322667	-1.552640	0.580749	0.006494	0.152697	-0.200900	-0.018464	0.979438	-0.677197	0.725066	-0.125236	-0.707844	-0.688432	-0.158169
58965	9.533854	-1.413606	-1.567276	0.577860	0.004135	0.158894	-0.201988	-0.017280	0.979236	-0.680904	0.721149	-0.127725	-0.703968	-0.692564	-0.157429
58966	9.680930	-1.343013	-1.541237	0.575703	0.007823	0.162447	-0.203079	-0.016052	0.979031	-0.684565	0.717223	-0.130240	-0.700092	-0.696659	-0.156642
58967	9.514176	-1.402603	-1.502986	0.593292	0.008465	0.162728	-0.204175	-0.014823	0.978822	-0.688324	0.713148	-0.132780	-0.696076	-0.700857	-0.155810
58968	9.669985	-0.939494	-1.497012	0.603501	0.008187	0.166357	-0.205305	-0.013577	0.978604	-0.692121	0.708975	-0.135366	-0.691967	-0.705103	-0.154953
58969	9.589998	-1.357482	-1.491993	0.611452	0.008080	0.170116	-0.206468	-0.012312	0.978376	-0.695938	0.704718	-0.137996	-0.687780	-0.709381	-0.154070
58970	9.598333	-1.464240	-1.515235	0.600950	0.009440	0.175597	-0.207666	-0.011006	0.978138	-0.699644	0.700509	-0.140658	-0.683647	-0.713558	-0.153172
58971	9.572513	-1.272837	-1.356759	0.628072	0.010499	0.167523	-0.208808	-0.009756	0.977908	-0.703525	0.696078	-0.143276	-0.679302	-0.717900	-0.152210
58972	9.600833	-1.521087	-1.364060	0.606393	0.004453	0.169147	-0.210009	-0.008546	0.977662	-0.707227	0.691774	-0.145871	-0.675075	-0.722063	-0.151322
58973	9.560302	-1.404911	-1.469508	0.607720	0.006920	0.172589	-0.211224	-0.007301	0.977410	-0.710903	0.687434	-0.148495	-0.670821	-0.726210	-0.150393
58974	9.532623	-1.584553	-1.386366	0.620424	0.006414	0.175709	-0.212471	-0.006046	0.977149	-0.714630	0.682975	-0.151163	-0.666454	-0.730417	-0.149433
58975	9.606529	-1.226826	-1.447605	0.636552	0.004594	0.178812	-0.213760	-0.004791	0.976874	-0.718427	0.678368	-0.153879	-0.661943	-0.734706	-0.148450
58976	9.608722	-1.466573	-1.529674	0.635397	0.007895	0.184219	-0.215073	-0.003484	0.976592	-0.722174	0.673742	-0.156639	-0.657425	-0.738958	-0.147420
58977	9.558817	-1.900904	-1.381221	0.628921	0.010622	0.179819	-0.216343	-0.002195	0.976315	-0.725858	0.669134	-0.159340	-0.652936	-0.743138	-0.146356
58978	9.547380	-1.511945	-1.342202	0.637669	0.011816	0.180324	-0.217617	-0.000901	0.976034	-0.729567	0.664433	-0.162051	-0.648363	-0.747347	-0.145249
58979	9.555731	-1.801441	-1.441150	0.635549	0.008402	0.182485	-0.218935	0.000373	0.975739	-0.733226	0.659719	-0.164773	-0.643775	-0.751512	-0.144162
58980	9.583323	-1.876975	-1.444015	0.627982	0.005879	0.182969	-0.220280	0.001623	0.975435	-0.736805	0.655034	-0.167481	-0.639215	-0.755598	-0.143095
58981	9.554363	-1.688013	-1.355231	0.650030	0.010298	0.188358	-0.221644	0.002933	0.975123	-0.740480	0.650153	-0.170265	-0.634478	-0.759798	-0.141931
58982	9.562880	-1.562713	-1.301429	0.635176	0.009149	0.191598	-0.223046	0.004246	0.974799	-0.744022	0.645356	-0.173053	-0.629827	-0.763870	-0.140785
58983	9.615711	-1.394769	-1.302896	0.647453	0.008945	0.191964	-0.224460	0.005550	0.974467	-0.747607	0.640437	-0.175853	-0.625061	-0.767991	-0.139603
58984	9.530051	-1.954885	-1.198966	0.657495	0.007312	0.184559	-0.225836	0.006786	0.974142	-0.751238	0.635412	-0.178586	-0.620193	-0.772144	-0.138401
58985	9.552580	-1.764143	-1.263092	0.662755	0.006808	0.192729	-0.227283	0.008060	0.973795	-0.754849	0.630316	-0.181398	-0.615261	-0.776297	-0.137176
58986	9.473794	-1.803429	-1.332172	0.673890	0.008310	0.194385	-0.228741	0.009346	0.973442	-0.758488	0.625104	-0.184232	-0.610224	-0.780486	-0.135898
58987	9.534755	-1.849156	-1.281003	0.663542	0.005778	0.191026	-0.230196	0.010581	0.973087	-0.762036	0.619942	-0.187010	-0.605236	-0.784576	-0.134645
58988	9.510353	-1.754276	-1.282705	0.671067	0.011967	0.195346	-0.231654	0.011882	0.972726	-0.765583	0.614692	-0.189832	-0.600182	-0.788678	-0.133299
58989	9.602898	-1.948287	-1.323461	0.661476	0.011716	0.195187	-0.233120	0.013169	0.972359	-0.769037	0.609488	-0.192629	-0.595178	-0.792686	-0.131956
58990	9.467166	-2.221742	-1.298573	0.653934	0.009294	0.195816	-0.234612	0.014432	0.971982	-0.772410	0.604315	-0.195413	-0.590204	-0.796614	-0.130632
58991	9.502488	-1.938499	-1.249641	0.686904	0.010203	0.193201	-0.236086	0.015676	0.971606	-0.775946	0.598851	-0.198205	-0.584954	-0.800707	-0.129217
58992	9.481841	-2.275674	-1.258372	0.681064	0.010520	0.191996	-0.237555	0.016904	0.971227	-0.779412	0.593404	-0.200967	-0.579727	-0.804727	-0.127791
58993	9.510214	-2.166123	-1.187787	0.666654	0.010090	0.199657	-0.239095	0.018164	0.970826	-0.782739	0.588043	-0.203775	-0.574589	-0.808626	-0.126380
58994	9.536278	-1.883781	-1.112522	0.692432	0.012402	0.199629	-0.240628	0.019433	0.970423	-0.786176	0.582444	-0.206605	-0.569232	-0.812638	-0.124875
58995	9.584128	-1.959450	-1.173817	0.674036	0.010379	0.202411	-0.242201	0.020689	0.970005	-0.789463	0.576965	-0.209428	-0.563992	-0.816507	-0.123408
58996	9.458925	-1.970454	-1.181798	0.676219	0.014827	0.204026	-0.243770	0.021981	0.969584	-0.792719	0.571439	-0.212258	-0.558724	-0.820350	-0.121875
58997	9.515919	-2.171542	-1.040236	0.703650	0.006342	0.197977	-0.245345	0.023157	0.969159	-0.796104	0.565661	-0.215052	-0.553195	-0.824313	-0.120347
58998	9.425887	-2.353422	-1.073332	0.686360	0.008666	0.202770	-0.246953	0.024368	0.968721	-0.799340	0.559994	-0.217860	-0.547787	-0.828138	-0.118814
58999	9.477481	-2.034328	-0.999635	0.677845	0.010122	0.203934	-0.248569	0.025586	0.968276	-0.802486	0.554370	-0.220657	-0.542429	-0.831877	-0.117267
59000	9.500782	-2.216852	-1.138541	0.703199	0.011814	0.208147	-0.250217	0.026830	0.967818	-0.805719	0.548505	-0.223514	-0.536850	-0.835717	-0.115628
59001	9.488958	-2.228670	-1.252128	0.690976	0.013444	0.203391	-0.251825	0.028049	0.967366	-0.808857	0.542715	-0.226298	-0.531352	-0.839449	-0.113981
59002	9.440078	-2.323023	-1.103278	0.695640	0.012176	0.202913	-0.253442	0.029244	0.966908	-0.811979	0.536858	-0.229070	-0.525791	-0.843166	-0.112317
59003	9.517214	-2.519068	-0.944048	0.705685	0.008029	0.204894	-0.255105	0.030403	0.966435	-0.815107	0.530887	-0.231861	-0.520117	-0.846897	-0.110651
59004	9.389483	-2.498386	-1.096457	0.694296	0.012067	0.203142	-0.256739	0.031574	0.965965	-0.818138	0.524985	-0.234609	-0.514525	-0.850525	-0.108952
59005	9.493193	-2.137694	-0.874798	0.705336	0.012979	0.208687	-0.258421	0.032770	0.965476	-0.821168	0.518960	-0.237410	-0.508824	-0.854170	-0.107200
59006	9.473830	-2.410312	-0.960542	0.704188	0.013466	0.208588	-0.260106	0.033958	0.964983	-0.824150	0.512917	-0.240195	-0.503113	-0.857766	-0.105427
59007	9.451375	-2.355744	-1.044464	0.686911	0.012701	0.211226	-0.261824	0.035139	0.964476	-0.826995	0.506995	-0.242974	-0.497522	-0.861233	-0.103683
59008	9.422932	-2.417438	-1.032876	0.680728	0.011271	0.211458	-0.263557	0.036298	0.963961	-0.829767	0.501099	-0.245736	-0.491960	-0.864628	-0.101950
59009	9.474169	-2.736102	-0.718543	0.697496	0.009343	0.203598	-0.265242	0.037388	0.963457	-0.832600	0.495036	-0.248427	-0.486234	-0.868067	-0.100175
59010	9.359482	-2.618950	-0.911720	0.692090	0.013901	0.209110	-0.266956	0.038533	0.962938	-0.835350	0.488993	-0.251152	-0.480547	-0.871436	-0.098351
59011	9.441349	-2.331653	-0.853614	0.716631	0.009031	0.211865	-0.268723	0.039635	0.962402	-0.838166	0.482707	-0.253913	-0.474623	-0.874884	-0.096493
59012	9.422993	-2.689384	-0.863154	0.700963	0.017278	0.215744	-0.270489	0.040816	0.961857	-0.840852	0.476532	-0.256682	-0.468832	-0.878209	-0.094576
59013	9.422132	-2.482033	-0.938973	0.701306	0.012229	0.211831	-0.272254	0.041921	0.961312	-0.843506	0.470329	-0.259400	-0.463007	-0.881495	-0.092689
59014	9.419376	-2.630585	-0.924227	0.689965	0.012543	0.214874	-0.274048	0.043029	0.960753	-0.846055	0.464201	-0.262122	-0.457261	-0.884684	-0.090808
59015	9.433973	-2.838359	-0.655548	0.705694	0.012237	0.208191	-0.275794	0.044091	0.960205	-0.848651	0.457911	-0.264780	-0.451363	-0.887904	-0.088871
59016	9.310859	-2.690262	-0.825195	0.703210	0.012046	0.208981	-0.277553	0.045142	0.959649	-0.851189	0.451619	-0.267428	-0.445468	-0.891068	-0.086924
59017	9.417933	-2.626924	-0.759982	0.710363	0.014390	0.218910	-0.279393	0.046245	0.959063	-0.853685	0.445234	-0.270163	-0.439501	-0.894219	-0.084917
59018	9.362783	-2.912123	-0.737839	0.710992	0.014674	0.216176	-0.281214	0.047325	0.958478	-0.856146	0.438821	-0.272857	-0.433513	-0.897328	-0.082885
59019	9.406904	-2.654341	-0.796893	0.704405	0.015157	0.220090	-0.283072	0.048412	0.957876	-0.858521	0.432440	-0.275567	-0.427565	-0.900362	-0.080849
59020	9.402125	-2.802263	-0.775521	0.696999	0.012460	0.212690	-0.284884	0.049430	0.957287	-0.860840	0.426107	-0.278185	-0.421657	-0.903321	-0.078840
59021	9.366254	-3.033175	-0.508521	0.712190	0.011845	0.210527	-0.286687	0.050419	0.956697	-0.863184	0.419615	-0.280778	-0.415601	-0.906301	-0.076777
59022	9.276733	-2.831008	-0.628097	0.710046	0.010615	0.216471	-0.288550	0.051409	0.956084	-0.865455	0.413116	-0.283412	-0.409543	-0.909226	-0.074713
59023	9.405790	-2.556156	-0.559856	0.721623	0.012289	0.222960	-0.290469	0.052425	0.955447	-0.867708	0.406486	-0.286099	-0.403374	-0.912152	-0.072582
59024	9.367630	-3.007430	-0.580592	0.706080	0.016589	0.216073	-0.292316	0.053440	0.954827	-0.869870	0.399978	-0.288693	-0.397338	-0.914965	-0.070435
59025	9.369271	-2.854604	-0.739295	0.699319	0.014528	0.219629	-0.294208	0.054435	0.954190	-0.871949	0.393509	-0.291300	-0.391339	-0.917708	-0.068309
59026	9.329328	-3.083770	-0.687017	0.697228	0.016199	0.219265	-0.296096	0.055430	0.953549	-0.873975	0.387038	-0.293885	-0.385350	-0.920396	-0.066156
59027	9.282673	-3.018884	-0.398935	0.721451	0.009018	0.213395	-0.297965	0.056322	0.952914	-0.876065	0.380327	-0.296415	-0.379113	-0.923136	-0.063982
59028	9.301962	-2.988725	-0.453861	0.706986	0.015893	0.222975	-0.299897	0.057300	0.952249	-0.878024	0.373722	-0.299009	-0.373010	-0.925769	-0.061767
59029	9.373075	-2.770159	-0.516882	0.715146	0.015491	0.220358	-0.301813	0.058249	0.951586	-0.879973	0.367023	-0.301566	-0.366820	-0.928386	-0.059514
59030	9.271685	-3.214878	-0.501704	0.714617	0.017752	0.218985	-0.303713	0.059201	0.950922	-0.881876	0.360309	-0.304092	-0.360628	-0.930953	-0.057223
59031	9.300743	-3.036608	-0.515347	0.698836	0.015793	0.216695	-0.305606	0.060110	0.950259	-0.883682	0.353724	-0.306570	-0.354557	-0.933417	-0.054981
59032	9.297388	-3.186156	-0.421449	0.700743	0.014895	0.221278	-0.307546	0.061014	0.949575	-0.885435	0.347099	-0.309075	-0.348454	-0.935842	-0.052725
59033	9.278381	-3.217411	-0.286339	0.728912	0.012993	0.219201	-0.309480	0.061878	0.948890	-0.887243	0.340192	-0.311558	-0.342083	-0.938318	-0.050382
59034	9.286501	-3.269563	-0.304970	0.711398	0.015220	0.221761	-0.311434	0.062757	0.948193	-0.888935	0.333429	-0.314038	-0.335863	-0.940684	-0.048054
59035	9.282482	-2.856272	-0.459230	0.717659	0.017062	0.225093	-0.313415	0.063648	0.947481	-0.890588	0.326586	-0.316535	-0.329581	-0.943022	-0.045673
59036	9.237435	-3.237179	-0.308274	0.723483	0.017005	0.222878	-0.315382	0.064517	0.946769	-0.892218	0.319671	-0.318994	-0.323236	-0.945329	-0.043255
59037	9.227186	-3.150769	-0.279427	0.702377	0.016370	0.222061	-0.317348	0.065362	0.946054	-0.893734	0.312939	-0.321418	-0.317065	-0.947522	-0.040894
59038	9.258389	-3.346155	-0.284260	0.701101	0.015217	0.223430	-0.319334	0.066186	0.945328	-0.895193	0.306200	-0.323836	-0.310893	-0.949664	-0.038531
59039	9.225231	-3.327315	-0.185540	0.721210	0.017498	0.221010	-0.321295	0.067008	0.944605	-0.896675	0.299256	-0.326221	-0.304538	-0.951817	-0.036065
59040	9.234953	-3.490108	-0.203791	0.704014	0.018234	0.227284	-0.323315	0.067841	0.943856	-0.898035	0.292454	-0.328640	-0.298330	-0.953870	-0.033631
59041	9.167697	-3.206316	-0.319729	0.698523	0.020676	0.225481	-0.325315	0.068677	0.943108	-0.899337	0.285689	-0.331021	-0.292169	-0.955858	-0.031175
59042	9.261024	-3.391579	-0.204633	0.703414	0.018204	0.227720	-0.327347	0.069481	0.942346	-0.900598	0.278861	-0.333406	-0.285949	-0.957815	-0.028710
59043	9.214852	-3.326870	-0.146126	0.700513	0.016255	0.223359	-0.329349	0.070238	0.941592	-0.901818	0.272048	-0.335730	-0.279740	-0.959717	-0.026257
59044	9.203176	-3.577529	-0.097936	0.705850	0.015449	0.224204	-0.331364	0.070975	0.940830	-0.903001	0.265169	-0.338044	-0.273472	-0.961586	-0.023777
59045	9.185911	-3.391141	-0.054002	0.717875	0.018683	0.226330	-0.333393	0.071732	0.940055	-0.904162	0.258158	-0.340362	-0.267098	-0.963436	-0.021211
59046	9.144431	-3.643032	-0.068605	0.728273	0.018614	0.229086	-0.335451	0.072480	0.939265	-0.905290	0.251030	-0.342688	-0.260622	-0.965262	-0.018592
59047	9.205172	-3.327519	-0.108400	0.693884	0.019678	0.228781	-0.337507	0.073222	0.938471	-0.906280	0.244219	-0.344984	-0.254453	-0.966952	-0.016066
59048	9.195878	-3.356913	-0.002748	0.707240	0.016818	0.227685	-0.339563	0.073918	0.937674	-0.907259	0.237268	-0.347253	-0.248148	-0.968628	-0.013504
59049	9.214984	-3.508727	0.026258	0.688637	0.021658	0.227550	-0.341610	0.074644	0.936873	-0.908146	0.230483	-0.349498	-0.242021	-0.970209	-0.010947
59050	9.084236	-3.704657	0.043083	0.709857	0.017748	0.226120	-0.343656	0.075315	0.936071	-0.909040	0.223481	-0.351713	-0.235683	-0.971794	-0.008336
59051	9.202969	-3.408795	0.060820	0.716855	0.022213	0.229265	-0.345723	0.076019	0.935252	-0.909891	0.216396	-0.353937	-0.229291	-0.973342	-0.005644
59052	9.110293	-3.667232	0.121088	0.720140	0.019773	0.227335	-0.347781	0.076680	0.934435	-0.910705	0.209268	-0.356122	-0.222855	-0.974847	-0.002947
59053	9.042157	-3.832629	-0.045776	0.680997	0.021687	0.229363	-0.349857	0.077347	0.933605	-0.911377	0.202509	-0.358305	-0.216777	-0.976221	-0.000357
59054	9.183874	-3.542669	0.054298	0.703068	0.019693	0.233039	-0.351973	0.077987	0.932756	-0.912036	0.195520	-0.360502	-0.210487	-0.977594	0.002309
59055	9.128940	-3.594412	0.218586	0.697699	0.021153	0.229776	-0.354059	0.078618	0.931913	-0.912648	0.188576	-0.362648	-0.204247	-0.978907	0.004984
59056	9.069977	-3.780894	0.326607	0.712069	0.020131	0.233675	-0.356185	0.079231	0.931050	-0.913225	0.181477	-0.364809	-0.197868	-0.980198	0.007716
59057	9.179794	-3.526972	0.146098	0.713239	0.023849	0.232759	-0.358298	0.079861	0.930185	-0.913759	0.174357	-0.366940	-0.191488	-0.981439	0.010502
59058	9.090834	-3.667353	0.264431	0.721707	0.022050	0.232690	-0.360416	0.080458	0.929315	-0.914258	0.167144	-0.369047	-0.185022	-0.982644	0.013318
59059	8.973308	-3.972650	0.174147	0.692342	0.018208	0.225807	-0.362480	0.080988	0.928466	-0.914678	0.160215	-0.371073	-0.178807	-0.983754	0.016003
59060	9.114623	-3.711334	0.276482	0.698570	0.020587	0.233261	-0.364611	0.081539	0.927583	-0.915035	0.153211	-0.373146	-0.172542	-0.984824	0.018749
59061	9.059153	-3.808963	0.369278	0.693846	0.024334	0.235241	-0.366755	0.082112	0.926687	-0.915328	0.146243	-0.375218	-0.166331	-0.985835	0.021524
59062	9.097398	-3.718251	0.479866	0.707801	0.020890	0.233825	-0.368894	0.082634	0.925791	-0.915600	0.139130	-0.377252	-0.159979	-0.986820	0.024335
59063	9.005749	-3.731037	0.373527	0.700975	0.025882	0.233401	-0.371023	0.083187	0.924890	-0.915815	0.132077	-0.379262	-0.153706	-0.987743	0.027180
59064	9.070142	-3.903925	0.347624	0.699579	0.022201	0.234915	-0.373173	0.083690	0.923979	-0.915972	0.125029	-0.381264	-0.147432	-0.988617	0.030000
59065	8.918593	-4.088879	0.274397	0.701672	0.021987	0.234301	-0.375320	0.084172	0.923066	-0.916087	0.117954	-0.383238	-0.141137	-0.989445	0.032839
59066	9.086943	-3.733964	0.592434	0.697251	0.023485	0.233159	-0.377455	0.084652	0.922151	-0.916151	0.110917	-0.385182	-0.134888	-0.990218	0.035688
59067	8.940243	-3.964943	0.507590	0.690800	0.028178	0.237809	-0.379628	0.085167	0.921211	-0.916141	0.103933	-0.387148	-0.128716	-0.990931	0.038569
59068	9.089879	-3.898501	0.670563	0.699727	0.023851	0.234644	-0.381780	0.085620	0.920279	-0.916106	0.096858	-0.389060	-0.122447	-0.991609	0.041458
59069	8.915745	-4.010501	0.508943	0.693102	0.024695	0.237723	-0.383959	0.086066	0.919330	-0.916004	0.089840	-0.390981	-0.116243	-0.992231	0.044342
59070	8.987495	-3.875815	0.369844	0.698470	0.025109	0.234879	-0.386113	0.086498	0.918387	-0.915870	0.082766	-0.392851	-0.109992	-0.992808	0.047264
59071	8.916737	-4.193207	0.668702	0.697734	0.026939	0.236523	-0.388282	0.086932	0.917431	-0.915681	0.075694	-0.394713	-0.103757	-0.993334	0.050211
59072	8.991256	-3.787367	0.656533	0.702842	0.024570	0.233652	-0.390427	0.087324	0.916483	-0.915460	0.068568	-0.396525	-0.097468	-0.993817	0.053171
59073	8.903301	-4.059208	0.777873	0.684881	0.030396	0.241245	-0.392637	0.087762	0.915496	-0.915144	0.061611	-0.398392	-0.091368	-0.994234	0.056124
59074	9.043485	-3.936498	0.814987	0.691823	0.025905	0.234274	-0.394789	0.088135	0.914535	-0.914814	0.054586	-0.400170	-0.085190	-0.994612	0.059077
59075	8.891308	-4.230009	0.674761	0.679595	0.027627	0.237468	-0.396969	0.088509	0.913555	-0.914415	0.047678	-0.401961	-0.079133	-0.994934	0.062008
59076	8.894591	-4.034491	0.655497	0.691868	0.031172	0.237984	-0.399151	0.088904	0.912565	-0.913976	0.040643	-0.403728	-0.072982	-0.995211	0.065033
59077	8.869816	-4.192047	0.886225	0.690564	0.026424	0.238282	-0.401340	0.089233	0.911572	-0.913488	0.033619	-0.405474	-0.066828	-0.995443	0.068020
59078	8.837384	-3.915032	0.816308	0.687600	0.029568	0.237640	-0.403521	0.089577	0.910575	-0.912953	0.026623	-0.407194	-0.060717	-0.995624	0.071037
59079	8.845211	-4.173886	0.958037	0.683585	0.030994	0.241640	-0.405738	0.089919	0.909555	-0.912354	0.019661	-0.408930	-0.054653	-0.995755	0.074060
59080	8.931285	-4.120635	0.931205	0.683543	0.031950	0.238790	-0.407930	0.090254	0.908542	-0.911719	0.012701	-0.410618	-0.048599	-0.995838	0.077105
59081	8.859232	-4.420727	0.858368	0.685041	0.026253	0.238458	-0.410120	0.090514	0.907529	-0.911040	0.005724	-0.412278	-0.042512	-0.995879	0.080114
59082	8.831623	-3.982317	0.840162	0.689168	0.031357	0.239534	-0.412319	0.090809	0.906503	-0.910312	-0.001295	-0.413922	-0.036414	-0.995867	0.083198
59083	8.814071	-4.149978	1.049904	0.694168	0.032487	0.241100	-0.414531	0.091097	0.905464	-0.909531	-0.008365	-0.415551	-0.030281	-0.995807	0.086323
59084	8.783187	-3.874904	1.124261	0.681465	0.030677	0.243172	-0.416762	0.091351	0.904414	-0.908692	-0.015311	-0.417187	-0.024263	-0.995701	0.089391
59085	8.864351	-4.325141	1.138713	0.671123	0.034556	0.243853	-0.418999	0.091625	0.903352	-0.907801	-0.022155	-0.418815	-0.018360	-0.995547	0.092461
59086	8.830031	-4.294308	1.013154	0.679722	0.032330	0.238749	-0.421189	0.091863	0.902309	-0.906889	-0.029079	-0.420366	-0.012378	-0.995347	0.095557
59087	8.744949	-4.610094	1.052735	0.683083	0.033272	0.241502	-0.423403	0.092091	0.901249	-0.905919	-0.036038	-0.421915	-0.006375	-0.995098	0.098686
59088	8.800952	-4.043849	1.010162	0.677687	0.029702	0.241021	-0.425613	0.092268	0.900189	-0.904905	-0.042942	-0.423441	-0.000415	-0.994808	0.101770
59089	8.786999	-4.332948	1.288347	0.667972	0.031063	0.243818	-0.427847	0.092439	0.899112	-0.903835	-0.049749	-0.424979	0.005446	-0.994475	0.104835
59090	8.740735	-4.127812	1.335671	0.669959	0.036121	0.241083	-0.430056	0.092646	0.898036	-0.902732	-0.056573	-0.426468	0.011294	-0.994091	0.107964
59091	8.829547	-4.400160	1.318007	0.662949	0.039022	0.245997	-0.432308	0.092861	0.896932	-0.901565	-0.063329	-0.427985	0.017058	-0.993663	0.111098
59092	8.692602	-4.478404	1.195729	0.671177	0.035174	0.242534	-0.434528	0.093025	0.895841	-0.900367	-0.070160	-0.429438	0.022904	-0.993189	0.114243
59093	8.673641	-4.666200	1.259874	0.671390	0.032021	0.243476	-0.436755	0.093138	0.894746	-0.899121	-0.076992	-0.430876	0.028758	-0.992672	0.117369
59094	8.716048	-4.127973	1.184233	0.673767	0.031666	0.242967	-0.438975	0.093232	0.893649	-0.897832	-0.083844	-0.432283	0.034625	-0.992108	0.120512
59095	8.717228	-4.362005	1.562852	0.682405	0.034214	0.243385	-0.441199	0.093333	0.892543	-0.896493	-0.090778	-0.433659	0.040549	-0.991488	0.123723
59096	8.688870	-4.096557	1.482031	0.662106	0.036679	0.247129	-0.443456	0.093439	0.891413	-0.895101	-0.097511	-0.435069	0.046270	-0.990838	0.126879
59097	8.818561	-4.542591	1.503553	0.654953	0.039963	0.244212	-0.445686	0.093562	0.890287	-0.893683	-0.104165	-0.436440	0.051903	-0.990149	0.130040
59098	8.657650	-4.596004	1.300560	0.658477	0.039656	0.245582	-0.447928	0.093665	0.889150	-0.892215	-0.110852	-0.437794	0.057558	-0.989413	0.133223
59099	8.597515	-4.616467	1.472633	0.678601	0.035933	0.244411	-0.450154	0.093714	0.888019	-0.890697	-0.117731	-0.439087	0.063399	-0.988614	0.136468
59100	8.650498	-4.155564	1.372256	0.668790	0.035117	0.244661	-0.452382	0.093739	0.886884	-0.889140	-0.124509	-0.440372	0.069145	-0.987781	0.139673
59101	8.620435	-4.279863	1.831752	0.670019	0.036001	0.243724	-0.454599	0.093756	0.885748	-0.887543	-0.131292	-0.441622	0.074887	-0.986900	0.142897
59102	8.576634	-4.139527	1.727941	0.655747	0.041786	0.248510	-0.456861	0.093808	0.884578	-0.885891	-0.137933	-0.442912	0.080464	-0.985989	0.146120
59103	8.738187	-4.559968	1.729755	0.638522	0.042365	0.247435	-0.459112	0.093848	0.883408	-0.884218	-0.144398	-0.444193	0.085875	-0.985059	0.149277
59104	8.624024	-4.667200	1.543558	0.650978	0.042212	0.245187	-0.461341	0.093876	0.882243	-0.882504	-0.150977	-0.445413	0.091385	-0.984070	0.152497
59105	8.558862	-4.801699	1.660715	0.658520	0.037935	0.242470	-0.463539	0.093846	0.881093	-0.880754	-0.157621	-0.446573	0.096969	-0.983030	0.155719
59106	8.525409	-4.372559	1.587326	0.656332	0.037524	0.250602	-0.465807	0.093785	0.879902	-0.878927	-0.164244	-0.447785	0.102523	-0.981951	0.158936
59107	8.548982	-4.575590	1.969071	0.672790	0.041093	0.244209	-0.468019	0.093751	0.878731	-0.877070	-0.171015	-0.448889	0.108193	-0.980798	0.162264
59108	8.543510	-4.219460	1.820893	0.655564	0.041941	0.248440	-0.470268	0.093702	0.877535	-0.875170	-0.177614	-0.450035	0.113693	-0.979629	0.165531
59109	8.696045	-4.519113	1.914720	0.633742	0.046870	0.249266	-0.472526	0.093682	0.876324	-0.873250	-0.183992	-0.451199	0.118967	-0.978453	0.168748
59110	8.479152	-4.631179	1.799567	0.647822	0.045077	0.244642	-0.474739	0.093637	0.875131	-0.871296	-0.190496	-0.452277	0.124359	-0.977212	0.172022
59111	8.482395	-4.761083	1.868430	0.648965	0.042055	0.245223	-0.476951	0.093544	0.873938	-0.869298	-0.197003	-0.453333	0.129762	-0.975930	0.175278
59112	8.510128	-4.457013	1.775505	0.646649	0.039116	0.248260	-0.479183	0.093401	0.872731	-0.867248	-0.203481	-0.454396	0.135144	-0.974614	0.178507
59113	8.483640	-4.646664	2.148225	0.642820	0.048044	0.248163	-0.481423	0.093326	0.871506	-0.865165	-0.209914	-0.455441	0.140437	-0.973256	0.181800
59114	8.491157	-4.493598	1.973257	0.648120	0.045004	0.251145	-0.483681	0.093201	0.870268	-0.863019	-0.216392	-0.456478	0.145775	-0.971848	0.185099
59115	8.539449	-4.548342	2.056634	0.636082	0.051446	0.248948	-0.485927	0.093124	0.869024	-0.860863	-0.222741	-0.457494	0.150964	-0.970420	0.188403
59116	8.449144	-4.653214	2.094671	0.646524	0.048173	0.248346	-0.488160	0.093003	0.867785	-0.858655	-0.229182	-0.458462	0.156243	-0.968930	0.191735
59117	8.397592	-4.784833	2.097648	0.637747	0.041500	0.249517	-0.490388	0.092794	0.866550	-0.856416	-0.235529	-0.459432	0.161465	-0.967427	0.194971
59118	8.397833	-4.556677	2.013261	0.645461	0.044855	0.249335	-0.492618	0.092605	0.865305	-0.854127	-0.241941	-0.460361	0.166721	-0.965862	0.198280
59119	8.402028	-4.745862	2.224804	0.635320	0.048798	0.248492	-0.494842	0.092436	0.864052	-0.851820	-0.248242	-0.461280	0.171856	-0.964278	0.201580
59120	8.447235	-4.430998	2.301158	0.635587	0.052414	0.248260	-0.497069	0.092289	0.862789	-0.849475	-0.254536	-0.462172	0.176958	-0.962649	0.204919
59121	8.478448	-4.432689	2.139905	0.618070	0.051727	0.252774	-0.499328	0.092104	0.861504	-0.847103	-0.260655	-0.463115	0.181901	-0.961028	0.208174
59122	8.425084	-4.689545	2.367776	0.634895	0.053307	0.252876	-0.501588	0.091921	0.860209	-0.844663	-0.266925	-0.464000	0.186961	-0.959323	0.211528
59123	8.314441	-4.759332	2.243431	0.634827	0.048692	0.245322	-0.503771	0.091694	0.858957	-0.842223	-0.273176	-0.464795	0.192028	-0.957584	0.214845
59124	8.347440	-4.765031	2.294197	0.633321	0.047441	0.251842	-0.506004	0.091423	0.857672	-0.839716	-0.279407	-0.465627	0.197071	-0.955810	0.218150
59125	8.262076	-4.811479	2.385831	0.618990	0.051895	0.251243	-0.508235	0.091177	0.856378	-0.837204	-0.285489	-0.466460	0.201956	-0.954035	0.221430
59126	8.292621	-4.561420	2.505120	0.638929	0.050443	0.252000	-0.510467	0.090902	0.855079	-0.834611	-0.291750	-0.467232	0.206997	-0.952165	0.224796
59127	8.489937	-4.481098	2.313620	0.616929	0.058108	0.251307	-0.512704	0.090682	0.853763	-0.832031	-0.297788	-0.468024	0.211799	-0.950315	0.228127
59128	8.199638	-4.965617	2.555676	0.628886	0.055565	0.248508	-0.514909	0.090433	0.852462	-0.829405	-0.303925	-0.468740	0.216695	-0.948394	0.231499
59129	8.252821	-4.837933	2.331521	0.637869	0.050631	0.247951	-0.517094	0.090119	0.851171	-0.826725	-0.310134	-0.469406	0.221675	-0.946412	0.234872
59130	8.177501	-4.853144	2.608311	0.622402	0.049103	0.252432	-0.519308	0.089764	0.849860	-0.824020	-0.316188	-0.470123	0.226515	-0.944440	0.238166
59131	8.300064	-4.631730	2.546697	0.611654	0.050990	0.252077	-0.521519	0.089408	0.848542	-0.821307	-0.322126	-0.470839	0.231241	-0.942465	0.241426
59132	8.230673	-4.695245	2.807057	0.611065	0.054638	0.249788	-0.523716	0.089080	0.847223	-0.818573	-0.328045	-0.471514	0.235924	-0.940453	0.244721
59133	8.337543	-4.514877	2.505401	0.596711	0.059753	0.251729	-0.525935	0.088776	0.845879	-0.815829	-0.333817	-0.472217	0.240447	-0.938448	0.247992
59134	8.204000	-5.160387	2.673208	0.597087	0.058066	0.249124	-0.528126	0.088452	0.844547	-0.813066	-0.339578	-0.472875	0.244963	-0.936410	0.251257
59135	8.151936	-4.872763	2.661497	0.615542	0.054933	0.249879	-0.530309	0.088077	0.843217	-0.810221	-0.345498	-0.473469	0.249628	-0.934277	0.254583
59136	8.189146	-4.890195	2.770388	0.610736	0.049689	0.247214	-0.532454	0.087649	0.841909	-0.807368	-0.351358	-0.474030	0.254263	-0.932129	0.257847
59137	8.157930	-4.627198	2.632772	0.613463	0.053430	0.250533	-0.534629	0.087226	0.840573	-0.804457	-0.357231	-0.474589	0.258883	-0.929934	0.261156
59138	8.110987	-4.702145	3.042010	0.606470	0.059273	0.251208	-0.536821	0.086842	0.839215	-0.801528	-0.363027	-0.475148	0.263395	-0.927723	0.264486
59139	8.294788	-4.546534	2.818202	0.604372	0.063173	0.249940	-0.539007	0.086479	0.837850	-0.798578	-0.368786	-0.475678	0.267851	-0.925483	0.267839
59140	8.130712	-4.742128	2.841103	0.592656	0.060580	0.253245	-0.541209	0.086068	0.836472	-0.795610	-0.374427	-0.476245	0.272208	-0.923253	0.271120
59141	8.117220	-4.848240	3.087658	0.611515	0.058027	0.249839	-0.543370	0.085626	0.835115	-0.792578	-0.380223	-0.476708	0.276711	-0.920923	0.274468
59142	8.031514	-4.837120	2.823759	0.609110	0.055303	0.248027	-0.545506	0.085155	0.833770	-0.789529	-0.385982	-0.477140	0.281189	-0.918568	0.277787
59143	8.105457	-4.803186	3.041926	0.609654	0.057780	0.249011	-0.547650	0.084682	0.832411	-0.786441	-0.391729	-0.477555	0.285639	-0.916175	0.281128
59144	8.024995	-4.781975	3.044136	0.586990	0.059060	0.249007	-0.549793	0.084210	0.831045	-0.783387	-0.397255	-0.478010	0.289884	-0.913836	0.284377
59145	8.102173	-4.624122	3.039613	0.602001	0.058427	0.249501	-0.551932	0.083711	0.829677	-0.780256	-0.402902	-0.478404	0.294231	-0.911407	0.287690
59146	8.200878	-4.734637	2.983102	0.578626	0.064087	0.250878	-0.554094	0.083246	0.828281	-0.777156	-0.408323	-0.478854	0.298344	-0.909034	0.290944
59147	7.970177	-5.230238	3.188009	0.586282	0.063841	0.245861	-0.556210	0.082780	0.826909	-0.774031	-0.413794	-0.479218	0.302500	-0.906599	0.294231
59148	7.996419	-4.871779	2.967960	0.603361	0.055042	0.248427	-0.558315	0.082213	0.825546	-0.770811	-0.419406	-0.479530	0.306816	-0.904068	0.297531
59149	7.882895	-4.848469	3.336896	0.604081	0.058700	0.247857	-0.560419	0.081662	0.824173	-0.767560	-0.425007	-0.479812	0.311097	-0.901499	0.300863
59150	8.057345	-4.720703	3.074337	0.576631	0.064094	0.250684	-0.562558	0.081136	0.822767	-0.764349	-0.430348	-0.480177	0.315117	-0.899009	0.304112
59151	8.010487	-4.838261	3.404681	0.581064	0.064421	0.247875	-0.564669	0.080606	0.821372	-0.761113	-0.435710	-0.480484	0.319150	-0.896471	0.307382
59152	8.064281	-4.785944	3.117923	0.567951	0.066588	0.250369	-0.566802	0.080073	0.819953	-0.757875	-0.440941	-0.480829	0.323050	-0.893957	0.310612
59153	7.948806	-4.845441	3.350938	0.574654	0.069306	0.248394	-0.568922	0.079555	0.818535	-0.754600	-0.446214	-0.481115	0.326966	-0.891383	0.313893
59154	7.882493	-4.946748	3.454375	0.584227	0.059665	0.247147	-0.570996	0.078946	0.817148	-0.751272	-0.451556	-0.481339	0.330989	-0.888743	0.317146
59155	7.873585	-4.938396	3.266904	0.571944	0.062643	0.244979	-0.573057	0.078354	0.815762	-0.747970	-0.456770	-0.481562	0.334883	-0.886128	0.320361
59156	7.948486	-4.837470	3.408261	0.589892	0.064097	0.248697	-0.575145	0.077747	0.814348	-0.744559	-0.462129	-0.481735	0.338881	-0.883398	0.323679
59157	7.881183	-4.705199	3.510694	0.573373	0.066691	0.248155	-0.577231	0.077146	0.812928	-0.741179	-0.467325	-0.481936	0.342722	-0.880713	0.326934
59158	7.977110	-4.590389	3.458893	0.577205	0.067369	0.248426	-0.579317	0.076540	0.811501	-0.737756	-0.472538	-0.482103	0.346565	-0.877980	0.330217
59159	7.961755	-4.899332	3.497612	0.553536	0.071605	0.249912	-0.581421	0.075945	0.810051	-0.734382	-0.477527	-0.482339	0.350190	-0.875329	0.333417
59160	7.774561	-5.252521	3.574530	0.550350	0.066787	0.249031	-0.583497	0.075302	0.808617	-0.730998	-0.482473	-0.482558	0.353798	-0.872668	0.336567
59161	7.763676	-4.940028	3.458464	0.580198	0.065301	0.247667	-0.585550	0.074634	0.807194	-0.727491	-0.487660	-0.482643	0.357614	-0.869838	0.339844
59162	7.781125	-4.851823	3.748662	0.570254	0.066450	0.242735	-0.587566	0.073989	0.805786	-0.724022	-0.492740	-0.482700	0.361328	-0.867025	0.343087
59163	7.823913	-4.619387	3.427226	0.567180	0.069302	0.250160	-0.589639	0.073314	0.804333	-0.720495	-0.497780	-0.482807	0.364984	-0.864199	0.346333
59164	7.834417	-4.706830	3.870777	0.555012	0.067054	0.245843	-0.591667	0.072631	0.802904	-0.717012	-0.502696	-0.482898	0.368543	-0.861406	0.349506
59165	7.913220	-4.623634	3.593226	0.556074	0.074091	0.249867	-0.593742	0.071970	0.801430	-0.713477	-0.507606	-0.482998	0.372049	-0.858578	0.352736
59166	7.725899	-4.898824	3.734955	0.553704	0.073190	0.249312	-0.595806	0.071294	0.799958	-0.709929	-0.512479	-0.483079	0.375521	-0.855735	0.355952
59167	7.665530	-5.161864	3.953576	0.563685	0.070960	0.247159	-0.597837	0.070591	0.798504	-0.706333	-0.517417	-0.483087	0.379058	-0.852817	0.359192
59168	7.775462	-4.880796	3.597646	0.559931	0.068249	0.241149	-0.599811	0.069887	0.797084	-0.702762	-0.522302	-0.483039	0.382561	-0.849892	0.362396
59169	7.648105	-4.984876	3.920163	0.561110	0.066662	0.250291	-0.601834	0.069102	0.795626	-0.699108	-0.527184	-0.483038	0.386062	-0.846937	0.365587
59170	7.795846	-4.670359	3.669863	0.545629	0.071968	0.245816	-0.603842	0.068377	0.794166	-0.695515	-0.531916	-0.483036	0.389401	-0.844032	0.368751
59171	7.660726	-4.815318	4.010404	0.547723	0.072411	0.242036	-0.605817	0.067657	0.792722	-0.691916	-0.536643	-0.482977	0.392732	-0.841093	0.371921
59172	7.773148	-4.751207	3.918616	0.537411	0.076665	0.246162	-0.607833	0.066943	0.791238	-0.688309	-0.541271	-0.482967	0.395943	-0.838179	0.375079
59173	7.629966	-4.837846	3.943279	0.536740	0.075360	0.244525	-0.609823	0.066207	0.789768	-0.684693	-0.545872	-0.482928	0.399139	-0.835248	0.378217
59174	7.564294	-5.091408	4.170932	0.557015	0.074611	0.241922	-0.611788	0.065471	0.788308	-0.680988	-0.550626	-0.482769	0.402455	-0.832181	0.381451
59175	7.658448	-4.881165	3.794541	0.541534	0.074199	0.242232	-0.613745	0.064711	0.786848	-0.677323	-0.555230	-0.482652	0.405649	-0.829175	0.384600
59176	7.609912	-4.851487	4.177776	0.549530	0.070167	0.244513	-0.615696	0.063896	0.785389	-0.673588	-0.559886	-0.482501	0.408898	-0.826102	0.387759
59177	7.676606	-4.659247	3.938132	0.523511	0.074742	0.243151	-0.617647	0.063109	0.783919	-0.669947	-0.564306	-0.482420	0.411926	-0.823150	0.390822
59178	7.566950	-4.832472	4.141368	0.528572	0.076529	0.243848	-0.619607	0.062324	0.782434	-0.666260	-0.568753	-0.482305	0.414953	-0.820144	0.393927
59179	7.605234	-4.840209	4.170549	0.521297	0.082714	0.245526	-0.621593	0.061562	0.780917	-0.662573	-0.573122	-0.482212	0.417875	-0.817154	0.397038
59180	7.515960	-4.749619	4.124729	0.529951	0.078029	0.244843	-0.623552	0.060758	0.779418	-0.658832	-0.577545	-0.482059	0.420860	-0.814094	0.400159
59181	7.473371	-5.080859	4.420275	0.537625	0.076916	0.240249	-0.625465	0.059952	0.777945	-0.655069	-0.582008	-0.481821	0.423884	-0.810970	0.403299
59182	7.573491	-4.832399	4.035307	0.523988	0.076259	0.239282	-0.627366	0.059140	0.776476	-0.651348	-0.586344	-0.481608	0.426799	-0.807901	0.406373
59183	7.504708	-4.820841	4.397766	0.542355	0.070894	0.241603	-0.629249	0.058252	0.775018	-0.647515	-0.590809	-0.481321	0.429849	-0.804706	0.409485
59184	7.596450	-4.658958	4.230754	0.512472	0.074790	0.242782	-0.631152	0.057381	0.773534	-0.643782	-0.595017	-0.481144	0.432657	-0.801662	0.412487
59185	7.446807	-4.869013	4.332585	0.523341	0.080749	0.237538	-0.633037	0.056571	0.772052	-0.640017	-0.599290	-0.480864	0.435480	-0.798531	0.415579
59186	7.535704	-4.907465	4.431589	0.510023	0.084765	0.239544	-0.634948	0.055774	0.770539	-0.636277	-0.603442	-0.480634	0.438168	-0.795454	0.418642
59187	7.391823	-4.755438	4.261828	0.524406	0.080274	0.241816	-0.636845	0.054909	0.769034	-0.632443	-0.607689	-0.480343	0.440959	-0.792274	0.421731
59188	7.347493	-5.105954	4.620054	0.522831	0.077838	0.239716	-0.638713	0.054031	0.767546	-0.628609	-0.611907	-0.480022	0.443731	-0.789082	0.424797
59189	7.521180	-4.732179	4.256628	0.503465	0.079812	0.235344	-0.640552	0.053177	0.766071	-0.624872	-0.615949	-0.479732	0.446350	-0.785989	0.427776
59190	7.389800	-4.824432	4.635910	0.525051	0.074973	0.239637	-0.642393	0.052251	0.764592	-0.620991	-0.620147	-0.479362	0.449112	-0.782744	0.430825
59191	7.417503	-4.527731	4.436990	0.504404	0.082148	0.239199	-0.644252	0.051367	0.763086	-0.617189	-0.624162	-0.479060	0.451682	-0.779604	0.433821
59192	7.429866	-4.745616	4.589798	0.495622	0.079973	0.241885	-0.646115	0.050443	0.761572	-0.613392	-0.628095	-0.478797	0.454188	-0.776500	0.436763
