// General information: 
//  MT Manager version: 2019.2.0 
//  XDA version: 2019.2.0 build 3853 rev 94535 built on 2019-09-09
// Device information: 
//  DeviceId: 00B44112
//  ProductCode: MTW2-3A7G6
//  Firmware Version: 4.3.5
//  Hardware Version: 1.1.0
// Device settings: 
//  Filter Profile: human(46.1)
//  Option Flags: Orientation Smoother Disabled, AHS Disabled, ICC Disabled
// Coordinate system: ENU
PacketCounter	Acc_X	Acc_Y	Acc_Z	Gyr_X	Gyr_Y	Gyr_Z	Mat[1][1]	Mat[2][1]	Mat[3][1]	Mat[1][2]	Mat[2][2]	Mat[3][2]	Mat[1][3]	Mat[2][3]	Mat[3][3]
42075	9.354504	-0.561065	3.101154	0.002081	0.001516	0.003974	0.238639	0.216559	0.946654	-0.530467	0.845600	-0.059718	-0.813423	-0.487918	0.316670
42076	9.356963	-0.613771	3.116293	0.001569	-0.001693	0.003954	0.238620	0.216549	0.946661	-0.530486	0.845588	-0.059712	-0.813416	-0.487942	0.316650
42077	9.349527	-0.586429	3.135213	-0.002531	0.000789	0.007260	0.238602	0.216578	0.946659	-0.530478	0.845590	-0.059751	-0.813426	-0.487925	0.316650
42078	9.359558	-0.616158	3.150682	0.000406	0.000114	0.003434	0.238601	0.216574	0.946660	-0.530484	0.845587	-0.059744	-0.813422	-0.487933	0.316647
42079	9.339381	-0.558075	3.119829	0.000406	0.000114	0.003434	0.238598	0.216567	0.946662	-0.530491	0.845583	-0.059738	-0.813419	-0.487943	0.316642
42080	9.346745	-0.586260	3.100957	-0.000756	0.001920	0.002914	0.238612	0.216565	0.946659	-0.530486	0.845587	-0.059730	-0.813418	-0.487937	0.316652
42081	9.316629	-0.577184	3.138470	-0.000756	0.001920	0.002914	0.238627	0.216563	0.946656	-0.530482	0.845590	-0.059722	-0.813416	-0.487933	0.316663
42082	9.364315	-0.592934	3.116892	-0.001775	-0.001131	0.004346	0.238608	0.216557	0.946662	-0.530473	0.845595	-0.059730	-0.813428	-0.487927	0.316643
42083	9.349290	-0.588636	3.135504	0.001825	-0.000089	0.003964	0.238600	0.216554	0.946665	-0.530493	0.845583	-0.059724	-0.813417	-0.487948	0.316637
42084	9.349295	-0.588953	3.135431	0.001569	-0.001693	0.003954	0.238582	0.216545	0.946672	-0.530511	0.845572	-0.059719	-0.813411	-0.487972	0.316617
42085	9.361632	-0.592866	3.082318	-0.002531	0.000790	0.007260	0.238564	0.216574	0.946669	-0.530503	0.845574	-0.059758	-0.813421	-0.487955	0.316617
42086	9.351872	-0.591258	3.169896	-0.000250	0.001763	0.001462	0.238586	0.216559	0.946667	-0.530505	0.845575	-0.059732	-0.813414	-0.487961	0.316628
42087	9.349187	-0.590252	3.135510	0.001062	-0.001535	0.005406	0.238559	0.216561	0.946674	-0.530521	0.845564	-0.059741	-0.813410	-0.487979	0.316607
42088	9.331502	-0.584635	3.119723	-0.001012	0.000316	0.002904	0.238560	0.216551	0.946676	-0.530508	0.845573	-0.059737	-0.813419	-0.487968	0.316601
42089	9.339091	-0.561746	3.120039	0.000406	0.000114	0.003434	0.238557	0.216545	0.946678	-0.530514	0.845569	-0.059731	-0.813416	-0.487977	0.316596
42090	9.361481	-0.594705	3.082423	-0.000100	0.000272	0.004886	0.238548	0.216552	0.946679	-0.530517	0.845566	-0.059740	-0.813417	-0.487978	0.316593
42091	9.349072	-0.591939	3.135532	-0.002531	0.000791	0.007260	0.238531	0.216581	0.946676	-0.530509	0.845569	-0.059779	-0.813427	-0.487961	0.316592
42092	9.346371	-0.591077	3.101169	-0.000506	0.000158	0.001452	0.238540	0.216559	0.946679	-0.530502	0.845575	-0.059757	-0.813429	-0.487961	0.316588
42093	9.353932	-0.568262	3.101567	-0.000349	0.002035	0.006348	0.238537	0.216587	0.946673	-0.530510	0.845568	-0.059781	-0.813425	-0.487959	0.316601
42094	9.358918	-0.622423	3.151352	0.000920	0.003323	0.003454	0.238560	0.216596	0.946665	-0.530521	0.845562	-0.059772	-0.813411	-0.487966	0.316626
42095	9.338685	-0.564540	3.120751	-0.002274	0.002396	0.007270	0.238556	0.216634	0.946658	-0.530515	0.845563	-0.059811	-0.813416	-0.487948	0.316641
42096	9.341027	-0.617383	3.136070	-0.000249	0.001763	0.001462	0.238577	0.216618	0.946656	-0.530510	0.845568	-0.059787	-0.813413	-0.487946	0.316651
42097	9.378863	-0.552808	3.118390	0.001319	0.000069	0.005417	0.238563	0.216629	0.946657	-0.530528	0.845555	-0.059797	-0.813405	-0.487963	0.316646
42098	9.315851	-0.584168	3.139488	-0.000755	0.001921	0.002914	0.238578	0.216627	0.946654	-0.530521	0.845560	-0.059790	-0.813405	-0.487955	0.316657
42099	9.360823	-0.598629	3.083663	0.000157	0.001877	0.004897	0.238581	0.216641	0.946650	-0.530529	0.845555	-0.059798	-0.813399	-0.487959	0.316668
42100	9.366070	-0.601720	3.152567	-0.001519	0.000475	0.004356	0.238577	0.216645	0.946650	-0.530520	0.845560	-0.059807	-0.813406	-0.487948	0.316666
42101	9.340709	-0.619268	3.136645	-0.002174	0.002124	0.002384	0.238597	0.216640	0.946646	-0.530503	0.845571	-0.059798	-0.813411	-0.487931	0.316678
42102	9.393540	-0.559461	3.100401	-0.001262	0.002080	0.004366	0.238603	0.216649	0.946642	-0.530500	0.845573	-0.059805	-0.813411	-0.487924	0.316689
42103	9.337926	-0.618772	3.102466	-0.001776	-0.001130	0.004346	0.238586	0.216645	0.946648	-0.530491	0.845578	-0.059814	-0.813423	-0.487917	0.316671
42104	9.333192	-0.592516	3.155771	0.002331	-0.000247	0.002513	0.238587	0.216630	0.946651	-0.530516	0.845564	-0.059791	-0.813406	-0.487948	0.316666
42105	9.338148	-0.568236	3.121685	-0.002431	0.000520	0.002374	0.238593	0.216617	0.946652	-0.530497	0.845576	-0.059783	-0.813417	-0.487932	0.316663
42106	9.340533	-0.620936	3.136839	0.000406	0.000114	0.003434	0.238589	0.216610	0.946655	-0.530504	0.845573	-0.059776	-0.813413	-0.487942	0.316657
42107	9.343069	-0.544413	3.087630	-0.000100	0.000272	0.004887	0.238580	0.216617	0.946656	-0.530509	0.845568	-0.059784	-0.813412	-0.487946	0.316653
42108	9.322788	-0.615754	3.121160	-0.002937	0.000678	0.003826	0.238580	0.216616	0.946656	-0.530490	0.845580	-0.059792	-0.813425	-0.487926	0.316652
42109	9.373288	-0.581793	3.153476	0.004015	0.004522	0.004526	0.238608	0.216641	0.946643	-0.530528	0.845557	-0.059784	-0.813392	-0.487956	0.316690
42110	9.337796	-0.570035	3.122412	-0.004753	0.004135	0.001334	0.238649	0.216637	0.946634	-0.530487	0.845583	-0.059774	-0.813406	-0.487912	0.316721
42111	9.347821	-0.599625	3.137802	0.000546	-0.004744	0.005386	0.238597	0.216623	0.946650	-0.530500	0.845574	-0.059785	-0.813414	-0.487933	0.316670
42112	9.355482	-0.576753	3.137966	-0.000249	0.001763	0.001462	0.238618	0.216608	0.946648	-0.530492	0.845581	-0.059763	-0.813413	-0.487928	0.316679
42113	9.362813	-0.604942	3.119097	-0.001519	0.000475	0.004356	0.238613	0.216611	0.946648	-0.530485	0.845585	-0.059771	-0.813418	-0.487920	0.316677
42114	9.345367	-0.548223	3.122660	0.000406	0.000114	0.003435	0.238612	0.216606	0.946650	-0.530494	0.845579	-0.059763	-0.813413	-0.487932	0.316673
42115	9.345077	-0.599677	3.103417	-0.002937	0.000679	0.003826	0.238612	0.216606	0.946650	-0.530474	0.845591	-0.059771	-0.813426	-0.487912	0.316672
42116	9.373027	-0.584227	3.153802	0.001567	-0.001694	0.003955	0.238591	0.216594	0.946658	-0.530494	0.845580	-0.059764	-0.813419	-0.487937	0.316650
42117	9.327378	-0.594346	3.087640	0.000664	0.001718	0.003445	0.238602	0.216596	0.946655	-0.530502	0.845575	-0.059757	-0.813410	-0.487944	0.316660
42118	9.347628	-0.601920	3.137937	-0.000249	0.001763	0.001462	0.238623	0.216581	0.946653	-0.530497	0.845580	-0.059734	-0.813408	-0.487943	0.316671
42119	9.337524	-0.573002	3.122681	-0.001261	0.002080	0.004367	0.238632	0.216592	0.946648	-0.530492	0.845582	-0.059742	-0.813408	-0.487933	0.316683
42120	9.362468	-0.607442	3.119645	-0.003186	0.002442	0.005288	0.238638	0.216613	0.946642	-0.530475	0.845591	-0.059763	-0.813417	-0.487908	0.316698
42121	9.337366	-0.573894	3.122991	-0.000506	0.000159	0.001452	0.238647	0.216590	0.946645	-0.530469	0.845596	-0.059741	-0.813419	-0.487909	0.316693
42122	9.347347	-0.603339	3.138503	0.002082	0.001515	0.003975	0.238652	0.216595	0.946642	-0.530488	0.845585	-0.059735	-0.813405	-0.487927	0.316701
42123	9.354943	-0.580461	3.138892	0.000406	0.000114	0.003435	0.238649	0.216589	0.946645	-0.530495	0.845581	-0.059728	-0.813401	-0.487936	0.316696
42124	9.369649	-0.636701	3.100983	-0.002025	0.000635	0.005809	0.238639	0.216607	0.946643	-0.530494	0.845580	-0.059750	-0.813405	-0.487930	0.316697
42125	9.344544	-0.603226	3.104334	-0.002173	0.002125	0.002384	0.238659	0.216601	0.946639	-0.530477	0.845592	-0.059741	-0.813410	-0.487913	0.316710
42126	9.337090	-0.575709	3.123479	0.001576	0.001674	0.005428	0.238656	0.216618	0.946636	-0.530496	0.845579	-0.059750	-0.813399	-0.487927	0.316717
42127	9.352055	-0.580800	3.104905	0.000406	0.000114	0.003435	0.238653	0.216611	0.946638	-0.530502	0.845576	-0.059743	-0.813395	-0.487936	0.316712
42128	9.362063	-0.610404	3.120283	-0.001777	-0.001128	0.004346	0.238636	0.216607	0.946644	-0.530492	0.845581	-0.059752	-0.813407	-0.487928	0.316694
42129	9.344366	-0.604750	3.104572	0.000664	0.001718	0.003445	0.238646	0.216608	0.946641	-0.530501	0.845576	-0.059745	-0.813398	-0.487936	0.316705
42130	9.339570	-0.578485	3.158105	0.000664	0.001719	0.003445	0.238655	0.216608	0.946639	-0.530509	0.845572	-0.059737	-0.813391	-0.487943	0.316713
42131	9.319206	-0.571499	3.108069	-0.001519	0.000476	0.004356	0.238651	0.216612	0.946639	-0.530502	0.845576	-0.059745	-0.813396	-0.487935	0.316710
42132	9.372161	-0.589994	3.155303	0.000406	0.000114	0.003435	0.238648	0.216605	0.946641	-0.530512	0.845570	-0.059737	-0.813390	-0.487948	0.316706
42133	9.354484	-0.584191	3.139568	0.002331	-0.000248	0.002513	0.238648	0.216590	0.946645	-0.530532	0.845559	-0.059715	-0.813378	-0.487974	0.316698
42134	9.344120	-0.606274	3.105016	0.000922	0.003323	0.003455	0.238670	0.216598	0.946637	-0.530536	0.845557	-0.059709	-0.813368	-0.487974	0.316722
42135	9.321645	-0.573886	3.142887	-0.000248	0.001763	0.001462	0.238691	0.216583	0.946635	-0.530532	0.845561	-0.059686	-0.813365	-0.487974	0.316733
42136	9.369310	-0.589733	3.121323	-0.000865	-0.001173	0.006329	0.238664	0.216596	0.946639	-0.530536	0.845557	-0.059711	-0.813370	-0.487975	0.316716
42137	9.351655	-0.584236	3.105465	-0.000358	-0.001331	0.004877	0.238642	0.216595	0.946645	-0.530540	0.845554	-0.059720	-0.813374	-0.487981	0.316697
42138	9.328965	-0.603160	3.123782	-0.002937	0.000680	0.003826	0.238641	0.216594	0.946645	-0.530515	0.845568	-0.059729	-0.813390	-0.487956	0.316694
42139	9.336581	-0.580432	3.124129	-0.001519	0.000477	0.004357	0.238636	0.216598	0.946646	-0.530509	0.845572	-0.059738	-0.813396	-0.487948	0.316691
42140	9.376915	-0.568317	3.121458	-0.000764	-0.001445	0.001442	0.238631	0.216566	0.946654	-0.530498	0.845580	-0.059716	-0.813404	-0.487948	0.316670
42141	9.343870	-0.609083	3.105218	-0.002015	0.004004	0.007282	0.238640	0.216612	0.946642	-0.530494	0.845580	-0.059754	-0.813405	-0.487928	0.316700
42142	9.354131	-0.587772	3.139951	0.002726	-0.003502	0.004475	0.238604	0.216598	0.946654	-0.530525	0.845561	-0.059749	-0.813395	-0.487967	0.316665
42143	9.346495	-0.611266	3.139505	-0.002431	0.000522	0.002374	0.238610	0.216585	0.946655	-0.530506	0.845573	-0.059741	-0.813405	-0.487951	0.316662
42144	9.344082	-0.559156	3.124564	-0.000496	0.003527	0.002925	0.238639	0.216591	0.946647	-0.530506	0.845574	-0.059732	-0.813397	-0.487948	0.316690
42145	9.353969	-0.588750	3.140250	-0.001260	0.002082	0.004367	0.238647	0.216603	0.946642	-0.530502	0.845576	-0.059739	-0.813398	-0.487939	0.316702
42146	9.353910	-0.589126	3.140356	-0.001013	0.000318	0.002904	0.238649	0.216593	0.946644	-0.530500	0.845578	-0.059730	-0.813398	-0.487940	0.316699
42147	9.353884	-0.589432	3.140374	0.000406	0.000114	0.003435	0.238647	0.216586	0.946646	-0.530506	0.845575	-0.059723	-0.813395	-0.487949	0.316694
42148	9.346186	-0.612991	3.140090	-0.001519	0.000477	0.004357	0.238641	0.216589	0.946647	-0.530499	0.845578	-0.059730	-0.813401	-0.487941	0.316690
42149	9.333481	-0.582733	3.090426	0.002847	0.002960	0.002534	0.238667	0.216589	0.946640	-0.530524	0.845565	-0.059708	-0.813378	-0.487965	0.316713
42150	9.361055	-0.618229	3.121767	-0.005267	0.000930	0.001313	0.238681	0.216568	0.946641	-0.530474	0.845596	-0.059701	-0.813405	-0.487919	0.316712
42151	9.343677	-0.561560	3.125345	0.002230	0.000024	0.007401	0.238657	0.216595	0.946641	-0.530505	0.845575	-0.059726	-0.813392	-0.487944	0.316707
42152	9.353647	-0.591331	3.140723	-0.001777	-0.001127	0.004346	0.238641	0.216592	0.946646	-0.530501	0.845577	-0.059733	-0.813400	-0.487942	0.316691
42153	9.353640	-0.591716	3.140672	0.000406	0.000114	0.003435	0.238638	0.216585	0.946648	-0.530507	0.845574	-0.059726	-0.813396	-0.487951	0.316686
42154	9.350967	-0.590762	3.106302	-0.002937	0.000682	0.003826	0.238638	0.216585	0.946648	-0.530486	0.845586	-0.059734	-0.813410	-0.487929	0.316684
42155	9.353547	-0.592471	3.140807	0.000664	0.001719	0.003446	0.238648	0.216587	0.946645	-0.530495	0.845582	-0.059727	-0.813402	-0.487936	0.316695
42156	9.350883	-0.591443	3.106426	-0.001271	-0.001286	0.002894	0.238636	0.216568	0.946652	-0.530485	0.845588	-0.059721	-0.813412	-0.487933	0.316674
42157	9.350860	-0.591977	3.106392	-0.002531	0.000796	0.007261	0.238619	0.216598	0.946650	-0.530477	0.845591	-0.059760	-0.813422	-0.487916	0.316674
42158	9.333138	-0.586364	3.090776	-0.003084	0.002172	0.000402	0.238648	0.216575	0.946648	-0.530445	0.845612	-0.059736	-0.813434	-0.487889	0.316685
42159	9.345726	-0.617236	3.140626	0.001059	-0.001535	0.005407	0.238621	0.216577	0.946654	-0.530462	0.845601	-0.059745	-0.813431	-0.487907	0.316664
42160	9.335686	-0.588459	3.125300	-0.001001	0.003686	0.004378	0.238644	0.216597	0.946644	-0.530458	0.845603	-0.059753	-0.813427	-0.487895	0.316693
42161	9.357933	-0.621450	3.087917	0.000665	0.001719	0.003446	0.238654	0.216598	0.946641	-0.530466	0.845598	-0.059745	-0.813418	-0.487903	0.316704
42162	9.343202	-0.566037	3.125958	-0.000101	0.000274	0.004887	0.238646	0.216605	0.946642	-0.530474	0.845593	-0.059753	-0.813416	-0.487909	0.316700
42163	9.327812	-0.612766	3.125353	0.000406	0.000114	0.003435	0.238643	0.216599	0.946644	-0.530481	0.845589	-0.059746	-0.813413	-0.487918	0.316695
42164	9.360782	-0.572712	3.141799	0.001171	0.001559	0.001993	0.238660	0.216588	0.946642	-0.530490	0.845585	-0.059724	-0.813401	-0.487930	0.316705
42165	9.350402	-0.595002	3.107193	-0.002531	0.000797	0.007261	0.238643	0.216618	0.946639	-0.530482	0.845587	-0.059762	-0.813412	-0.487913	0.316705
42166	9.335370	-0.590733	3.125814	-0.000765	-0.001445	0.001442	0.238638	0.216587	0.946648	-0.530474	0.845594	-0.059740	-0.813418	-0.487916	0.316685
42167	9.390762	-0.583396	3.104404	0.001059	-0.001535	0.005408	0.238612	0.216589	0.946654	-0.530490	0.845583	-0.059750	-0.813415	-0.487934	0.316664
42168	9.277315	-0.597736	3.112716	-0.000235	0.005132	0.002936	0.238653	0.216603	0.946640	-0.530490	0.845583	-0.059741	-0.813403	-0.487926	0.316707
42169	9.390575	-0.584148	3.104828	-0.000101	0.000274	0.004888	0.238644	0.216610	0.946641	-0.530496	0.845579	-0.059749	-0.813402	-0.487931	0.316703
42170	9.320127	-0.587517	3.144869	-0.002678	0.002287	0.003837	0.238656	0.216617	0.946636	-0.530476	0.845591	-0.059757	-0.813412	-0.487906	0.316716
42171	9.382730	-0.608217	3.104820	-0.001260	0.002083	0.004367	0.238665	0.216628	0.946632	-0.530471	0.845594	-0.059764	-0.813412	-0.487897	0.316728
42172	9.327654	-0.565239	3.145492	-0.002937	0.000683	0.003826	0.238664	0.216627	0.946632	-0.530453	0.845605	-0.059771	-0.813424	-0.487878	0.316726
42173	9.352195	-0.650804	3.123085	-0.000348	0.002038	0.006351	0.238662	0.216655	0.946626	-0.530460	0.845598	-0.059794	-0.813420	-0.487877	0.316739
42174	9.327514	-0.565988	3.145773	0.000766	0.001445	-0.001442	0.238696	0.216614	0.946627	-0.530463	0.845601	-0.059738	-0.813409	-0.487891	0.316747
42175	9.347199	-0.597579	3.073762	-0.002791	-0.000807	0.007251	0.238666	0.216636	0.946630	-0.530452	0.845605	-0.059778	-0.813424	-0.487875	0.316732
42176	9.345117	-0.572902	3.161493	0.001824	-0.000090	0.003966	0.238658	0.216632	0.946632	-0.530471	0.845593	-0.059771	-0.813414	-0.487896	0.316725
42177	9.357488	-0.576753	3.108388	-0.003703	-0.000761	0.005268	0.238639	0.216637	0.946636	-0.530449	0.845606	-0.059795	-0.813435	-0.487872	0.316709
42178	9.342057	-0.623538	3.107802	-0.002171	0.002128	0.002385	0.238657	0.216631	0.946633	-0.530432	0.845617	-0.059786	-0.813440	-0.487856	0.316720
42179	9.350047	-0.549598	3.127587	0.000665	0.001719	0.003446	0.238667	0.216633	0.946630	-0.530440	0.845612	-0.059779	-0.813432	-0.487864	0.316730
42180	9.352283	-0.602237	3.142712	-0.002184	-0.001240	0.000911	0.238666	0.216598	0.946638	-0.530419	0.845627	-0.059757	-0.813446	-0.487853	0.316710
42181	9.357318	-0.578110	3.108647	0.002489	0.001628	0.007412	0.238654	0.216633	0.946633	-0.530452	0.845604	-0.059781	-0.813427	-0.487877	0.316721
42182	9.342241	-0.573833	3.127408	-0.002431	0.000524	0.002374	0.238663	0.216621	0.946634	-0.530437	0.845614	-0.059772	-0.813435	-0.487865	0.316720
42183	9.352181	-0.603463	3.142780	0.001058	-0.001535	0.005408	0.238636	0.216623	0.946640	-0.530454	0.845603	-0.059782	-0.813432	-0.487883	0.316700
42184	9.357220	-0.579337	3.108716	-0.000753	0.001924	0.002915	0.238649	0.216620	0.946637	-0.530451	0.845606	-0.059773	-0.813430	-0.487879	0.316710
42185	9.374798	-0.585869	3.124569	-0.002025	0.000639	0.005809	0.238638	0.216636	0.946636	-0.530443	0.845609	-0.059797	-0.813438	-0.487867	0.316708
42186	9.342076	-0.575507	3.127593	0.000665	0.001719	0.003446	0.238649	0.216638	0.946633	-0.530457	0.845601	-0.059787	-0.813426	-0.487880	0.316719
42187	9.319333	-0.594239	3.145959	-0.002690	-0.001080	0.002363	0.238642	0.216617	0.946640	-0.530436	0.845615	-0.059780	-0.813442	-0.487865	0.316701
42188	9.324435	-0.569960	3.111749	-0.000766	-0.001445	0.001442	0.238639	0.216587	0.946648	-0.530431	0.845619	-0.059757	-0.813446	-0.487871	0.316682
42189	9.392360	-0.593174	3.140324	0.000665	0.001719	0.003446	0.238649	0.216589	0.946645	-0.530440	0.845614	-0.059749	-0.813437	-0.487879	0.316692
42190	9.349325	-0.604706	3.108561	-0.002791	-0.000806	0.007251	0.238618	0.216609	0.946648	-0.530429	0.845618	-0.059789	-0.813454	-0.487863	0.316675
42191	9.341994	-0.577341	3.127499	0.000406	0.000114	0.003436	0.238615	0.216603	0.946650	-0.530436	0.845615	-0.059782	-0.813450	-0.487872	0.316670
42192	9.356935	-0.582380	3.109005	0.000925	0.003323	0.003457	0.238640	0.216613	0.946641	-0.530453	0.845605	-0.059771	-0.813431	-0.487885	0.316698
42193	9.349148	-0.605922	3.108857	-0.000101	0.000274	0.004888	0.238631	0.216620	0.946642	-0.530459	0.845600	-0.059780	-0.813430	-0.487889	0.316694
42194	9.356849	-0.583146	3.109119	0.000146	-0.001490	0.003425	0.238613	0.216605	0.946650	-0.530463	0.845598	-0.059774	-0.813432	-0.487900	0.316672
42195	9.341802	-0.578786	3.127808	-0.002677	0.002289	0.003837	0.238626	0.216612	0.946645	-0.530446	0.845608	-0.059780	-0.813440	-0.487879	0.316686
42196	9.359358	-0.585246	3.143730	0.000665	0.001719	0.003446	0.238705	0.216477	0.946656	-0.530431	0.845629	-0.059623	-0.813427	-0.487903	0.316682
42197	9.333967	-0.602774	3.127705	-0.003703	-0.000760	0.005268	0.238686	0.216482	0.946660	-0.530409	0.845641	-0.059647	-0.813447	-0.487880	0.316667
42198	9.341632	-0.580145	3.128061	0.001577	0.001673	0.005430	0.238684	0.216500	0.946656	-0.530429	0.845628	-0.059656	-0.813434	-0.487895	0.316675
42199	9.344204	-0.581877	3.162551	0.000406	0.000114	0.003436	0.238681	0.216493	0.946658	-0.530435	0.845624	-0.059649	-0.813431	-0.487904	0.316670
42200	9.348872	-0.608816	3.109121	-0.001779	-0.001124	0.004346	0.238664	0.216489	0.946664	-0.530427	0.845629	-0.059657	-0.813441	-0.487898	0.316653
42201	9.356547	-0.586113	3.109471	0.000159	0.001879	0.004899	0.238668	0.216504	0.946659	-0.530435	0.845623	-0.059665	-0.813435	-0.487901	0.316664
42202	9.316122	-0.598814	3.112168	-0.001013	0.000320	0.002905	0.238669	0.216493	0.946661	-0.530429	0.845628	-0.059658	-0.813439	-0.487898	0.316659
42203	9.359072	-0.588071	3.144055	0.002590	0.001353	0.002525	0.238681	0.216485	0.946660	-0.530451	0.845615	-0.059635	-0.813421	-0.487923	0.316667
42204	9.323734	-0.576338	3.112672	-0.002531	0.000800	0.007262	0.238665	0.216514	0.946658	-0.530444	0.845617	-0.059673	-0.813430	-0.487907	0.316668
42205	9.374019	-0.593888	3.125394	-0.002039	-0.002728	0.004336	0.238634	0.216502	0.946668	-0.530432	0.845624	-0.059683	-0.813446	-0.487901	0.316634
42206	9.356353	-0.588179	3.109666	0.003762	0.002912	0.004519	0.238649	0.216519	0.946661	-0.530470	0.845601	-0.059675	-0.813418	-0.487933	0.316658
42207	9.341232	-0.583803	3.128576	-0.004094	0.002496	0.003306	0.238666	0.216523	0.946655	-0.530439	0.845619	-0.059682	-0.813433	-0.487899	0.316673
42208	9.358799	-0.590348	3.144441	-0.001519	0.000480	0.004357	0.238662	0.216526	0.946656	-0.530432	0.845623	-0.059689	-0.813438	-0.487891	0.316671
42209	9.338500	-0.583351	3.094334	-0.001519	0.000480	0.004357	0.238658	0.216529	0.946656	-0.530425	0.845627	-0.059697	-0.813444	-0.487883	0.316668
42210	9.366017	-0.619094	3.125516	0.001823	-0.000091	0.003967	0.238652	0.216527	0.946658	-0.530445	0.845615	-0.059691	-0.813433	-0.487904	0.316663
42211	9.326051	-0.580726	3.147425	-0.000101	0.000275	0.004888	0.238643	0.216533	0.946659	-0.530451	0.845611	-0.059699	-0.813432	-0.487909	0.316659
42212	9.350889	-0.615105	3.144369	-0.001909	0.003734	0.002396	0.238675	0.216536	0.946650	-0.530435	0.845622	-0.059690	-0.813433	-0.487890	0.316687
42213	9.348650	-0.562983	3.129382	-0.002691	-0.001078	0.002363	0.238668	0.216515	0.946657	-0.530414	0.845635	-0.059683	-0.813449	-0.487875	0.316669
42214	9.350799	-0.615782	3.144503	0.001578	0.001673	0.005430	0.238666	0.216532	0.946653	-0.530430	0.845625	-0.059693	-0.813439	-0.487886	0.316676
42215	9.348193	-0.614900	3.109966	0.000535	-0.004744	0.005387	0.238613	0.216518	0.946670	-0.530442	0.845616	-0.059705	-0.813446	-0.487907	0.316625
42216	9.333165	-0.610610	3.128578	-0.002415	0.003895	0.003848	0.238638	0.216533	0.946660	-0.530424	0.845627	-0.059712	-0.813451	-0.487882	0.316654
42217	9.373447	-0.598757	3.126179	-0.001519	0.000481	0.004357	0.238634	0.216537	0.946660	-0.530417	0.845631	-0.059720	-0.813456	-0.487874	0.316651
42218	9.340768	-0.588278	3.129124	-0.001013	0.000320	0.002905	0.238635	0.216526	0.946662	-0.530411	0.845635	-0.059712	-0.813460	-0.487871	0.316646
42219	9.330834	-0.559394	3.113735	-0.001519	0.000481	0.004357	0.238631	0.216529	0.946663	-0.530404	0.845639	-0.059720	-0.813466	-0.487863	0.316643
42220	9.347964	-0.617091	3.110219	-0.003443	0.000847	0.005279	0.238625	0.216542	0.946661	-0.530385	0.845649	-0.059742	-0.813480	-0.487839	0.316644
42221	9.333291	-0.561722	3.148446	0.001188	0.004927	0.003469	0.238662	0.216560	0.946648	-0.530398	0.845642	-0.059733	-0.813461	-0.487844	0.316685
42222	9.350351	-0.619342	3.145135	-0.000607	0.000435	0.006341	0.238646	0.216579	0.946648	-0.530403	0.845637	-0.059756	-0.813462	-0.487844	0.316682
42223	9.355447	-0.595368	3.111020	-0.001780	-0.001123	0.004347	0.238629	0.216574	0.946653	-0.530394	0.845642	-0.059765	-0.813473	-0.487837	0.316664
42224	9.337760	-0.589633	3.095377	0.000927	0.003323	0.003458	0.238651	0.216583	0.946645	-0.530402	0.845637	-0.059758	-0.813461	-0.487841	0.316688
42225	9.350657	-0.569496	3.164674	-0.001013	0.000321	0.002905	0.238653	0.216573	0.946647	-0.530396	0.845642	-0.059750	-0.813465	-0.487838	0.316684
42226	9.357872	-0.597780	3.145797	-0.001258	0.002085	0.004369	0.238662	0.216584	0.946642	-0.530392	0.845644	-0.059757	-0.813465	-0.487830	0.316698
42227	9.340184	-0.592041	3.130158	-0.001013	0.000321	0.002905	0.238664	0.216575	0.946644	-0.530386	0.845648	-0.059750	-0.813468	-0.487826	0.316694
42228	9.314764	-0.609379	3.114181	0.000666	0.001719	0.003447	0.238674	0.216576	0.946641	-0.530390	0.845646	-0.059744	-0.813462	-0.487830	0.316704
42229	9.332787	-0.564735	3.149400	0.000666	0.001719	0.003447	0.238685	0.216577	0.946638	-0.530399	0.845641	-0.059736	-0.813454	-0.487838	0.316714
42230	9.339979	-0.593023	3.130582	0.001578	0.001673	0.005431	0.238684	0.216595	0.946634	-0.530420	0.845627	-0.059744	-0.813440	-0.487854	0.316724
42231	9.345034	-0.568814	3.096672	-0.000245	0.001765	0.001464	0.238705	0.216580	0.946632	-0.530417	0.845631	-0.059720	-0.813436	-0.487854	0.316734
42232	9.332102	-0.616851	3.130525	-0.002025	0.000642	0.005810	0.238695	0.216596	0.946631	-0.530408	0.845635	-0.059744	-0.813445	-0.487840	0.316733
42233	9.354812	-0.598991	3.112234	-0.000101	0.000275	0.004889	0.238686	0.216603	0.946632	-0.530414	0.845630	-0.059752	-0.813444	-0.487845	0.316729
42234	9.327335	-0.591287	3.184051	-0.001258	0.002086	0.004369	0.238693	0.216614	0.946628	-0.530405	0.845635	-0.059762	-0.813447	-0.487831	0.316740
42235	9.337032	-0.593772	3.096781	-0.001258	0.002086	0.004369	0.238701	0.216625	0.946623	-0.530400	0.845638	-0.059769	-0.813448	-0.487822	0.316753
42236	9.364908	-0.578476	3.147509	0.000928	0.003323	0.003458	0.238725	0.216634	0.946615	-0.530412	0.845631	-0.059760	-0.813433	-0.487829	0.316778
42237	9.339483	-0.595804	3.131534	-0.002692	-0.001077	0.002363	0.238718	0.216613	0.946622	-0.530390	0.845645	-0.059753	-0.813449	-0.487815	0.316760
42238	9.346748	-0.624026	3.112488	0.003241	-0.000298	0.004498	0.238704	0.216612	0.946625	-0.530419	0.845627	-0.059749	-0.813434	-0.487846	0.316750
42239	9.339944	-0.545359	3.150806	-0.005266	0.000941	0.001312	0.238720	0.216592	0.946626	-0.530375	0.845656	-0.059740	-0.813459	-0.487805	0.316750
42240	9.331670	-0.619943	3.131201	0.001317	0.000069	0.005420	0.238707	0.216602	0.946627	-0.530390	0.845645	-0.059750	-0.813453	-0.487819	0.316745
42241	9.364775	-0.580085	3.147608	0.002329	-0.000253	0.002515	0.238706	0.216586	0.946631	-0.530410	0.845634	-0.059728	-0.813440	-0.487845	0.316738
42242	9.336733	-0.596123	3.097232	-0.003182	0.002453	0.005290	0.238712	0.216607	0.946625	-0.530394	0.845643	-0.059750	-0.813449	-0.487821	0.316752
42243	9.371885	-0.608821	3.128919	-0.000751	0.001925	0.002916	0.238727	0.216605	0.946621	-0.530390	0.845646	-0.059742	-0.813447	-0.487816	0.316764
42244	9.329295	-0.569108	3.116584	0.001072	0.001834	0.006884	0.238719	0.216636	0.946616	-0.530409	0.845633	-0.059766	-0.813437	-0.487826	0.316774
42245	9.348970	-0.628039	3.147515	-0.000506	0.000161	0.001453	0.238728	0.216613	0.946619	-0.530403	0.845638	-0.059743	-0.813438	-0.487828	0.316769
42246	9.354595	-0.552695	3.132780	-0.002430	0.000528	0.002374	0.238733	0.216599	0.946621	-0.530382	0.845652	-0.059736	-0.813450	-0.487810	0.316765
42247	9.305854	-0.639594	3.115909	-0.002920	0.004058	0.005301	0.238753	0.216628	0.946609	-0.530366	0.845660	-0.059757	-0.813455	-0.487782	0.316796
42248	9.374159	-0.612141	3.163931	-0.001274	-0.001283	0.002894	0.238741	0.216609	0.946617	-0.530356	0.845667	-0.059751	-0.813465	-0.487778	0.316775
42249	9.354397	-0.554042	3.133135	-0.001764	0.002247	0.005822	0.238743	0.216634	0.946611	-0.530350	0.845669	-0.059774	-0.813468	-0.487764	0.316789
42250	9.348674	-0.630068	3.147989	0.001823	-0.000092	0.003967	0.238735	0.216630	0.946614	-0.530370	0.845657	-0.059767	-0.813458	-0.487787	0.316782
42251	9.328884	-0.571812	3.117320	-0.000489	0.003530	0.002928	0.238763	0.216636	0.946605	-0.530368	0.845659	-0.059758	-0.813451	-0.487781	0.316808
42252	9.353667	-0.606224	3.114276	-0.004355	0.000896	0.003295	0.238766	0.216632	0.946605	-0.530332	0.845681	-0.059767	-0.813473	-0.487745	0.316807
42253	9.346354	-0.578685	3.133373	0.000667	0.001719	0.003448	0.238777	0.216633	0.946602	-0.530341	0.845676	-0.059760	-0.813465	-0.487752	0.316817
42254	9.353553	-0.606897	3.114487	-0.002430	0.000529	0.002374	0.238783	0.216619	0.946604	-0.530321	0.845689	-0.059751	-0.813475	-0.487736	0.316814
42255	9.371159	-0.613190	3.130238	0.004253	-0.000621	0.001594	0.238784	0.216594	0.946609	-0.530355	0.845670	-0.059715	-0.813453	-0.487780	0.316804
42256	9.328635	-0.573237	3.117801	-0.001257	0.002087	0.004369	0.238792	0.216605	0.946605	-0.530350	0.845673	-0.059723	-0.813454	-0.487771	0.316816
42257	9.353468	-0.607668	3.114591	0.000143	-0.001489	0.003425	0.238776	0.216590	0.946612	-0.530354	0.845670	-0.059716	-0.813456	-0.487781	0.316795
42258	9.336365	-0.550861	3.118102	-0.000102	0.000276	0.004889	0.238767	0.216596	0.946613	-0.530364	0.845664	-0.059723	-0.813452	-0.487789	0.316791
42259	9.338409	-0.603744	3.133216	-0.001519	0.000483	0.004358	0.238762	0.216600	0.946614	-0.530357	0.845668	-0.059731	-0.813458	-0.487781	0.316789
42260	9.346112	-0.581054	3.133656	0.000160	0.001880	0.004900	0.238767	0.216615	0.946609	-0.530362	0.845664	-0.059740	-0.813453	-0.487781	0.316801
42261	9.361078	-0.586133	3.115088	0.002329	-0.000253	0.002515	0.238767	0.216599	0.946612	-0.530382	0.845653	-0.059718	-0.813440	-0.487808	0.316794
42262	9.320612	-0.598586	3.117820	-0.001906	0.003737	0.002396	0.238798	0.216601	0.946604	-0.530367	0.845663	-0.059709	-0.813441	-0.487790	0.316821
42263	9.378583	-0.592954	3.131038	-0.001132	-0.002771	0.006319	0.238757	0.216605	0.946614	-0.530368	0.845660	-0.059735	-0.813452	-0.487792	0.316788
42264	9.345983	-0.582355	3.133801	0.001418	-0.000207	0.000531	0.238765	0.216572	0.946619	-0.530376	0.845658	-0.059697	-0.813444	-0.487811	0.316778
42265	9.345947	-0.582509	3.133878	0.000667	0.001719	0.003448	0.238776	0.216574	0.946616	-0.530385	0.845653	-0.059689	-0.813436	-0.487819	0.316789
42266	9.353144	-0.610650	3.114982	-0.000506	0.000161	0.001453	0.238784	0.216551	0.946619	-0.530379	0.845658	-0.059667	-0.813437	-0.487820	0.316784
42267	9.345870	-0.583114	3.133996	-0.002026	0.000644	0.005811	0.238773	0.216567	0.946618	-0.530372	0.845661	-0.059690	-0.813445	-0.487807	0.316782
42268	9.335460	-0.605261	3.099297	-0.001924	0.000368	0.000921	0.238786	0.216540	0.946621	-0.530352	0.845675	-0.059667	-0.813455	-0.487794	0.316778
42269	9.328183	-0.577803	3.118313	0.000303	0.000391	0.008326	0.238760	0.216576	0.946620	-0.530369	0.845662	-0.059707	-0.813451	-0.487802	0.316775
42270	9.370585	-0.618472	3.130918	0.002591	0.001351	0.002526	0.238771	0.216568	0.946618	-0.530392	0.845649	-0.059684	-0.813433	-0.487827	0.316783
42271	9.328097	-0.578566	3.118427	-0.004617	-0.000706	0.003284	0.238763	0.216557	0.946623	-0.530357	0.845670	-0.059692	-0.813458	-0.487796	0.316767
42272	9.345130	-0.636145	3.114892	0.000667	0.001719	0.003448	0.238771	0.216557	0.946621	-0.530364	0.845667	-0.059686	-0.813451	-0.487802	0.316774
42273	9.320767	-0.551481	3.137549	-0.000608	0.000437	0.006342	0.238755	0.216577	0.946621	-0.530369	0.845662	-0.059709	-0.813452	-0.487802	0.316772
42274	9.352811	-0.613844	3.115352	-0.000506	0.000161	0.001453	0.238765	0.216554	0.946623	-0.530362	0.845667	-0.059687	-0.813454	-0.487802	0.316768
42275	9.337746	-0.609366	3.134103	-0.001257	0.002088	0.004369	0.238774	0.216566	0.946618	-0.530358	0.845670	-0.059694	-0.813454	-0.487793	0.316781
42276	9.342883	-0.585388	3.100074	-0.000870	-0.001167	0.006331	0.238745	0.216577	0.946623	-0.530363	0.845665	-0.059718	-0.813459	-0.487797	0.316763
42277	9.348038	-0.588589	3.168913	-0.002168	0.002134	0.002385	0.238765	0.216572	0.946619	-0.530346	0.845676	-0.059709	-0.813465	-0.487780	0.316775
42278	9.335562	-0.558225	3.119197	0.000405	0.000115	0.003437	0.238761	0.216565	0.946622	-0.530351	0.845674	-0.059703	-0.813463	-0.487787	0.316769
42279	9.352589	-0.615735	3.115648	-0.002430	0.000530	0.002374	0.238768	0.216552	0.946623	-0.530332	0.845686	-0.059695	-0.813473	-0.487771	0.316767
42280	9.360324	-0.592903	3.116074	0.003502	0.001304	0.004511	0.238769	0.216560	0.946621	-0.530367	0.845664	-0.059687	-0.813449	-0.487805	0.316775
42281	9.330242	-0.583721	3.153475	-0.004354	0.000899	0.003295	0.238774	0.216556	0.946621	-0.530335	0.845684	-0.059694	-0.813469	-0.487772	0.316775
42282	9.342622	-0.587503	3.100459	0.000405	0.000115	0.003437	0.238771	0.216549	0.946623	-0.530342	0.845680	-0.059687	-0.813465	-0.487783	0.316769
42283	9.352412	-0.617180	3.115892	-0.000102	0.000276	0.004889	0.238762	0.216556	0.946624	-0.530348	0.845675	-0.059695	-0.813464	-0.487787	0.316765
42284	9.335320	-0.560274	3.119554	0.001174	0.001558	0.001995	0.238778	0.216544	0.946622	-0.530359	0.845670	-0.059672	-0.813452	-0.487802	0.316774
42285	9.337333	-0.612936	3.134639	0.000142	-0.001489	0.003425	0.238763	0.216530	0.946629	-0.530364	0.845668	-0.059666	-0.813453	-0.487812	0.316754
42286	9.332713	-0.559671	3.085046	-0.002795	-0.000797	0.007252	0.238731	0.216551	0.946633	-0.530351	0.845673	-0.059706	-0.813471	-0.487794	0.316736
42287	9.345032	-0.590783	3.135060	-0.002553	0.005389	0.000424	0.238787	0.216545	0.946620	-0.530326	0.845691	-0.059681	-0.813471	-0.487766	0.316779
42288	9.342358	-0.589699	3.100839	-0.000365	-0.001328	0.004878	0.238765	0.216543	0.946626	-0.530329	0.845688	-0.059690	-0.813475	-0.487772	0.316759
42289	9.329929	-0.586756	3.153840	-0.000102	0.000276	0.004890	0.238756	0.216550	0.946627	-0.530335	0.845683	-0.059698	-0.813474	-0.487776	0.316756
42290	9.334494	-0.613675	3.100550	-0.000750	0.001927	0.002917	0.238771	0.216548	0.946623	-0.530333	0.845686	-0.059689	-0.813471	-0.487773	0.316767
42291	9.344823	-0.592294	3.135397	-0.001519	0.000484	0.004358	0.238766	0.216551	0.946624	-0.530326	0.845690	-0.059697	-0.813477	-0.487765	0.316765
42292	9.327204	-0.586591	3.119600	-0.000365	-0.001328	0.004878	0.238744	0.216549	0.946630	-0.530330	0.845686	-0.059706	-0.813481	-0.487772	0.316745
42293	9.377394	-0.604089	3.132473	0.000668	0.001719	0.003448	0.238754	0.216551	0.946627	-0.530339	0.845681	-0.059699	-0.813472	-0.487780	0.316755
42294	9.352509	-0.570458	3.135822	-0.003443	0.000854	0.005280	0.238747	0.216563	0.946626	-0.530318	0.845693	-0.059722	-0.813488	-0.487754	0.316754
42295	9.319198	-0.610922	3.119653	0.000283	0.004973	0.001487	0.238794	0.216564	0.946614	-0.530318	0.845694	-0.059697	-0.813474	-0.487751	0.316795
42296	9.334715	-0.564725	3.120561	0.001417	-0.000208	0.000531	0.238803	0.216530	0.946619	-0.530324	0.845693	-0.059660	-0.813468	-0.487768	0.316785
42297	9.359512	-0.599041	3.117337	-0.001519	0.000484	0.004358	0.238798	0.216534	0.946620	-0.530317	0.845697	-0.059668	-0.813473	-0.487760	0.316782
42298	9.349664	-0.570275	3.101962	-0.000608	0.000438	0.006342	0.238782	0.216553	0.946619	-0.530327	0.845689	-0.059690	-0.813472	-0.487765	0.316779
42299	9.361992	-0.601410	3.151882	-0.000750	0.001927	0.002917	0.238797	0.216551	0.946616	-0.530323	0.845692	-0.059682	-0.813470	-0.487761	0.316790
42300	9.321518	-0.613962	3.154537	-0.000102	0.000277	0.004890	0.238786	0.216557	0.946617	-0.530329	0.845688	-0.059691	-0.813469	-0.487766	0.316785
42301	9.367141	-0.577665	3.117865	0.000141	-0.001489	0.003425	0.238771	0.216543	0.946624	-0.530334	0.845685	-0.059684	-0.813471	-0.487776	0.316765
42302	9.333949	-0.618145	3.101304	-0.001782	-0.001119	0.004347	0.238752	0.216537	0.946631	-0.530321	0.845693	-0.059695	-0.813485	-0.487766	0.316745
42303	9.352158	-0.573728	3.136272	-0.001782	-0.001119	0.004347	0.238734	0.216532	0.946636	-0.530312	0.845698	-0.059703	-0.813496	-0.487759	0.316727
42304	9.326692	-0.591060	3.120284	-0.000486	0.003531	0.002929	0.238761	0.216538	0.946628	-0.530311	0.845699	-0.059694	-0.813488	-0.487755	0.316752
42305	9.374240	-0.607117	3.098904	0.001822	-0.000093	0.003968	0.238754	0.216535	0.946630	-0.530330	0.845687	-0.059688	-0.813478	-0.487776	0.316746
42306	9.319367	-0.563745	3.139528	-0.000749	0.001927	0.002917	0.238768	0.216532	0.946628	-0.530324	0.845692	-0.059681	-0.813478	-0.487770	0.316756
42307	9.336282	-0.621262	3.136130	-0.002167	0.002136	0.002386	0.238787	0.216527	0.946624	-0.530307	0.845703	-0.059672	-0.813483	-0.487753	0.316769
42308	9.344638	-0.547459	3.155911	-0.000102	0.000277	0.004890	0.238778	0.216533	0.946625	-0.530316	0.845697	-0.059679	-0.813481	-0.487760	0.316765
42309	9.351161	-0.626962	3.117694	-0.000345	0.002042	0.006354	0.238775	0.216561	0.946619	-0.530323	0.845691	-0.059703	-0.813476	-0.487758	0.316777
42310	9.351706	-0.576364	3.137140	-0.002430	0.000532	0.002374	0.238782	0.216548	0.946621	-0.530307	0.845702	-0.059694	-0.813485	-0.487746	0.316775
42311	9.349108	-0.575359	3.102698	-0.001783	-0.001119	0.004347	0.238764	0.216543	0.946626	-0.530298	0.845707	-0.059702	-0.813496	-0.487739	0.316757
42312	9.353620	-0.629486	3.152251	0.004273	0.002744	0.003070	0.238785	0.216546	0.946620	-0.530336	0.845684	-0.059679	-0.813465	-0.487777	0.316779
42313	9.341793	-0.548050	3.121931	-0.001519	0.000485	0.004358	0.238780	0.216549	0.946620	-0.530329	0.845688	-0.059687	-0.813471	-0.487769	0.316776
42314	9.326124	-0.594758	3.121281	-0.001519	0.000485	0.004358	0.238776	0.216553	0.946621	-0.530326	0.845690	-0.059694	-0.813475	-0.487764	0.316774
42315	9.333857	-0.572005	3.121801	0.000932	0.003323	0.003460	0.238799	0.216562	0.946613	-0.530336	0.845684	-0.059686	-0.813461	-0.487770	0.316799
42316	9.366359	-0.583357	3.119155	0.000162	0.001881	0.004902	0.238803	0.216577	0.946608	-0.530346	0.845677	-0.059693	-0.813453	-0.487775	0.316812
42317	9.366325	-0.583737	3.119185	-0.002694	-0.001072	0.002362	0.238797	0.216556	0.946615	-0.530325	0.845691	-0.059686	-0.813469	-0.487761	0.316793
42318	9.348728	-0.577861	3.103379	0.000404	0.000115	0.003437	0.238795	0.216550	0.946617	-0.530335	0.845685	-0.059677	-0.813463	-0.487774	0.316789
42319	9.335633	-0.625953	3.137128	-0.003443	0.000856	0.005280	0.238789	0.216563	0.946615	-0.530315	0.845696	-0.059700	-0.813478	-0.487749	0.316789
42320	9.326434	-0.545894	3.141154	0.001681	0.001395	0.000543	0.238813	0.216538	0.946615	-0.530326	0.845692	-0.059661	-0.813463	-0.487767	0.316798
42321	9.350545	-0.631277	3.118669	-0.001519	0.000486	0.004358	0.238808	0.216541	0.946615	-0.530319	0.845696	-0.059669	-0.813469	-0.487759	0.316795
42322	9.351130	-0.580762	3.138043	-0.000608	0.000439	0.006343	0.238795	0.216562	0.946614	-0.530328	0.845689	-0.059691	-0.813467	-0.487762	0.316795
42323	9.340685	-0.602956	3.103326	-0.001013	0.000324	0.002906	0.238797	0.216552	0.946616	-0.530322	0.845693	-0.059684	-0.813471	-0.487759	0.316791
42324	9.336015	-0.576648	3.156873	0.004273	0.002743	0.003071	0.238817	0.216556	0.946610	-0.530357	0.845672	-0.059662	-0.813442	-0.487793	0.316813
42325	9.348372	-0.580365	3.103984	-0.001519	0.000486	0.004358	0.238813	0.216559	0.946610	-0.530351	0.845676	-0.059670	-0.813447	-0.487785	0.316810
42326	9.358127	-0.610141	3.119344	0.001051	-0.001536	0.005410	0.238787	0.216561	0.946616	-0.530370	0.845663	-0.059678	-0.813443	-0.487806	0.316790
42327	9.333322	-0.576330	3.122604	-0.003077	0.002184	0.000401	0.238817	0.216539	0.946614	-0.530341	0.845683	-0.059654	-0.813453	-0.487781	0.316803
42328	9.363289	-0.586231	3.085417	-0.000102	0.000277	0.004890	0.238808	0.216546	0.946614	-0.530346	0.845679	-0.059663	-0.813452	-0.487785	0.316799
42329	9.335798	-0.578315	3.157212	-0.001660	0.001975	0.000933	0.238833	0.216527	0.946612	-0.530330	0.845691	-0.059639	-0.813455	-0.487773	0.316810
42330	9.357905	-0.611412	3.119761	-0.001762	0.002252	0.005823	0.238833	0.216551	0.946607	-0.530325	0.845693	-0.059662	-0.813459	-0.487760	0.316821
42331	9.350633	-0.583937	3.138936	0.000668	0.001719	0.003449	0.238843	0.216552	0.946604	-0.530333	0.845688	-0.059654	-0.813450	-0.487768	0.316831
42332	9.307542	-0.595050	3.107245	0.000162	0.001881	0.004902	0.238847	0.216567	0.946600	-0.530340	0.845683	-0.059663	-0.813444	-0.487770	0.316843
42333	9.350468	-0.584687	3.139289	-0.002166	0.002137	0.002386	0.238866	0.216562	0.946596	-0.530323	0.845694	-0.059654	-0.813449	-0.487753	0.316855
42334	9.335370	-0.580252	3.158121	-0.001255	0.002090	0.004370	0.238873	0.216572	0.946592	-0.530316	0.845698	-0.059663	-0.813452	-0.487741	0.316866
42335	9.327497	-0.603828	3.157809	-0.001784	-0.001118	0.004347	0.238856	0.216567	0.946597	-0.530307	0.845703	-0.059671	-0.813463	-0.487735	0.316848
42336	9.358142	-0.562773	3.139886	0.000669	0.001719	0.003449	0.238867	0.216570	0.946594	-0.530318	0.845697	-0.059663	-0.813453	-0.487744	0.316860
42337	9.314417	-0.624923	3.088781	-0.001519	0.000486	0.004359	0.238863	0.216573	0.946594	-0.530311	0.845701	-0.059671	-0.813459	-0.487736	0.316857
42338	9.367808	-0.592855	3.155415	0.001821	-0.000094	0.003969	0.238854	0.216570	0.946597	-0.530329	0.845690	-0.059665	-0.813449	-0.487757	0.316850
42339	9.307202	-0.597764	3.107742	-0.003201	-0.000908	0.003815	0.238842	0.216562	0.946602	-0.530307	0.845703	-0.059674	-0.813467	-0.487738	0.316833
42340	9.365206	-0.592305	3.120928	-0.001519	0.000487	0.004359	0.238836	0.216564	0.946603	-0.530302	0.845705	-0.059681	-0.813472	-0.487732	0.316829
42341	9.350825	-0.536914	3.158942	0.001315	0.000068	0.005422	0.238822	0.216574	0.946604	-0.530321	0.845693	-0.059690	-0.813464	-0.487749	0.316824
42342	9.316830	-0.628451	3.123243	-0.001255	0.002091	0.004370	0.238830	0.216585	0.946600	-0.530314	0.845697	-0.059698	-0.813466	-0.487737	0.316836
42343	9.375418	-0.571877	3.156048	0.003768	0.002904	0.004525	0.238844	0.216601	0.946593	-0.530351	0.845674	-0.059691	-0.813438	-0.487769	0.316859
42344	9.297148	-0.570635	3.092841	-0.003443	0.000859	0.005280	0.238837	0.216614	0.946591	-0.530329	0.845686	-0.059715	-0.813454	-0.487743	0.316858
42345	9.341994	-0.612815	3.139880	0.000669	0.001719	0.003449	0.238847	0.216616	0.946588	-0.530338	0.845681	-0.059707	-0.813446	-0.487751	0.316868
42346	9.349806	-0.590082	3.140249	-0.000367	-0.001326	0.004879	0.238827	0.216615	0.946594	-0.530339	0.845680	-0.059717	-0.813451	-0.487753	0.316851
42347	9.346539	-0.640194	3.086458	-0.001519	0.000487	0.004359	0.238823	0.216619	0.946594	-0.530332	0.845684	-0.059725	-0.813457	-0.487746	0.316848
42348	9.375176	-0.573857	3.156407	0.000265	0.001604	0.000012	0.238850	0.216590	0.946594	-0.530331	0.845687	-0.059686	-0.813449	-0.487752	0.316857
42349	9.326830	-0.609447	3.158697	-0.002533	0.000812	0.007265	0.238833	0.216620	0.946591	-0.530323	0.845689	-0.059725	-0.813460	-0.487735	0.316857
42350	9.372502	-0.573379	3.122137	0.003238	-0.000304	0.004501	0.238821	0.216620	0.946594	-0.530357	0.845668	-0.059718	-0.813441	-0.487771	0.316850
42351	9.339853	-0.562736	3.125122	-0.004089	0.002510	0.003307	0.238839	0.216625	0.946589	-0.530327	0.845687	-0.059724	-0.813455	-0.487737	0.316865
42352	9.331280	-0.637271	3.105462	0.000139	-0.001488	0.003426	0.238823	0.216611	0.946596	-0.530327	0.845687	-0.059720	-0.813460	-0.487743	0.316844
42353	9.347643	-0.540303	3.125529	-0.000748	0.001929	0.002918	0.238838	0.216609	0.946592	-0.530323	0.845690	-0.059712	-0.813458	-0.487739	0.316855
42354	9.346202	-0.642766	3.086943	-0.001519	0.000487	0.004359	0.238831	0.216611	0.946594	-0.530318	0.845693	-0.059720	-0.813463	-0.487732	0.316851
42355	9.331853	-0.587291	3.124952	0.001821	-0.000094	0.003969	0.238824	0.216608	0.946596	-0.530337	0.845681	-0.059713	-0.813453	-0.487754	0.316844
42356	9.329246	-0.586357	3.090569	-0.000609	0.000440	0.006344	0.238810	0.216629	0.946595	-0.530342	0.845677	-0.059737	-0.813454	-0.487753	0.316843
42357	9.356538	-0.622355	3.121697	-0.002695	-0.001069	0.002362	0.238803	0.216608	0.946601	-0.530321	0.845690	-0.059730	-0.813470	-0.487739	0.316825
42358	9.332483	-0.537398	3.144292	0.002593	0.001347	0.002528	0.238814	0.216599	0.946601	-0.530342	0.845679	-0.059708	-0.813453	-0.487763	0.316832
42359	9.356443	-0.622888	3.121874	-0.001254	0.002091	0.004371	0.238823	0.216610	0.946596	-0.530337	0.845681	-0.059716	-0.813453	-0.487754	0.316844
42360	9.342078	-0.567405	3.159965	0.000404	0.000115	0.003438	0.238818	0.216603	0.946599	-0.530345	0.845677	-0.059709	-0.813449	-0.487764	0.316838
42361	9.306152	-0.606472	3.109199	-0.000344	0.002044	0.006356	0.238816	0.216631	0.946593	-0.530352	0.845670	-0.059732	-0.813445	-0.487763	0.316850
42362	9.374517	-0.579351	3.157360	0.000669	0.001719	0.003450	0.238825	0.216632	0.946590	-0.530363	0.845664	-0.059723	-0.813436	-0.487773	0.316860
42363	9.331444	-0.590406	3.125588	-0.001520	0.000488	0.004359	0.238821	0.216635	0.946591	-0.530356	0.845668	-0.059731	-0.813441	-0.487765	0.316857
42364	9.315656	-0.637079	3.124994	-0.001254	0.002092	0.004371	0.238829	0.216646	0.946586	-0.530351	0.845671	-0.059739	-0.813443	-0.487755	0.316869
42365	9.354199	-0.572871	3.107500	0.002328	-0.000257	0.002517	0.238828	0.216630	0.946590	-0.530371	0.845660	-0.059718	-0.813430	-0.487781	0.316862
42366	9.348907	-0.597693	3.141487	-0.001785	-0.001116	0.004347	0.238809	0.216625	0.946596	-0.530364	0.845663	-0.059725	-0.813440	-0.487778	0.316842
42367	9.323470	-0.614812	3.125322	-0.001417	0.000210	-0.000532	0.238829	0.216585	0.946600	-0.530347	0.845677	-0.059687	-0.813445	-0.487771	0.316837
42368	9.371761	-0.579860	3.123165	-0.000102	0.000278	0.004891	0.238819	0.216592	0.946601	-0.530352	0.845673	-0.059696	-0.813445	-0.487775	0.316832
42369	9.331256	-0.592308	3.125788	0.000669	0.001719	0.003450	0.238829	0.216593	0.946598	-0.530360	0.845668	-0.059688	-0.813436	-0.487783	0.316843
42370	9.331205	-0.592610	3.125882	-0.001013	0.000326	0.002906	0.238830	0.216583	0.946600	-0.530357	0.845671	-0.059679	-0.813438	-0.487783	0.316838
42371	9.341610	-0.571204	3.160663	-0.001013	0.000326	0.002906	0.238832	0.216573	0.946602	-0.530351	0.845675	-0.059672	-0.813441	-0.487780	0.316834
42372	9.313570	-0.587070	3.110171	-0.000102	0.000278	0.004891	0.238823	0.216580	0.946603	-0.530359	0.845670	-0.059680	-0.813439	-0.487786	0.316830
42373	9.381282	-0.611102	3.138778	-0.003708	-0.000743	0.005268	0.238804	0.216585	0.946607	-0.530336	0.845683	-0.059703	-0.813460	-0.487762	0.316815
42374	9.321343	-0.564711	3.110667	0.001303	0.004648	-0.001417	0.238865	0.216560	0.946597	-0.530339	0.845685	-0.059647	-0.813440	-0.487769	0.316855
42375	9.338096	-0.622197	3.107317	-0.000609	0.000441	0.006344	0.238850	0.216580	0.946596	-0.530344	0.845680	-0.059671	-0.813441	-0.487769	0.316852
42376	9.338781	-0.571691	3.126699	-0.000103	0.000278	0.004891	0.238841	0.216586	0.946597	-0.530352	0.845675	-0.059679	-0.813438	-0.487776	0.316849
42377	9.330838	-0.595326	3.126463	-0.003177	0.002465	0.005292	0.238848	0.216607	0.946590	-0.530334	0.845684	-0.059701	-0.813448	-0.487749	0.316864
42378	9.338610	-0.572738	3.127018	-0.001254	0.002092	0.004371	0.238856	0.216619	0.946586	-0.530329	0.845687	-0.059709	-0.813449	-0.487740	0.316877
42379	9.340354	-0.625557	3.142244	0.000670	0.001719	0.003450	0.238866	0.216620	0.946583	-0.530338	0.845682	-0.059701	-0.813440	-0.487748	0.316887
42380	9.340996	-0.575045	3.161780	-0.000850	0.002208	0.007809	0.238857	0.216661	0.946576	-0.530344	0.845675	-0.059740	-0.813439	-0.487742	0.316900
42381	9.370951	-0.585155	3.124607	-0.000507	0.000163	0.001453	0.238865	0.216638	0.946579	-0.530339	0.845680	-0.059717	-0.813440	-0.487743	0.316895
42382	9.327871	-0.596253	3.092826	0.000567	0.001998	0.008341	0.238850	0.216682	0.946573	-0.530361	0.845663	-0.059756	-0.813429	-0.487753	0.316907
42383	9.353228	-0.579828	3.109134	-0.003075	0.002187	0.000401	0.238881	0.216660	0.946570	-0.530332	0.845683	-0.059731	-0.813439	-0.487728	0.316919
42384	9.347861	-0.604557	3.143285	-0.001013	0.000326	0.002906	0.238880	0.216649	0.946572	-0.530323	0.845689	-0.059726	-0.813446	-0.487722	0.316913
42385	9.312664	-0.592465	3.111858	0.000163	0.001882	0.004903	0.238884	0.216664	0.946568	-0.530331	0.845684	-0.059733	-0.813439	-0.487725	0.316924
42386	9.362715	-0.610292	3.124935	-0.001760	0.002256	0.005824	0.238885	0.216688	0.946562	-0.530324	0.845687	-0.059757	-0.813444	-0.487710	0.316936
42387	9.347640	-0.605916	3.143681	0.000404	0.000116	0.003438	0.238882	0.216682	0.946565	-0.530330	0.845683	-0.059750	-0.813440	-0.487719	0.316931
42388	9.352967	-0.581636	3.109579	-0.002189	-0.001230	0.000909	0.238880	0.216646	0.946573	-0.530310	0.845697	-0.059728	-0.813454	-0.487709	0.316909
42389	9.347623	-0.606375	3.143641	0.000670	0.001719	0.003450	0.238890	0.216648	0.946570	-0.530319	0.845692	-0.059721	-0.813446	-0.487717	0.316920
42390	9.345725	-0.554455	3.128784	-0.002267	0.002419	0.007277	0.238886	0.216686	0.946563	-0.530312	0.845694	-0.059759	-0.813451	-0.487698	0.316936
42391	9.344877	-0.605941	3.109615	-0.000240	0.001767	0.001465	0.238908	0.216671	0.946561	-0.530309	0.845698	-0.059736	-0.813447	-0.487698	0.316946
42392	9.337726	-0.578312	3.128632	-0.000369	-0.001325	0.004879	0.238886	0.216670	0.946566	-0.530312	0.845694	-0.059745	-0.813451	-0.487704	0.316928
42393	9.362427	-0.612954	3.125277	-0.001786	-0.001114	0.004347	0.238869	0.216666	0.946572	-0.530303	0.845700	-0.059754	-0.813462	-0.487697	0.316910
42394	9.337705	-0.579158	3.128537	0.000670	0.001719	0.003450	0.238876	0.216666	0.946570	-0.530311	0.845695	-0.059747	-0.813455	-0.487704	0.316916
42395	9.352656	-0.584367	3.110005	-0.002937	0.000700	0.003827	0.238876	0.216666	0.946570	-0.530291	0.845707	-0.059755	-0.813468	-0.487683	0.316915
42396	9.370192	-0.590911	3.125799	-0.000507	0.000163	0.001453	0.238734	0.216529	0.946637	-0.530445	0.845618	-0.059649	-0.813409	-0.487899	0.316735
42397	9.327149	-0.601833	3.093923	0.001314	0.000068	0.005423	0.238720	0.216539	0.946638	-0.530464	0.845606	-0.059658	-0.813401	-0.487916	0.316730
42398	9.367583	-0.590199	3.091423	0.000404	0.000116	0.003438	0.238717	0.216533	0.946640	-0.530470	0.845603	-0.059651	-0.813398	-0.487924	0.316724
42399	9.304951	-0.569901	3.131612	-0.003443	0.000864	0.005280	0.238711	0.216546	0.946639	-0.530449	0.845614	-0.059674	-0.813413	-0.487899	0.316723
42400	9.370020	-0.592362	3.126039	0.001950	0.002997	0.000556	0.238748	0.216528	0.946634	-0.530460	0.845610	-0.059635	-0.813395	-0.487914	0.316747
42401	9.345254	-0.558325	3.129502	0.000670	0.001719	0.003450	0.238758	0.216530	0.946631	-0.530469	0.845605	-0.059627	-0.813387	-0.487922	0.316757
42402	9.359430	-0.614577	3.091605	-0.001520	0.000490	0.004359	0.238756	0.216532	0.946630	-0.530461	0.845609	-0.059634	-0.813392	-0.487912	0.316756
42403	9.345158	-0.559158	3.129640	-0.001520	0.000490	0.004359	0.238751	0.216536	0.946631	-0.530454	0.845613	-0.059642	-0.813398	-0.487904	0.316754
42404	9.318919	-0.627351	3.094100	-0.000773	-0.001440	0.001441	0.238748	0.216505	0.946639	-0.530448	0.845618	-0.059618	-0.813403	-0.487909	0.316734
42405	9.334723	-0.581313	3.094750	0.002327	-0.000259	0.002517	0.238747	0.216489	0.946643	-0.530469	0.845607	-0.059597	-0.813390	-0.487936	0.316726
42406	9.359300	-0.615799	3.091756	-0.000720	0.005301	0.004396	0.238781	0.216515	0.946628	-0.530469	0.845606	-0.059601	-0.813379	-0.487925	0.316769
42407	9.329193	-0.606574	3.129208	0.001047	-0.001536	0.005411	0.238754	0.216517	0.946634	-0.530486	0.845595	-0.059611	-0.813376	-0.487944	0.316749
42408	9.334533	-0.582451	3.095110	-0.001013	0.000327	0.002906	0.238754	0.216507	0.946637	-0.530479	0.845600	-0.059605	-0.813381	-0.487940	0.316743
42409	9.344136	-0.612177	3.110620	-0.001253	0.002094	0.004372	0.238762	0.216518	0.946632	-0.530475	0.845602	-0.059612	-0.813381	-0.487931	0.316755
42410	9.344882	-0.561367	3.130070	0.001417	-0.000211	0.000532	0.238771	0.216486	0.946637	-0.530486	0.845598	-0.059574	-0.813371	-0.487953	0.316747
42411	9.344072	-0.612633	3.110721	-0.001520	0.000490	0.004359	0.238767	0.216489	0.946638	-0.530479	0.845602	-0.059582	-0.813377	-0.487945	0.316744
42412	9.351892	-0.589913	3.111254	0.002354	0.003112	0.003995	0.238785	0.216502	0.946630	-0.530505	0.845586	-0.059573	-0.813355	-0.487967	0.316769
42413	9.334205	-0.584035	3.095798	0.001847	0.003276	0.005448	0.238798	0.216528	0.946621	-0.530528	0.845571	-0.059581	-0.813336	-0.487981	0.316794
42414	9.346382	-0.615185	3.145621	-0.000130	-0.003091	0.003414	0.238770	0.216506	0.946633	-0.530531	0.845569	-0.059575	-0.813342	-0.487994	0.316760
42415	9.369287	-0.597319	3.127296	-0.001253	0.002094	0.004372	0.238778	0.216517	0.946628	-0.530527	0.845572	-0.059582	-0.813343	-0.487985	0.316772
42416	9.328738	-0.609613	3.129973	0.001177	0.001556	0.001998	0.238794	0.216505	0.946627	-0.530541	0.845564	-0.059558	-0.813329	-0.488002	0.316781
42417	9.359514	-0.568493	3.112150	-0.001013	0.000327	0.002906	0.238796	0.216495	0.946629	-0.530535	0.845569	-0.059550	-0.813332	-0.487999	0.316777
42418	9.328636	-0.610217	3.130162	0.000164	0.001883	0.004904	0.238800	0.216510	0.946624	-0.530541	0.845565	-0.059559	-0.813327	-0.488000	0.316788
42419	9.354009	-0.593830	3.146475	-0.001253	0.002094	0.004372	0.238809	0.216521	0.946620	-0.530536	0.845567	-0.059566	-0.813328	-0.487991	0.316801
42420	9.336338	-0.588018	3.130965	0.000431	0.003487	0.004916	0.238827	0.216544	0.946610	-0.530547	0.845560	-0.059572	-0.813315	-0.487994	0.316829
42421	9.360934	-0.622595	3.127841	-0.002697	-0.001065	0.002362	0.238821	0.216522	0.946617	-0.530526	0.845573	-0.059565	-0.813331	-0.487979	0.316811
42422	9.318721	-0.582438	3.115251	0.000403	0.000116	0.003439	0.238819	0.216515	0.946618	-0.530533	0.845569	-0.059556	-0.813326	-0.487990	0.316807
42423	9.351245	-0.593780	3.112462	0.002594	0.001345	0.002530	0.238831	0.216507	0.946617	-0.530556	0.845557	-0.059534	-0.813308	-0.488015	0.316815
42424	9.353758	-0.595575	3.146891	-0.003710	-0.000738	0.005268	0.238812	0.216512	0.946621	-0.530534	0.845569	-0.059557	-0.813328	-0.487991	0.316799
42425	9.336147	-0.589916	3.131177	-0.001759	0.002258	0.005825	0.238814	0.216536	0.946615	-0.530529	0.845571	-0.059580	-0.813331	-0.487978	0.316813
42426	9.351091	-0.595219	3.112649	0.000403	0.000116	0.003439	0.238810	0.216530	0.946617	-0.530533	0.845568	-0.059575	-0.813329	-0.487985	0.316806
42427	9.343971	-0.567583	3.131667	-0.001013	0.000327	0.002906	0.238812	0.216520	0.946619	-0.530527	0.845572	-0.059567	-0.813333	-0.487982	0.316802
42428	9.368534	-0.602164	3.128619	-0.000986	0.003698	0.004384	0.238834	0.216539	0.946609	-0.530528	0.845572	-0.059572	-0.813326	-0.487975	0.316831
42429	9.353464	-0.597687	3.147366	-0.002697	-0.001065	0.002362	0.238827	0.216518	0.946616	-0.530507	0.845586	-0.059565	-0.813342	-0.487960	0.316813
42430	9.318342	-0.585610	3.115789	-0.000610	0.000443	0.006345	0.238810	0.216537	0.946616	-0.530510	0.845581	-0.059589	-0.813344	-0.487959	0.316808
42431	9.358714	-0.574009	3.113542	0.000295	0.004975	0.001490	0.238857	0.216537	0.946604	-0.530511	0.845583	-0.059564	-0.813329	-0.487957	0.316849
42432	9.368283	-0.603824	3.129053	-0.001651	-0.002600	0.007773	0.238810	0.216554	0.946612	-0.530515	0.845578	-0.059603	-0.813341	-0.487958	0.316818
42433	9.335753	-0.593249	3.131721	0.000136	-0.001488	0.003426	0.238795	0.216540	0.946619	-0.530519	0.845575	-0.059597	-0.813343	-0.487968	0.316797
42434	9.326097	-0.564193	3.116337	-0.000746	0.001931	0.002919	0.238811	0.216537	0.946615	-0.530512	0.845580	-0.059589	-0.813343	-0.487961	0.316810
42435	9.360294	-0.627990	3.128679	-0.000239	0.001767	0.001466	0.238832	0.216522	0.946614	-0.530509	0.845584	-0.059565	-0.813339	-0.487961	0.316820
42436	9.343505	-0.570986	3.132441	0.001581	0.001672	0.005437	0.238831	0.216540	0.946610	-0.530531	0.845570	-0.059573	-0.813325	-0.487978	0.316829
42437	9.310076	-0.611274	3.115963	-0.002697	-0.001064	0.002362	0.238824	0.216518	0.946617	-0.530510	0.845583	-0.059566	-0.813340	-0.487964	0.316811
42438	9.360991	-0.578023	3.148262	0.001581	0.001672	0.005437	0.238824	0.216536	0.946613	-0.530529	0.845571	-0.059574	-0.813328	-0.487978	0.316821
42439	9.317929	-0.589024	3.116380	-0.001788	-0.001112	0.004347	0.238806	0.216531	0.946618	-0.530520	0.845576	-0.059582	-0.813339	-0.487971	0.316803
42440	9.375970	-0.583577	3.129585	0.002833	-0.000424	0.001065	0.238811	0.216502	0.946624	-0.530541	0.845565	-0.059545	-0.813324	-0.488002	0.316794
42441	9.325822	-0.566400	3.116761	-0.001252	0.002095	0.004372	0.238820	0.216513	0.946619	-0.530536	0.845568	-0.059553	-0.813324	-0.487993	0.316806
42442	9.350377	-0.601145	3.113655	-0.003443	0.000868	0.005280	0.238814	0.216526	0.946617	-0.530513	0.845581	-0.059576	-0.813341	-0.487965	0.316807
42443	9.343230	-0.573649	3.132775	-0.000746	0.001932	0.002919	0.238829	0.216524	0.946614	-0.530509	0.845584	-0.059568	-0.813339	-0.487961	0.316818
42444	9.324801	-0.618788	3.097654	0.001045	-0.001535	0.005412	0.238803	0.216526	0.946620	-0.530530	0.845570	-0.059576	-0.813334	-0.487983	0.316798
42445	9.375693	-0.585628	3.130033	-0.000984	0.003699	0.004385	0.238825	0.216545	0.946610	-0.530527	0.845571	-0.059582	-0.813329	-0.487973	0.316826
42446	9.328050	-0.570234	3.151654	-0.002801	-0.000783	0.007254	0.238793	0.216566	0.946614	-0.530514	0.845577	-0.059623	-0.813347	-0.487954	0.316809
42447	9.359790	-0.632799	3.129219	0.000881	-0.003419	0.000508	0.238777	0.216517	0.946629	-0.530517	0.845577	-0.059587	-0.813349	-0.487975	0.316771
42448	9.333502	-0.546276	3.117348	-0.000745	0.001932	0.002919	0.238794	0.216515	0.946625	-0.530513	0.845581	-0.059578	-0.813347	-0.487970	0.316784
42449	9.339640	-0.625552	3.079146	0.000671	0.001720	0.003451	0.238804	0.216517	0.946622	-0.530522	0.845576	-0.059571	-0.813338	-0.487978	0.316794
42450	9.310406	-0.565176	3.135953	0.000164	0.001884	0.004905	0.238809	0.216531	0.946618	-0.530530	0.845570	-0.059578	-0.813332	-0.487981	0.316806
42451	9.359581	-0.634010	3.129598	-0.002430	0.000540	0.002374	0.238815	0.216518	0.946619	-0.530511	0.845582	-0.059570	-0.813342	-0.487966	0.316803
42452	9.342868	-0.577077	3.133223	0.001313	0.000068	0.005425	0.238800	0.216527	0.946621	-0.530534	0.845567	-0.059577	-0.813332	-0.487987	0.316796
42453	9.357849	-0.582242	3.114615	-0.003340	0.000589	0.000388	0.238817	0.216497	0.946623	-0.530503	0.845589	-0.059553	-0.813347	-0.487964	0.316793
42454	9.352442	-0.607052	3.148609	-0.001788	-0.001111	0.004347	0.238801	0.216493	0.946628	-0.530492	0.845595	-0.059562	-0.813359	-0.487955	0.316777
42455	9.340275	-0.576566	3.098818	0.002594	0.001343	0.002531	0.238813	0.216485	0.946627	-0.530514	0.845582	-0.059540	-0.813340	-0.487980	0.316785
42456	9.326857	-0.624457	3.132652	-0.002668	0.002308	0.003840	0.238826	0.216493	0.946622	-0.530495	0.845594	-0.059548	-0.813350	-0.487956	0.316798
42457	9.325114	-0.572295	3.117802	-0.000239	0.001768	0.001466	0.238847	0.216477	0.946620	-0.530491	0.845598	-0.059524	-0.813346	-0.487957	0.316808
42458	9.357613	-0.583745	3.115042	-0.001520	0.000493	0.004360	0.238844	0.216482	0.946620	-0.530486	0.845600	-0.059531	-0.813350	-0.487950	0.316808
42459	9.349614	-0.607207	3.114772	0.000671	0.001720	0.003452	0.238855	0.216483	0.946617	-0.530495	0.845595	-0.059524	-0.813341	-0.487958	0.316818
42460	9.342459	-0.579711	3.133958	-0.001759	0.002260	0.005826	0.238857	0.216507	0.946611	-0.530490	0.845597	-0.059546	-0.813344	-0.487944	0.316831
42461	9.356531	-0.635987	3.096047	0.002326	-0.000261	0.002518	0.238856	0.216491	0.946615	-0.530510	0.845586	-0.059524	-0.813331	-0.487971	0.316824
42462	9.347745	-0.555807	3.100185	-0.001893	0.003748	0.002399	0.238885	0.216492	0.946607	-0.530500	0.845593	-0.059513	-0.813329	-0.487959	0.316849
42463	9.349336	-0.608635	3.115326	-0.001788	-0.001111	0.004347	0.238867	0.216488	0.946613	-0.530491	0.845598	-0.059522	-0.813340	-0.487952	0.316831
42464	9.359776	-0.587440	3.150128	0.001581	0.001672	0.005437	0.238865	0.216505	0.946609	-0.530511	0.845585	-0.059532	-0.813327	-0.487967	0.316839
42465	9.327132	-0.576807	3.153175	-0.003175	0.002473	0.005293	0.238871	0.216526	0.946603	-0.530493	0.845595	-0.059554	-0.813337	-0.487941	0.316854
42466	9.326177	-0.628287	3.133912	0.000403	0.000116	0.003439	0.238868	0.216521	0.946605	-0.530503	0.845589	-0.059547	-0.813332	-0.487953	0.316849
42467	9.342050	-0.582434	3.134670	0.000403	0.000116	0.003439	0.238866	0.216514	0.946607	-0.530510	0.845585	-0.059540	-0.813328	-0.487962	0.316844
42468	9.332358	-0.553434	3.119510	0.002118	0.004879	0.005463	0.238891	0.216549	0.946593	-0.530538	0.845567	-0.059546	-0.813302	-0.487978	0.316886
42469	9.333942	-0.606190	3.134639	-0.003876	-0.002617	0.000363	0.238882	0.216503	0.946605	-0.530502	0.845591	-0.059524	-0.813328	-0.487957	0.316852
42470	9.349897	-0.560349	3.135171	0.003877	-0.001961	0.006478	0.238845	0.216512	0.946613	-0.530545	0.845563	-0.059535	-0.813311	-0.488001	0.316828
42471	9.331428	-0.605547	3.100035	-0.001252	0.002097	0.004372	0.238854	0.216523	0.946608	-0.530541	0.845566	-0.059542	-0.813311	-0.487992	0.316841
42472	9.367343	-0.567490	3.151065	-0.001013	0.000329	0.002907	0.238855	0.216513	0.946610	-0.530536	0.845569	-0.059534	-0.813314	-0.487991	0.316837
42473	9.321727	-0.576918	3.084847	-0.001252	0.002097	0.004373	0.238864	0.216524	0.946605	-0.530532	0.845571	-0.059541	-0.813314	-0.487982	0.316849
42474	9.356743	-0.589896	3.116496	0.000403	0.000116	0.003439	0.238860	0.216516	0.946608	-0.530543	0.845565	-0.059532	-0.813308	-0.487996	0.316843
42475	9.347106	-0.560895	3.101196	-0.001251	0.002097	0.004373	0.238868	0.216528	0.946603	-0.530538	0.845568	-0.059539	-0.813309	-0.487987	0.316855
42476	9.333656	-0.608934	3.134960	-0.000104	0.000281	0.004893	0.238857	0.216534	0.946605	-0.530545	0.845563	-0.059548	-0.813308	-0.487992	0.316850
42477	9.341604	-0.586239	3.135289	-0.002698	-0.001062	0.002361	0.238851	0.216513	0.946611	-0.530523	0.845577	-0.059541	-0.813324	-0.487978	0.316832
42478	9.348580	-0.614407	3.116461	0.000299	0.004975	0.001491	0.238896	0.216513	0.946599	-0.530524	0.845578	-0.059517	-0.813310	-0.487976	0.316871
42479	9.356465	-0.591632	3.117000	0.001044	-0.001535	0.005413	0.238870	0.216515	0.946606	-0.530541	0.845567	-0.059526	-0.813307	-0.487994	0.316850
42480	9.364422	-0.568947	3.117312	0.000403	0.000116	0.003439	0.238866	0.216508	0.946608	-0.530547	0.845563	-0.059519	-0.813304	-0.488003	0.316844
42481	9.333462	-0.610610	3.135213	-0.000104	0.000281	0.004893	0.238857	0.216515	0.946609	-0.530553	0.845559	-0.059528	-0.813302	-0.488008	0.316840
42482	9.356391	-0.592867	3.116989	-0.001520	0.000494	0.004360	0.238853	0.216518	0.946609	-0.530541	0.845566	-0.059538	-0.813311	-0.487994	0.316838
42483	9.323814	-0.582060	3.119880	-0.002430	0.000542	0.002374	0.238859	0.216505	0.946611	-0.530522	0.845578	-0.059530	-0.813322	-0.487979	0.316835
42484	9.349248	-0.565746	3.136138	0.001075	0.001836	0.006891	0.238852	0.216536	0.946605	-0.530547	0.845561	-0.059552	-0.813307	-0.487995	0.316847
42485	9.333265	-0.612282	3.135471	0.002326	-0.000261	0.002519	0.238851	0.216520	0.946609	-0.530567	0.845550	-0.059530	-0.813295	-0.488021	0.316839
42486	9.346659	-0.565166	3.101766	-0.002802	-0.000780	0.007254	0.238820	0.216540	0.946613	-0.530555	0.845555	-0.059570	-0.813312	-0.488004	0.316822
42487	9.366677	-0.573363	3.151984	-0.000238	0.001768	0.001466	0.238841	0.216525	0.946611	-0.530552	0.845558	-0.059547	-0.813308	-0.488004	0.316832
42488	9.323602	-0.584042	3.120146	0.000403	0.000116	0.003439	0.238837	0.216519	0.946613	-0.530556	0.845556	-0.059541	-0.813306	-0.488011	0.316825
42489	9.338570	-0.589381	3.101543	-0.000610	0.000446	0.006346	0.238821	0.216539	0.946613	-0.530561	0.845551	-0.059565	-0.813308	-0.488010	0.316823
42490	9.338531	-0.589838	3.101574	-0.001013	0.000330	0.002907	0.238822	0.216528	0.946615	-0.530559	0.845553	-0.059556	-0.813309	-0.488012	0.316818
42491	9.323493	-0.585339	3.120229	-0.000104	0.000281	0.004893	0.238813	0.216535	0.946616	-0.530565	0.845549	-0.059565	-0.813307	-0.488017	0.316814
42492	9.358503	-0.598269	3.151874	-0.000238	0.001768	0.001466	0.238834	0.216520	0.946614	-0.530560	0.845554	-0.059542	-0.813305	-0.488015	0.316823
42493	9.316336	-0.557904	3.139504	-0.002160	0.002146	0.002387	0.238853	0.216515	0.946610	-0.530543	0.845565	-0.059534	-0.813310	-0.487998	0.316836
42494	9.370856	-0.602230	3.099129	-0.002430	0.000543	0.002374	0.238860	0.216501	0.946611	-0.530522	0.845578	-0.059527	-0.813322	-0.487980	0.316833
42495	9.331201	-0.563532	3.121164	0.002760	0.003226	0.007437	0.238861	0.216544	0.946601	-0.530557	0.845555	-0.059550	-0.813298	-0.488002	0.316859
42496	9.347721	-0.621328	3.117665	-0.004115	-0.000847	0.001829	0.238858	0.216518	0.946608	-0.530522	0.845578	-0.059543	-0.813322	-0.487974	0.316841
42497	9.348639	-0.570606	3.137073	0.002088	0.001507	0.003985	0.238864	0.216523	0.946605	-0.530543	0.845564	-0.059536	-0.813307	-0.487994	0.316850
42498	9.330100	-0.615767	3.102020	-0.003443	0.000873	0.005281	0.238857	0.216536	0.946604	-0.530522	0.845576	-0.059559	-0.813323	-0.487969	0.316849
42499	9.366062	-0.577835	3.152994	0.000403	0.000116	0.003440	0.238854	0.216530	0.946606	-0.530529	0.845572	-0.059553	-0.813319	-0.487978	0.316843
42500	9.323027	-0.588573	3.121012	-0.002699	-0.001060	0.002361	0.238847	0.216509	0.946613	-0.530507	0.845586	-0.059546	-0.813335	-0.487963	0.316826
42501	9.365972	-0.578597	3.153121	0.003030	0.004830	0.007450	0.238862	0.216559	0.946598	-0.530545	0.845561	-0.059568	-0.813306	-0.487984	0.316867
42502	9.337853	-0.594441	3.102739	-0.001790	-0.001108	0.004347	0.238846	0.216555	0.946603	-0.530537	0.845566	-0.059576	-0.813316	-0.487978	0.316850
42503	9.314837	-0.612927	3.121012	-0.000237	0.001768	0.001466	0.238867	0.216540	0.946601	-0.530534	0.845569	-0.059553	-0.813312	-0.487978	0.316860
42504	9.363307	-0.578304	3.118938	-0.000374	-0.001322	0.004880	0.238844	0.216538	0.946607	-0.530534	0.845568	-0.059563	-0.813318	-0.487981	0.316840
42505	9.322754	-0.590620	3.121441	-0.001251	0.002098	0.004373	0.238853	0.216549	0.946602	-0.530530	0.845571	-0.059570	-0.813319	-0.487972	0.316853
42506	9.299711	-0.609100	3.139789	-0.000507	0.000165	0.001453	0.238861	0.216526	0.946605	-0.530525	0.845575	-0.059547	-0.813320	-0.487974	0.316848
42507	9.345660	-0.573120	3.103319	-0.000611	0.000447	0.006347	0.238846	0.216546	0.946605	-0.530530	0.845570	-0.059571	-0.813321	-0.487974	0.316845
42508	9.332183	-0.621228	3.136932	-0.003206	-0.000895	0.003815	0.238831	0.216538	0.946610	-0.530509	0.845583	-0.059580	-0.813339	-0.487956	0.316827
42509	9.348139	-0.575549	3.137660	-0.001520	0.000495	0.004360	0.238827	0.216541	0.946611	-0.530502	0.845587	-0.059587	-0.813345	-0.487948	0.316824
42510	9.305075	-0.586346	3.105739	0.003235	-0.000311	0.004505	0.238814	0.216542	0.946614	-0.530538	0.845565	-0.059581	-0.813325	-0.487986	0.316816
42511	9.340031	-0.599228	3.137521	0.000303	0.004975	0.001492	0.238861	0.216543	0.946602	-0.530539	0.845566	-0.059556	-0.813310	-0.487984	0.316857
42512	9.365487	-0.582872	3.153774	0.000266	-0.002974	0.006854	0.238816	0.216551	0.946611	-0.530553	0.845555	-0.059582	-0.813315	-0.487998	0.316824
42513	9.337435	-0.598706	3.103174	-0.002666	0.002313	0.003840	0.238829	0.216558	0.946606	-0.530535	0.845566	-0.059589	-0.813322	-0.487976	0.316837
42514	9.340870	-0.549496	3.157080	-0.001013	0.000330	0.002907	0.238831	0.216548	0.946608	-0.530527	0.845571	-0.059581	-0.813327	-0.487972	0.316833
42515	9.345333	-0.576392	3.103698	-0.001520	0.000496	0.004360	0.238826	0.216551	0.946609	-0.530520	0.845575	-0.059589	-0.813333	-0.487964	0.316830
42516	9.337305	-0.599836	3.103348	-0.001013	0.000330	0.002907	0.238827	0.216541	0.946611	-0.530514	0.845580	-0.059583	-0.813337	-0.487960	0.316825
42517	9.312726	-0.565852	3.106661	0.003505	0.001292	0.004518	0.238828	0.216549	0.946608	-0.530548	0.845559	-0.059576	-0.813314	-0.487993	0.316833
42518	9.354679	-0.606776	3.119450	-0.001890	0.003751	0.002400	0.238858	0.216551	0.946600	-0.530535	0.845568	-0.059567	-0.813314	-0.487976	0.316859
42519	9.370610	-0.561020	3.120326	-0.001790	-0.001108	0.004348	0.238841	0.216547	0.946606	-0.530526	0.845573	-0.059576	-0.813325	-0.487970	0.316841
42520	9.314037	-0.619361	3.122129	0.000943	0.003323	0.003466	0.238863	0.216556	0.946598	-0.530538	0.845565	-0.059567	-0.813310	-0.487978	0.316866
42521	9.344963	-0.578429	3.104431	0.000403	0.000117	0.003440	0.238861	0.216549	0.946600	-0.530545	0.845562	-0.059560	-0.813307	-0.487987	0.316861
42522	9.347451	-0.580177	3.138855	-0.001013	0.000331	0.002907	0.238861	0.216538	0.946603	-0.530540	0.845566	-0.059552	-0.813310	-0.487986	0.316855
42523	9.313909	-0.620272	3.122331	0.000403	0.000117	0.003440	0.238858	0.216532	0.946605	-0.530546	0.845562	-0.059545	-0.813306	-0.487995	0.316850
42524	9.347395	-0.580868	3.138894	-0.000104	0.000282	0.004893	0.238849	0.216539	0.946606	-0.530550	0.845559	-0.059555	-0.813307	-0.487997	0.316845
42525	9.356873	-0.610728	3.154322	-0.001520	0.000496	0.004360	0.238844	0.216542	0.946606	-0.530544	0.845562	-0.059563	-0.813312	-0.487990	0.316843
42526	9.352800	-0.557355	3.104941	-0.000611	0.000447	0.006347	0.238829	0.216562	0.946605	-0.530547	0.845558	-0.059588	-0.813315	-0.487987	0.316840
42527	9.336727	-0.604014	3.104278	0.001582	0.001671	0.005439	0.238828	0.216580	0.946601	-0.530568	0.845545	-0.059596	-0.813301	-0.488003	0.316851
42528	9.347153	-0.582846	3.139249	-0.002666	0.002314	0.003841	0.238842	0.216589	0.946596	-0.530556	0.845552	-0.059602	-0.813305	-0.487986	0.316866
42529	9.336618	-0.604919	3.104428	-0.002061	-0.002710	0.004335	0.238811	0.216577	0.946606	-0.530544	0.845559	-0.059611	-0.813322	-0.487981	0.316833
42530	9.344608	-0.582317	3.104773	-0.001250	0.002100	0.004374	0.238820	0.216587	0.946602	-0.530537	0.845562	-0.059618	-0.813324	-0.487970	0.316844
42531	9.339053	-0.607198	3.138901	-0.001013	0.000331	0.002907	0.238822	0.216577	0.946604	-0.530531	0.845567	-0.059611	-0.813327	-0.487966	0.316840
42532	9.338976	-0.607496	3.139071	0.000943	0.003323	0.003466	0.238843	0.216586	0.946596	-0.530543	0.845560	-0.059603	-0.813313	-0.487974	0.316864
42533	9.306454	-0.596556	3.141866	-0.003241	-0.004265	0.002335	0.238810	0.216549	0.946613	-0.530517	0.845576	-0.059597	-0.813339	-0.487962	0.316815
42534	9.361984	-0.589952	3.120729	0.000944	0.003323	0.003466	0.238832	0.216558	0.946605	-0.530525	0.845572	-0.059591	-0.813328	-0.487965	0.316840
42535	9.331867	-0.580520	3.158232	-0.001250	0.002100	0.004374	0.238841	0.216569	0.946601	-0.530520	0.845575	-0.059598	-0.813329	-0.487956	0.316852
42536	9.353825	-0.613841	3.120628	-0.000375	-0.001321	0.004881	0.238818	0.216568	0.946607	-0.530520	0.845574	-0.059609	-0.813336	-0.487958	0.316831
42537	9.349788	-0.560385	3.071246	-0.001250	0.002100	0.004374	0.238826	0.216579	0.946602	-0.530515	0.845576	-0.059617	-0.813336	-0.487949	0.316844
42538	9.338745	-0.609775	3.139315	-0.001284	-0.001272	0.002894	0.238815	0.216561	0.946609	-0.530507	0.845582	-0.059610	-0.813345	-0.487947	0.316825
42539	9.344224	-0.585575	3.105315	0.000673	0.001720	0.003453	0.238825	0.216563	0.946606	-0.530516	0.845577	-0.059602	-0.813336	-0.487955	0.316835
42540	9.313079	-0.627152	3.123431	-0.003811	0.004132	0.003321	0.238855	0.216575	0.946596	-0.530486	0.845595	-0.059609	-0.813347	-0.487918	0.316864
42541	9.369564	-0.569532	3.121924	0.002325	-0.000263	0.002520	0.238854	0.216559	0.946600	-0.530506	0.845584	-0.059587	-0.813334	-0.487944	0.316856
42542	9.329033	-0.581645	3.124318	-0.001791	-0.001106	0.004348	0.238836	0.216554	0.946605	-0.530500	0.845588	-0.059596	-0.813344	-0.487940	0.316839
42543	9.312971	-0.628061	3.123569	-0.000236	0.001769	0.001467	0.238857	0.216539	0.946603	-0.530496	0.845591	-0.059572	-0.813339	-0.487940	0.316849
42544	9.354510	-0.565551	3.140530	-0.000375	-0.001321	0.004881	0.238837	0.216539	0.946609	-0.530500	0.845589	-0.059581	-0.813343	-0.487946	0.316831
42545	9.335951	-0.610676	3.105306	-0.001520	0.000497	0.004361	0.238832	0.216542	0.946609	-0.530493	0.845592	-0.059589	-0.813349	-0.487938	0.316828
42546	9.361480	-0.594285	3.121418	0.000638	-0.001652	0.001973	0.238825	0.216515	0.946617	-0.530499	0.845590	-0.059566	-0.813347	-0.487954	0.316809
42547	9.343944	-0.588235	3.105656	-0.001249	0.002100	0.004374	0.238834	0.216526	0.946612	-0.530495	0.845592	-0.059574	-0.813347	-0.487945	0.316822
42548	9.338388	-0.613196	3.139711	-0.001791	-0.001106	0.004348	0.238816	0.216522	0.946618	-0.530487	0.845597	-0.059582	-0.813358	-0.487939	0.316804
42549	9.354446	-0.567470	3.140373	-0.002700	-0.001057	0.002361	0.238810	0.216501	0.946624	-0.530465	0.845611	-0.059575	-0.813373	-0.487924	0.316786
42550	9.328912	-0.584473	3.124154	0.000403	0.000117	0.003440	0.238806	0.216493	0.946627	-0.530471	0.845607	-0.059568	-0.813371	-0.487933	0.316780
42551	9.361346	-0.596036	3.121485	-0.001887	0.003753	0.002401	0.238839	0.216496	0.946618	-0.530457	0.845617	-0.059558	-0.813370	-0.487915	0.316808
42552	9.346274	-0.591351	3.140275	0.002325	-0.000264	0.002520	0.238837	0.216479	0.946622	-0.530482	0.845603	-0.059534	-0.813354	-0.487947	0.316800
42553	9.320718	-0.608356	3.124113	-0.000104	0.000283	0.004894	0.238828	0.216486	0.946623	-0.530488	0.845598	-0.059543	-0.813353	-0.487952	0.316796
42554	9.363696	-0.598479	3.156170	-0.001249	0.002101	0.004374	0.238835	0.216497	0.946619	-0.530483	0.845601	-0.059551	-0.813354	-0.487942	0.316807
42555	9.343629	-0.590964	3.106085	-0.000507	0.000166	0.001454	0.238843	0.216474	0.946622	-0.530478	0.845606	-0.059528	-0.813356	-0.487944	0.316802
42556	9.363611	-0.599165	3.156291	0.000805	0.000234	0.006881	0.238823	0.216497	0.946622	-0.530496	0.845593	-0.059553	-0.813350	-0.487956	0.316798
42557	9.311024	-0.580528	3.109055	-0.002158	0.002150	0.002387	0.238842	0.216492	0.946618	-0.530479	0.845604	-0.059544	-0.813355	-0.487940	0.316810
42558	9.337960	-0.616614	3.140317	0.003234	-0.000313	0.004506	0.238830	0.216490	0.946621	-0.530513	0.845583	-0.059536	-0.813337	-0.487976	0.316802
42559	9.336489	-0.564453	3.125327	-0.002429	0.000547	0.002374	0.238836	0.216477	0.946623	-0.530494	0.845596	-0.059528	-0.813347	-0.487960	0.316799
42560	9.352869	-0.622286	3.121819	-0.000340	0.002052	0.006361	0.238833	0.216505	0.946618	-0.530502	0.845589	-0.059552	-0.813343	-0.487960	0.316810
42561	9.336355	-0.565436	3.125548	-0.000104	0.000283	0.004894	0.238823	0.216511	0.946618	-0.530508	0.845585	-0.059560	-0.813342	-0.487964	0.316806
42562	9.328288	-0.588867	3.125190	-0.002429	0.000547	0.002374	0.238828	0.216498	0.946620	-0.530491	0.845596	-0.059553	-0.813352	-0.487950	0.316802
42563	9.352727	-0.623578	3.121989	-0.000104	0.000283	0.004894	0.238819	0.216504	0.946621	-0.530497	0.845592	-0.059561	-0.813350	-0.487955	0.316798
42564	9.351241	-0.571411	3.107083	-0.000235	0.001769	0.001467	0.238839	0.216489	0.946620	-0.530493	0.845596	-0.059538	-0.813347	-0.487956	0.316807
42565	9.328150	-0.589846	3.125416	-0.001520	0.000498	0.004361	0.238834	0.216492	0.946620	-0.530487	0.845599	-0.059546	-0.813352	-0.487948	0.316804
42566	9.378128	-0.607884	3.138383	0.000402	0.000117	0.003440	0.238833	0.216487	0.946622	-0.530493	0.845596	-0.059539	-0.813349	-0.487957	0.316800
42567	9.336111	-0.567404	3.125921	-0.000235	0.001769	0.001467	0.238854	0.216471	0.946620	-0.530490	0.845599	-0.059516	-0.813344	-0.487957	0.316810
42568	9.345525	-0.597125	3.141413	-0.001520	0.000498	0.004361	0.238848	0.216474	0.946621	-0.530485	0.845602	-0.059523	-0.813350	-0.487951	0.316806
42569	9.342984	-0.596126	3.107040	-0.000104	0.000283	0.004894	0.238839	0.216481	0.946621	-0.530491	0.845598	-0.059532	-0.813349	-0.487955	0.316803
42570	9.353485	-0.574992	3.141868	-0.001520	0.000498	0.004361	0.238836	0.216484	0.946621	-0.530484	0.845602	-0.059538	-0.813354	-0.487947	0.316802
42571	9.342904	-0.597041	3.107103	-0.000104	0.000283	0.004894	0.238827	0.216491	0.946622	-0.530490	0.845597	-0.059547	-0.813352	-0.487952	0.316798
42572	9.334812	-0.620704	3.106743	0.000298	0.000400	0.008335	0.238802	0.216527	0.946620	-0.530508	0.845583	-0.059586	-0.813348	-0.487960	0.316796
42573	9.338321	-0.571449	3.160720	0.001050	0.003040	-0.001427	0.238848	0.216494	0.946616	-0.530508	0.845587	-0.059531	-0.813334	-0.487968	0.316819
42574	9.375234	-0.609560	3.104550	0.000026	-0.001203	0.008321	0.238811	0.216523	0.946619	-0.530525	0.845574	-0.059571	-0.813334	-0.487978	0.316803
42575	9.320722	-0.565988	3.145064	-0.001248	0.002102	0.004374	0.238819	0.216534	0.946614	-0.530520	0.845576	-0.059578	-0.813335	-0.487969	0.316816
42576	9.342621	-0.599254	3.107528	0.000402	0.000117	0.003441	0.238817	0.216528	0.946616	-0.530525	0.845573	-0.059572	-0.813332	-0.487977	0.316811
42577	9.342588	-0.599635	3.107554	-0.001520	0.000499	0.004361	0.238812	0.216531	0.946616	-0.530518	0.845577	-0.059580	-0.813338	-0.487969	0.316808
42578	9.368096	-0.583428	3.123762	-0.000104	0.000283	0.004894	0.238804	0.216538	0.946617	-0.530522	0.845574	-0.059589	-0.813338	-0.487971	0.316805
42579	9.327500	-0.595704	3.126246	-0.002027	0.000665	0.005815	0.238794	0.216555	0.946616	-0.530515	0.845577	-0.059613	-0.813346	-0.487958	0.316804
42580	9.327402	-0.596227	3.126440	-0.000976	0.003705	0.004388	0.238814	0.216574	0.946606	-0.530514	0.845577	-0.059619	-0.813340	-0.487950	0.316831
42581	9.357343	-0.606445	3.089310	-0.002701	-0.001055	0.002361	0.238807	0.216553	0.946613	-0.530493	0.845591	-0.059612	-0.813356	-0.487936	0.316813
42582	9.324821	-0.595362	3.092172	-0.000235	0.001769	0.001467	0.238827	0.216538	0.946611	-0.530491	0.845594	-0.059589	-0.813352	-0.487937	0.316822
42583	9.342314	-0.602138	3.107894	0.001676	-0.003188	0.007388	0.238776	0.216549	0.946622	-0.530517	0.845575	-0.059615	-0.813349	-0.487965	0.316786
42584	9.350364	-0.579485	3.108226	-0.000235	0.001769	0.001467	0.238800	0.216534	0.946619	-0.530517	0.845577	-0.059590	-0.813343	-0.487967	0.316799
42585	9.342257	-0.602828	3.107933	-0.001520	0.000499	0.004361	0.238795	0.216538	0.946619	-0.530510	0.845581	-0.059598	-0.813349	-0.487959	0.316796
42586	9.335279	-0.575242	3.126974	0.000402	0.000117	0.003441	0.238789	0.216531	0.946622	-0.530517	0.845577	-0.059593	-0.813346	-0.487969	0.316788
42587	9.367799	-0.586865	3.124010	-0.002973	-0.002658	0.002348	0.238770	0.216502	0.946634	-0.530494	0.845592	-0.059586	-0.813367	-0.487956	0.316754
42588	9.342238	-0.603906	3.107781	0.001584	0.001671	0.005441	0.238769	0.216519	0.946630	-0.530516	0.845578	-0.059594	-0.813353	-0.487973	0.316765
42589	9.365197	-0.586088	3.089795	0.000038	0.003373	0.001480	0.238803	0.216512	0.946623	-0.530515	0.845580	-0.059569	-0.813343	-0.487972	0.316790
42590	9.342069	-0.604427	3.108186	0.000402	0.000117	0.003441	0.238799	0.216506	0.946626	-0.530523	0.845576	-0.059563	-0.813339	-0.487983	0.316784
42591	9.344526	-0.606350	3.142617	-0.000611	0.000450	0.006348	0.238784	0.216526	0.946625	-0.530528	0.845571	-0.059587	-0.813340	-0.487983	0.316782
42592	9.350101	-0.582311	3.108487	-0.001558	-0.002873	0.002881	0.238759	0.216499	0.946637	-0.530517	0.845578	-0.059581	-0.813355	-0.487982	0.316746
42593	9.352615	-0.584164	3.142767	-0.000104	0.000284	0.004895	0.238750	0.216506	0.946638	-0.530523	0.845573	-0.059589	-0.813353	-0.487986	0.316742
42594	9.337590	-0.579541	3.161408	-0.000507	0.000167	0.001454	0.238756	0.216482	0.946642	-0.530517	0.845579	-0.059567	-0.813356	-0.487988	0.316734
42595	9.352561	-0.584774	3.142811	-0.001520	0.000500	0.004361	0.238751	0.216485	0.946642	-0.530510	0.845582	-0.059575	-0.813361	-0.487980	0.316732
42596	9.341950	-0.606650	3.108111	-0.000234	0.001770	0.001467	0.238747	0.216513	0.946637	-0.530481	0.845598	-0.059613	-0.813381	-0.487941	0.316740
42597	9.349965	-0.583915	3.108596	0.001311	0.000068	0.005428	0.238733	0.216523	0.946638	-0.530500	0.845585	-0.059622	-0.813373	-0.487958	0.316735
42598	9.352481	-0.585775	3.142863	-0.000143	-0.003089	0.003414	0.238705	0.216500	0.946651	-0.530503	0.845584	-0.059616	-0.813380	-0.487970	0.316699
42599	9.309451	-0.596334	3.110775	-0.002429	0.000549	0.002374	0.238711	0.216487	0.946652	-0.530484	0.845597	-0.059608	-0.813390	-0.487954	0.316696
42600	9.326859	-0.603101	3.126740	0.000441	0.003490	0.004921	0.238729	0.216510	0.946643	-0.530493	0.845590	-0.059615	-0.813379	-0.487956	0.316724
42601	9.359301	-0.614735	3.123992	0.000636	-0.001653	0.001974	0.238719	0.216482	0.946651	-0.530498	0.845589	-0.059594	-0.813378	-0.487971	0.316702
42602	9.357944	-0.562570	3.108944	-0.001520	0.000500	0.004361	0.238718	0.216487	0.946650	-0.530490	0.845593	-0.059603	-0.813385	-0.487960	0.316702
42603	9.318706	-0.627135	3.126402	0.000402	0.000117	0.003441	0.238715	0.216481	0.946653	-0.530496	0.845590	-0.059596	-0.813381	-0.487969	0.316697
42604	9.334813	-0.581439	3.127220	-0.001520	0.000500	0.004361	0.238711	0.216484	0.946653	-0.530492	0.845592	-0.059603	-0.813385	-0.487964	0.316696
42605	9.319774	-0.576960	3.145880	-0.001520	0.000500	0.004362	0.238707	0.216488	0.946653	-0.530485	0.845596	-0.059611	-0.813391	-0.487956	0.316693
42606	9.341661	-0.610242	3.108277	-0.002429	0.000550	0.002374	0.238715	0.216474	0.946654	-0.530465	0.845609	-0.059602	-0.813401	-0.487939	0.316692
42607	9.354696	-0.590447	3.177498	0.003234	-0.000315	0.004507	0.238703	0.216475	0.946657	-0.530497	0.845589	-0.059596	-0.813384	-0.487973	0.316684
42608	9.341658	-0.610948	3.108147	-0.000650	-0.002922	0.004868	0.238669	0.216466	0.946668	-0.530497	0.845589	-0.059607	-0.813394	-0.487978	0.316650
42609	9.342828	-0.560328	3.127436	-0.001013	0.000334	0.002908	0.238670	0.216456	0.946670	-0.530491	0.845593	-0.059600	-0.813398	-0.487975	0.316646
42610	9.344126	-0.613260	3.142463	-0.002026	0.000667	0.005815	0.238658	0.216473	0.946669	-0.530485	0.845595	-0.059623	-0.813405	-0.487964	0.316644
42611	9.334647	-0.584273	3.127185	0.000675	0.001720	0.003454	0.238669	0.216474	0.946666	-0.530494	0.845590	-0.059616	-0.813396	-0.487972	0.316654
42612	9.349588	-0.589592	3.108658	-0.000104	0.000284	0.004895	0.238661	0.216481	0.946666	-0.530498	0.845587	-0.059624	-0.813396	-0.487974	0.316651
42613	9.376432	-0.625821	3.139924	0.000675	0.001720	0.003454	0.238671	0.216482	0.946663	-0.530507	0.845582	-0.059617	-0.813387	-0.487983	0.316661
42614	9.360072	-0.568789	3.143582	-0.001793	-0.001102	0.004348	0.238652	0.216477	0.946669	-0.530496	0.845588	-0.059626	-0.813400	-0.487975	0.316642
42615	9.326395	-0.608754	3.127028	-0.000234	0.001770	0.001467	0.238674	0.216462	0.946667	-0.530493	0.845591	-0.059603	-0.813395	-0.487975	0.316652
42616	9.336919	-0.587493	3.161920	0.001311	0.000068	0.005428	0.238660	0.216473	0.946668	-0.530510	0.845580	-0.059613	-0.813388	-0.487990	0.316647
42617	9.341301	-0.614456	3.108527	-0.002935	0.000717	0.003828	0.238660	0.216473	0.946668	-0.530491	0.845592	-0.059620	-0.813401	-0.487970	0.316646
42618	9.366837	-0.598211	3.124741	0.000402	0.000117	0.003441	0.238658	0.216466	0.946670	-0.530498	0.845588	-0.059613	-0.813397	-0.487979	0.316642
42619	9.316815	-0.580752	3.111889	-0.000740	0.001937	0.002921	0.238673	0.216464	0.946667	-0.530494	0.845591	-0.059604	-0.813395	-0.487975	0.316653
42620	9.374820	-0.575785	3.125330	0.000402	0.000117	0.003441	0.238670	0.216457	0.946670	-0.530498	0.845588	-0.059598	-0.813393	-0.487982	0.316646
42621	9.301723	-0.576422	3.130681	0.003507	0.001287	0.004521	0.238671	0.216465	0.946667	-0.530533	0.845567	-0.059591	-0.813370	-0.488015	0.316654
42622	9.351664	-0.594575	3.143643	-0.001793	-0.001102	0.004348	0.238650	0.216459	0.946674	-0.530524	0.845572	-0.059600	-0.813382	-0.488010	0.316632
42623	9.351602	-0.594949	3.143757	-0.001882	0.003757	0.002401	0.238682	0.216461	0.946665	-0.530509	0.845582	-0.059591	-0.813382	-0.487992	0.316660
42624	9.334038	-0.588831	3.128148	0.000402	0.000117	0.003441	0.238679	0.216455	0.946667	-0.530510	0.845582	-0.059587	-0.813382	-0.487995	0.316655
42625	9.351518	-0.595634	3.143877	-0.000378	-0.001319	0.004882	0.238657	0.216454	0.946673	-0.530514	0.845579	-0.059596	-0.813386	-0.488000	0.316636
42626	9.346529	-0.593075	3.075022	-0.002429	0.000551	0.002375	0.238665	0.216441	0.946674	-0.530495	0.845591	-0.059588	-0.813397	-0.487984	0.316634
42627	9.333985	-0.589975	3.128092	-0.002935	0.000718	0.003829	0.238665	0.216441	0.946674	-0.530475	0.845603	-0.059595	-0.813410	-0.487964	0.316633
42628	9.357037	-0.572268	3.109903	0.000402	0.000117	0.003441	0.238662	0.216434	0.946677	-0.530481	0.845600	-0.059588	-0.813406	-0.487973	0.316627
42629	9.333921	-0.590741	3.128137	0.001311	0.000068	0.005428	0.238648	0.216444	0.946678	-0.530500	0.845587	-0.059597	-0.813398	-0.487990	0.316621
42630	9.342002	-0.568175	3.128487	-0.001793	-0.001102	0.004348	0.238633	0.216440	0.946683	-0.530490	0.845593	-0.059606	-0.813410	-0.487981	0.316605
42631	9.338293	-0.618012	3.074686	-0.000233	0.001770	0.001467	0.238654	0.216425	0.946681	-0.530486	0.845597	-0.059583	-0.813405	-0.487982	0.316615
42632	9.341898	-0.568774	3.128689	-0.001246	0.002104	0.004375	0.238661	0.216436	0.946677	-0.530483	0.845598	-0.059590	-0.813405	-0.487974	0.316627
42633	9.308149	-0.608936	3.112228	-0.003442	0.000886	0.005283	0.238655	0.216449	0.946675	-0.530463	0.845609	-0.059612	-0.813420	-0.487949	0.316627
42634	9.374210	-0.581116	3.126170	0.000949	0.003323	0.003468	0.238679	0.216458	0.946667	-0.530477	0.845601	-0.059602	-0.813404	-0.487959	0.316653
42635	9.333562	-0.593077	3.128768	0.000402	0.000117	0.003441	0.238676	0.216452	0.946669	-0.530484	0.845598	-0.059596	-0.813401	-0.487969	0.316648
42636	9.325414	-0.616410	3.128455	0.000676	0.001720	0.003455	0.238685	0.216453	0.946667	-0.530494	0.845592	-0.059588	-0.813391	-0.487978	0.316657
42637	9.359085	-0.577163	3.144995	-0.002067	-0.002704	0.004335	0.238654	0.216440	0.946677	-0.530483	0.845598	-0.059597	-0.813408	-0.487973	0.316624
42638	9.333538	-0.594233	3.128618	-0.001794	-0.001101	0.004348	0.238639	0.216436	0.946682	-0.530471	0.845605	-0.059607	-0.813420	-0.487963	0.316607
42639	9.359099	-0.578169	3.144768	-0.000611	0.000452	0.006349	0.238623	0.216456	0.946681	-0.530476	0.845600	-0.059631	-0.813421	-0.487963	0.316605
42640	9.340318	-0.623197	3.109741	-0.000466	0.003540	0.002935	0.238652	0.216463	0.946673	-0.530476	0.845601	-0.059621	-0.813413	-0.487958	0.316633
42641	9.356419	-0.577518	3.110793	0.001585	0.001670	0.005442	0.238652	0.216481	0.946669	-0.530497	0.845587	-0.059630	-0.813399	-0.487974	0.316643
42642	9.333279	-0.596048	3.129048	-0.004625	-0.000667	0.003282	0.238642	0.216469	0.946674	-0.530458	0.845611	-0.059639	-0.813427	-0.487939	0.316626
42643	9.350746	-0.602857	3.144795	0.000402	0.000117	0.003441	0.238639	0.216463	0.946676	-0.530465	0.845607	-0.059632	-0.813424	-0.487948	0.316621
42644	9.341352	-0.573629	3.129432	-0.001922	0.000385	0.000921	0.238652	0.216436	0.946679	-0.530445	0.845621	-0.059610	-0.813433	-0.487935	0.316617
42645	9.340124	-0.625015	3.109961	-0.000885	-0.001151	0.006336	0.238624	0.216448	0.946683	-0.530448	0.845618	-0.059634	-0.813440	-0.487936	0.316599
42646	9.373800	-0.585856	3.126516	-0.002429	0.000552	0.002375	0.238630	0.216435	0.946684	-0.530427	0.845631	-0.059627	-0.813451	-0.487918	0.316596
42647	9.323773	-0.568334	3.113742	0.000950	0.003323	0.003469	0.238653	0.216445	0.946676	-0.530438	0.845625	-0.059619	-0.813437	-0.487925	0.316622
42648	9.348097	-0.603205	3.110529	-0.001159	-0.002754	0.006322	0.238614	0.216449	0.946685	-0.530441	0.845621	-0.059643	-0.813447	-0.487929	0.316591
42649	9.371180	-0.585673	3.092277	-0.001246	0.002105	0.004376	0.238623	0.216460	0.946681	-0.530437	0.845623	-0.059650	-0.813447	-0.487920	0.316603
42650	9.315586	-0.592808	3.113294	-0.003483	-0.002486	0.003801	0.238597	0.216445	0.946691	-0.530411	0.845639	-0.059660	-0.813472	-0.487900	0.316571
42651	9.368002	-0.612579	3.160606	0.001585	0.001670	0.005443	0.238596	0.216463	0.946687	-0.530432	0.845625	-0.059669	-0.813458	-0.487916	0.316581
42652	9.356099	-0.582019	3.110917	-0.001013	0.000335	0.002908	0.238598	0.216452	0.946689	-0.530431	0.845626	-0.059658	-0.813458	-0.487919	0.316577
42653	9.341102	-0.577367	3.129493	-0.002703	-0.001050	0.002361	0.238591	0.216431	0.946695	-0.530410	0.845640	-0.059651	-0.813474	-0.487904	0.316559
42654	9.356128	-0.582789	3.110684	-0.001159	-0.002753	0.006322	0.238550	0.216436	0.946705	-0.530407	0.845640	-0.059679	-0.813488	-0.487902	0.316526
42655	9.315490	-0.594799	3.113202	0.003147	0.004541	0.002562	0.238588	0.216443	0.946693	-0.530434	0.845625	-0.059655	-0.813459	-0.487925	0.316564
42656	9.375965	-0.591321	3.161128	-0.002703	-0.001050	0.002361	0.238583	0.216422	0.946699	-0.530416	0.845637	-0.059646	-0.813472	-0.487914	0.316548
42657	9.355997	-0.583781	3.110894	-0.000104	0.000285	0.004896	0.238574	0.216429	0.946700	-0.530422	0.845632	-0.059654	-0.813471	-0.487918	0.316544
42658	9.332829	-0.602222	3.129208	-0.000739	0.001938	0.002922	0.238589	0.216427	0.946697	-0.530417	0.845636	-0.059646	-0.813470	-0.487913	0.316556
42659	9.381469	-0.568036	3.127296	-0.000611	0.000453	0.006350	0.238573	0.216447	0.946696	-0.530423	0.845631	-0.059670	-0.813471	-0.487913	0.316553
42660	9.289588	-0.613407	3.097538	-0.002893	0.004094	0.005311	0.238595	0.216476	0.946684	-0.530409	0.845638	-0.059690	-0.813473	-0.487888	0.316586
42661	9.355704	-0.585666	3.111419	0.000128	-0.001485	0.003428	0.238580	0.216462	0.946691	-0.530413	0.845636	-0.059684	-0.813475	-0.487898	0.316566
42662	9.325651	-0.575969	3.148822	0.000317	0.004976	0.001495	0.238625	0.216462	0.946680	-0.530412	0.845638	-0.059660	-0.813463	-0.487894	0.316604
42663	9.382348	-0.622172	3.143002	-0.000611	0.000453	0.006350	0.238610	0.216481	0.946679	-0.530417	0.845633	-0.059684	-0.813464	-0.487894	0.316602
42664	9.322968	-0.575379	3.114858	-0.000971	0.003709	0.004390	0.238631	0.216500	0.946669	-0.530417	0.845633	-0.059689	-0.813458	-0.487885	0.316629
42665	9.371577	-0.644686	3.108491	-0.001794	-0.001100	0.004348	0.238613	0.216496	0.946675	-0.530408	0.845638	-0.059698	-0.813469	-0.487879	0.316611
42666	9.348474	-0.559566	3.131188	0.001183	0.001553	0.002001	0.238629	0.216484	0.946674	-0.530417	0.845634	-0.059676	-0.813458	-0.487891	0.316620
42667	9.344683	-0.609377	3.077446	-0.002935	0.000721	0.003829	0.238629	0.216484	0.946674	-0.530397	0.845646	-0.059684	-0.813471	-0.487871	0.316618
42668	9.342746	-0.584677	3.165305	0.002324	-0.000268	0.002521	0.238627	0.216468	0.946678	-0.530418	0.845634	-0.059662	-0.813458	-0.487898	0.316609
42669	9.340261	-0.583576	3.130849	-0.003716	-0.000714	0.005269	0.238608	0.216473	0.946682	-0.530395	0.845647	-0.059686	-0.813479	-0.487874	0.316594
42670	9.332115	-0.607051	3.130401	0.000402	0.000117	0.003442	0.238605	0.216466	0.946684	-0.530398	0.845645	-0.059680	-0.813478	-0.487879	0.316588
42671	9.345859	-0.559762	3.096892	0.002599	0.001334	0.002535	0.238617	0.216458	0.946683	-0.530420	0.845633	-0.059658	-0.813459	-0.487904	0.316596
42672	9.337685	-0.583005	3.096571	-0.002429	0.000554	0.002375	0.238623	0.216445	0.946684	-0.530399	0.845647	-0.059651	-0.813471	-0.487887	0.316593
42673	9.355101	-0.589758	3.112460	0.000677	0.001720	0.003456	0.238633	0.216446	0.946681	-0.530408	0.845642	-0.059643	-0.813463	-0.487895	0.316603
42674	9.340051	-0.585171	3.131179	-0.001520	0.000503	0.004362	0.238629	0.216451	0.946681	-0.530404	0.845644	-0.059651	-0.813466	-0.487889	0.316602
42675	9.364345	-0.619989	3.127964	0.000402	0.000118	0.003442	0.238627	0.216444	0.946683	-0.530411	0.845640	-0.059644	-0.813463	-0.487898	0.316596
42676	9.340006	-0.586017	3.131155	-0.000886	-0.001150	0.006336	0.238599	0.216457	0.946687	-0.530418	0.845634	-0.059667	-0.813466	-0.487903	0.316580
42677	9.355010	-0.591452	3.112412	0.000127	-0.001485	0.003428	0.238583	0.216443	0.946694	-0.530422	0.845631	-0.059661	-0.813468	-0.487914	0.316560
42678	9.365624	-0.570240	3.147166	0.000402	0.000118	0.003442	0.238581	0.216437	0.946696	-0.530433	0.845626	-0.059653	-0.813462	-0.487926	0.316556
42679	9.314325	-0.603579	3.114997	0.003149	0.004540	0.002563	0.238619	0.216445	0.946685	-0.530460	0.845610	-0.059630	-0.813433	-0.487949	0.316594
42680	9.339853	-0.587321	3.131366	-0.003210	-0.000881	0.003815	0.238607	0.216438	0.946690	-0.530438	0.845623	-0.059638	-0.813451	-0.487930	0.316579
42681	9.339812	-0.587776	3.131404	0.000170	0.001888	0.004910	0.238611	0.216453	0.946685	-0.530446	0.845618	-0.059646	-0.813444	-0.487933	0.316590
42682	9.307315	-0.576804	3.134266	-0.001795	-0.001099	0.004349	0.238593	0.216448	0.946691	-0.530434	0.845624	-0.059655	-0.813457	-0.487924	0.316572
42683	9.389661	-0.606508	3.144421	0.000677	0.001720	0.003456	0.238604	0.216449	0.946688	-0.530443	0.845619	-0.059648	-0.813448	-0.487932	0.316582
42684	9.347812	-0.565826	3.132038	-0.000231	0.001771	0.001468	0.238626	0.216435	0.946686	-0.530440	0.845623	-0.059624	-0.813444	-0.487932	0.316594
42685	9.363920	-0.623742	3.128489	0.000297	0.000403	0.008338	0.238600	0.216471	0.946684	-0.530458	0.845609	-0.059664	-0.813440	-0.487940	0.316591
42686	9.347739	-0.566748	3.132090	-0.000782	-0.001435	0.001440	0.238594	0.216441	0.946692	-0.530447	0.845617	-0.059644	-0.813449	-0.487939	0.316570
42687	9.313925	-0.606681	3.115591	-0.002891	0.004096	0.005311	0.238614	0.216470	0.946681	-0.530431	0.845626	-0.059665	-0.813453	-0.487912	0.316600
42688	9.347605	-0.567649	3.132325	-0.000380	-0.001317	0.004882	0.238591	0.216469	0.946687	-0.530438	0.845621	-0.059674	-0.813455	-0.487921	0.316581
42689	9.354454	-0.596175	3.113182	-0.002302	-0.000930	0.005803	0.238568	0.216477	0.946691	-0.530428	0.845625	-0.059698	-0.813469	-0.487910	0.316564
42690	9.333768	-0.616244	3.165749	0.001311	0.000067	0.005430	0.238554	0.216487	0.946692	-0.530446	0.845613	-0.059707	-0.813461	-0.487926	0.316559
42691	9.338242	-0.539714	3.116819	-0.001520	0.000504	0.004363	0.238550	0.216490	0.946692	-0.530439	0.845617	-0.059715	-0.813467	-0.487918	0.316557
42692	9.346148	-0.620713	3.112942	-0.000060	0.003659	0.006378	0.238561	0.216526	0.946681	-0.530451	0.845608	-0.059736	-0.813456	-0.487917	0.316586
42693	9.347397	-0.570176	3.132487	0.000127	-0.001485	0.003428	0.238545	0.216512	0.946688	-0.530456	0.845606	-0.059730	-0.813457	-0.487928	0.316565
42694	9.336825	-0.592011	3.097454	-0.000149	-0.003088	0.003414	0.238515	0.216489	0.946701	-0.530458	0.845605	-0.059725	-0.813465	-0.487940	0.316528
42695	9.339273	-0.593814	3.131874	0.000953	0.003323	0.003470	0.238539	0.216499	0.946693	-0.530469	0.845598	-0.059717	-0.813451	-0.487947	0.316554
42696	9.339215	-0.594192	3.131975	-0.001795	-0.001098	0.004349	0.238520	0.216493	0.946699	-0.530460	0.845603	-0.059726	-0.813462	-0.487940	0.316534
42697	9.354162	-0.599625	3.113396	-0.001244	0.002107	0.004377	0.238528	0.216504	0.946694	-0.530455	0.845606	-0.059733	-0.813463	-0.487931	0.316547
42698	9.347294	-0.572018	3.132459	-0.001289	-0.001266	0.002895	0.238518	0.216487	0.946701	-0.530448	0.845611	-0.059726	-0.813470	-0.487930	0.316529
42699	9.313520	-0.611869	3.115786	0.000402	0.000118	0.003442	0.238515	0.216481	0.946703	-0.530455	0.845607	-0.059719	-0.813467	-0.487939	0.316524
42700	9.362244	-0.577766	3.113818	-0.002026	0.000673	0.005817	0.238503	0.216497	0.946702	-0.530448	0.845610	-0.059743	-0.813475	-0.487927	0.316521
42701	9.328387	-0.617682	3.097372	0.002875	0.002936	0.002549	0.238528	0.216497	0.946696	-0.530472	0.845596	-0.059720	-0.813452	-0.487951	0.316544
42702	9.347106	-0.573388	3.132770	-0.002428	0.000556	0.002375	0.238537	0.216484	0.946697	-0.530455	0.845607	-0.059710	-0.813460	-0.487937	0.316544
42703	9.338935	-0.596774	3.132318	-0.001795	-0.001098	0.004349	0.238519	0.216479	0.946702	-0.530446	0.845612	-0.059719	-0.813471	-0.487931	0.316526
42704	9.353908	-0.602217	3.113658	-0.000105	0.000286	0.004896	0.238510	0.216485	0.946703	-0.530451	0.845609	-0.059728	-0.813471	-0.487934	0.316521
42705	9.338862	-0.597614	3.132376	-0.000737	0.001939	0.002923	0.238524	0.216484	0.946700	-0.530447	0.845612	-0.059720	-0.813469	-0.487930	0.316532
42706	9.336319	-0.596419	3.098135	0.002093	0.001501	0.003990	0.238528	0.216488	0.946698	-0.530467	0.845600	-0.059714	-0.813455	-0.487948	0.316539
42707	9.361885	-0.580278	3.114429	-0.000105	0.000286	0.004897	0.238519	0.216495	0.946699	-0.530473	0.845596	-0.059723	-0.813454	-0.487953	0.316535
42708	9.338676	-0.598680	3.132726	0.000678	0.001720	0.003456	0.238529	0.216497	0.946696	-0.530480	0.845591	-0.059717	-0.813446	-0.487959	0.316545
42709	9.361802	-0.580964	3.114550	-0.002704	-0.001047	0.002361	0.238522	0.216476	0.946702	-0.530459	0.845605	-0.059709	-0.813462	-0.487945	0.316527
42710	9.338645	-0.599291	3.132701	0.000402	0.000118	0.003442	0.238520	0.216470	0.946704	-0.530467	0.845600	-0.059702	-0.813457	-0.487956	0.316522
42711	9.364227	-0.583001	3.148983	0.002600	0.001333	0.002536	0.238532	0.216461	0.946703	-0.530490	0.845588	-0.059679	-0.813439	-0.487981	0.316530
42712	9.338516	-0.599976	3.132955	-0.002257	0.002445	0.007286	0.238528	0.216499	0.946696	-0.530486	0.845588	-0.059716	-0.813443	-0.487965	0.316546
42713	9.368417	-0.610473	3.095850	-0.002428	0.000556	0.002375	0.238534	0.216486	0.946697	-0.530467	0.845600	-0.059708	-0.813453	-0.487949	0.316543
42714	9.354731	-0.554716	3.134014	-0.000230	0.001771	0.001468	0.238557	0.216471	0.946695	-0.530467	0.845602	-0.059683	-0.813447	-0.487952	0.316554
42715	9.345159	-0.629013	3.114245	-0.000105	0.000286	0.004897	0.238547	0.216477	0.946696	-0.530473	0.845598	-0.059692	-0.813446	-0.487957	0.316550
42716	9.354680	-0.555326	3.134060	-0.002198	-0.001215	0.000907	0.238549	0.216444	0.946703	-0.530455	0.845611	-0.059668	-0.813457	-0.487949	0.316533
42717	9.320829	-0.595141	3.117543	-0.000967	0.003711	0.004391	0.238570	0.216463	0.946693	-0.530452	0.845612	-0.059675	-0.813452	-0.487939	0.316561
42718	9.331387	-0.574018	3.152530	0.003232	-0.000321	0.004510	0.238559	0.216463	0.946696	-0.530487	0.845590	-0.059667	-0.813433	-0.487976	0.316554
42719	9.346386	-0.579246	3.133841	-0.000783	-0.001434	0.001440	0.238554	0.216432	0.946704	-0.530480	0.845597	-0.059645	-0.813439	-0.487979	0.316534
42720	9.320759	-0.596069	3.117577	-0.000105	0.000287	0.004897	0.238544	0.216438	0.946705	-0.530487	0.845592	-0.059653	-0.813437	-0.487985	0.316529
42721	9.361334	-0.585004	3.115202	-0.001520	0.000506	0.004363	0.238540	0.216441	0.946706	-0.530480	0.845595	-0.059661	-0.813443	-0.487977	0.316526
42722	9.303200	-0.590486	3.101931	-0.001243	0.002109	0.004377	0.238550	0.216453	0.946701	-0.530477	0.845597	-0.059667	-0.813442	-0.487969	0.316540
42723	9.346217	-0.580923	3.134033	0.001310	0.000067	0.005431	0.238536	0.216464	0.946702	-0.530495	0.845585	-0.059677	-0.813434	-0.487986	0.316535
42724	9.313744	-0.569820	3.136888	-0.003843	0.000776	0.001841	0.238544	0.216446	0.946704	-0.530462	0.845606	-0.059669	-0.813454	-0.487957	0.316531
42725	9.352941	-0.609597	3.115128	0.003508	0.001282	0.004524	0.238545	0.216454	0.946701	-0.530497	0.845585	-0.059663	-0.813431	-0.487989	0.316539
42726	9.346070	-0.582063	3.134262	-0.003441	0.000894	0.005284	0.238541	0.216467	0.946700	-0.530478	0.845595	-0.059684	-0.813444	-0.487966	0.316540
42727	9.337813	-0.605586	3.133970	-0.001243	0.002109	0.004377	0.238549	0.216478	0.946695	-0.530473	0.845597	-0.059691	-0.813445	-0.487957	0.316552
42728	9.351720	-0.558321	3.100339	0.000862	-0.003425	0.000505	0.238533	0.216429	0.946710	-0.530477	0.845598	-0.059655	-0.813447	-0.487978	0.316513
42729	9.337841	-0.606131	3.133781	-0.003441	0.000895	0.005284	0.238526	0.216442	0.946709	-0.530457	0.845609	-0.059678	-0.813462	-0.487953	0.316513
42730	9.328531	-0.577089	3.118454	-0.001013	0.000338	0.002909	0.238529	0.216433	0.946710	-0.530449	0.845614	-0.059671	-0.813467	-0.487948	0.316510
42731	9.360938	-0.588880	3.115662	-0.002428	0.000557	0.002375	0.238535	0.216420	0.946712	-0.530430	0.845627	-0.059664	-0.813477	-0.487933	0.316507
42732	9.320283	-0.600765	3.118097	-0.000105	0.000287	0.004897	0.238526	0.216427	0.946713	-0.530436	0.845622	-0.059673	-0.813476	-0.487937	0.316504
42733	9.352678	-0.612715	3.115306	-0.001520	0.000506	0.004363	0.238521	0.216431	0.946713	-0.530429	0.845626	-0.059681	-0.813482	-0.487929	0.316501
42734	9.328363	-0.578675	3.118664	-0.001243	0.002109	0.004377	0.238530	0.216442	0.946708	-0.530429	0.845625	-0.059687	-0.813479	-0.487925	0.316514
42735	9.346772	-0.638264	3.149618	-0.005086	0.002886	0.006219	0.238535	0.216473	0.946700	-0.530398	0.845642	-0.059723	-0.813498	-0.487881	0.316532
42736	9.328129	-0.579785	3.119156	0.000955	0.003323	0.003471	0.238557	0.216481	0.946692	-0.530408	0.845637	-0.059716	-0.813485	-0.487887	0.316556
42737	9.360508	-0.591668	3.116424	0.001033	-0.001536	0.005417	0.238530	0.216483	0.946699	-0.530424	0.845626	-0.059725	-0.813483	-0.487905	0.316535
42738	9.345487	-0.587138	3.135051	0.001587	0.001670	0.005445	0.238529	0.216502	0.946695	-0.530443	0.845613	-0.059735	-0.813470	-0.487919	0.316545
42739	9.334781	-0.609007	3.100319	-0.001013	0.000338	0.002909	0.238531	0.216492	0.946697	-0.530437	0.845618	-0.059727	-0.813474	-0.487916	0.316541
42740	9.345382	-0.587825	3.135236	0.002094	0.001501	0.003991	0.238536	0.216497	0.946694	-0.530458	0.845605	-0.059721	-0.813458	-0.487936	0.316550
42741	9.353550	-0.565137	3.135677	-0.002705	-0.001045	0.002361	0.238529	0.216476	0.946701	-0.530437	0.845619	-0.059714	-0.813474	-0.487921	0.316532
42742	9.369606	-0.623015	3.131899	-0.001797	-0.001096	0.004349	0.238514	0.216472	0.946705	-0.530430	0.845622	-0.059721	-0.813483	-0.487917	0.316516
42743	9.327888	-0.582468	3.119376	0.001587	0.001670	0.005445	0.238513	0.216490	0.946701	-0.530451	0.845609	-0.059729	-0.813470	-0.487933	0.316526
42744	9.342819	-0.587849	3.100858	-0.001013	0.000338	0.002909	0.238515	0.216479	0.946704	-0.530445	0.845613	-0.059721	-0.813474	-0.487929	0.316521
42745	9.345218	-0.589736	3.135365	0.000172	0.001890	0.004911	0.238519	0.216493	0.946699	-0.530453	0.845608	-0.059729	-0.813467	-0.487933	0.316533
42746	9.342697	-0.588682	3.101067	-0.001520	0.000507	0.004363	0.238514	0.216496	0.946700	-0.530448	0.845610	-0.059736	-0.813472	-0.487927	0.316530
42747	9.360087	-0.595492	3.116962	-0.000229	0.001772	0.001469	0.238535	0.216481	0.946698	-0.530444	0.845614	-0.059713	-0.813468	-0.487927	0.316540
42748	9.327581	-0.584276	3.119958	-0.001243	0.002110	0.004378	0.238543	0.216493	0.946693	-0.530442	0.845615	-0.059720	-0.813467	-0.487920	0.316553
42749	9.359942	-0.596241	3.117253	-0.001520	0.000507	0.004363	0.238539	0.216497	0.946693	-0.530436	0.845619	-0.059728	-0.813472	-0.487912	0.316550
42750	9.295054	-0.573592	3.122917	0.000402	0.000118	0.003443	0.238537	0.216489	0.946696	-0.530440	0.845616	-0.059721	-0.813470	-0.487919	0.316545
42751	9.377291	-0.603517	3.133175	-0.001243	0.002110	0.004378	0.238545	0.216501	0.946691	-0.530435	0.845619	-0.059728	-0.813471	-0.487910	0.316558
42752	9.327368	-0.585866	3.120295	0.001816	-0.000102	0.003977	0.238537	0.216497	0.946694	-0.530455	0.845607	-0.059722	-0.813460	-0.487932	0.316550
42753	9.351559	-0.620761	3.117072	-0.001520	0.000508	0.004363	0.238532	0.216501	0.946694	-0.530448	0.845611	-0.059730	-0.813466	-0.487924	0.316548
42754	9.370389	-0.576674	3.152353	0.000402	0.000118	0.003443	0.238529	0.216495	0.946696	-0.530450	0.845609	-0.059726	-0.813466	-0.487929	0.316542
42755	9.301635	-0.603414	3.104136	0.000402	0.000118	0.003443	0.238526	0.216488	0.946699	-0.530457	0.845606	-0.059719	-0.813462	-0.487938	0.316537
42756	9.344744	-0.593771	3.136016	-0.001568	-0.002866	0.002880	0.238502	0.216462	0.946711	-0.530443	0.845615	-0.059714	-0.813478	-0.487934	0.316502
42757	9.359732	-0.599093	3.117335	0.003509	0.001280	0.004525	0.238503	0.216471	0.946708	-0.530478	0.845594	-0.059708	-0.813456	-0.487967	0.316509
42758	9.309807	-0.581507	3.104462	-0.003441	0.000897	0.005284	0.238498	0.216484	0.946707	-0.530457	0.845605	-0.059731	-0.813471	-0.487941	0.316510
42759	9.362046	-0.601589	3.151970	-0.001242	0.002110	0.004378	0.238506	0.216495	0.946702	-0.530452	0.845607	-0.059738	-0.813471	-0.487932	0.316523
42760	9.342115	-0.594015	3.101802	-0.000382	-0.001315	0.004883	0.238483	0.216494	0.946708	-0.530452	0.845606	-0.059749	-0.813478	-0.487935	0.316503
42761	9.352740	-0.572998	3.136666	-0.001242	0.002110	0.004378	0.238492	0.216505	0.946703	-0.530448	0.845609	-0.059756	-0.813478	-0.487926	0.316516
42762	9.344461	-0.596437	3.136355	-0.001520	0.000508	0.004364	0.238484	0.216507	0.946705	-0.530438	0.845614	-0.059765	-0.813487	-0.487915	0.316509
42763	9.344417	-0.596889	3.136400	-0.002934	0.000729	0.003830	0.238484	0.216507	0.946705	-0.530419	0.845626	-0.059773	-0.813499	-0.487895	0.316508
42764	9.352558	-0.574431	3.136947	-0.000334	0.002059	0.006366	0.238482	0.216534	0.946699	-0.530424	0.845621	-0.059796	-0.813497	-0.487892	0.316520
42765	9.341850	-0.596357	3.102152	-0.002706	-0.001043	0.002361	0.238476	0.216513	0.946706	-0.530403	0.845635	-0.059789	-0.813512	-0.487877	0.316502
42766	9.344302	-0.598185	3.136496	0.003231	-0.000323	0.004511	0.238461	0.216513	0.946709	-0.530435	0.845615	-0.059784	-0.813495	-0.487912	0.316492
42767	9.326792	-0.591960	3.120867	-0.001872	0.003764	0.002404	0.238493	0.216516	0.946700	-0.530421	0.845624	-0.059775	-0.813495	-0.487894	0.316520
42768	9.359135	-0.603798	3.118221	0.001816	-0.000102	0.003977	0.238486	0.216513	0.946703	-0.530444	0.845610	-0.059768	-0.813482	-0.487919	0.316514
42769	9.334911	-0.569582	3.121478	-0.001013	0.000339	0.002909	0.238487	0.216504	0.946705	-0.530438	0.845615	-0.059761	-0.813486	-0.487916	0.316510
42770	9.333420	-0.620940	3.102050	-0.002934	0.000729	0.003830	0.238488	0.216504	0.946705	-0.530417	0.845628	-0.059769	-0.813500	-0.487894	0.316509
42771	9.352286	-0.576797	3.137325	0.003738	-0.000493	0.003056	0.238482	0.216491	0.946709	-0.530450	0.845608	-0.059748	-0.813480	-0.487932	0.316500
42772	9.341559	-0.598646	3.102586	-0.003163	0.002501	0.005299	0.238489	0.216513	0.946702	-0.530429	0.845620	-0.059772	-0.813491	-0.487903	0.316516
42773	9.343900	-0.600534	3.137246	0.002879	0.002933	0.002551	0.238514	0.216512	0.946696	-0.530453	0.845606	-0.059749	-0.813468	-0.487927	0.316539
42774	9.349642	-0.576416	3.103293	-0.003997	-0.002306	0.005255	0.238482	0.216510	0.946705	-0.530431	0.845619	-0.059772	-0.813492	-0.487907	0.316508
42775	9.341393	-0.599931	3.102840	-0.001242	0.002111	0.004378	0.238491	0.216521	0.946700	-0.530426	0.845621	-0.059779	-0.813493	-0.487898	0.316521
42776	9.375211	-0.560953	3.119602	-0.000105	0.000288	0.004898	0.238482	0.216528	0.946701	-0.530430	0.845618	-0.059788	-0.813492	-0.487900	0.316518
42777	9.341257	-0.600918	3.103057	-0.000333	0.002060	0.006367	0.238480	0.216556	0.946695	-0.530438	0.845611	-0.059812	-0.813488	-0.487899	0.316531
42778	9.345086	-0.551906	3.157116	-0.000735	0.001942	0.002924	0.238494	0.216553	0.946692	-0.530437	0.845612	-0.059802	-0.813485	-0.487898	0.316541
42779	9.332878	-0.624725	3.102918	-0.001520	0.000509	0.004364	0.238490	0.216557	0.946692	-0.530430	0.845616	-0.059810	-0.813490	-0.487890	0.316539
42780	9.349315	-0.579300	3.103741	-0.000890	-0.001145	0.006338	0.238461	0.216569	0.946696	-0.530433	0.845613	-0.059835	-0.813497	-0.487890	0.316521
42781	9.343522	-0.604186	3.137668	-0.000507	0.000170	0.001455	0.238470	0.216546	0.946700	-0.530427	0.845618	-0.059812	-0.813498	-0.487892	0.316516
42782	9.350271	-0.632493	3.118577	-0.001798	-0.001093	0.004349	0.238454	0.216542	0.946704	-0.530418	0.845623	-0.059821	-0.813509	-0.487885	0.316500
42783	9.357510	-0.557316	3.104098	-0.000228	0.001772	0.001469	0.238475	0.216527	0.946703	-0.530415	0.845627	-0.059797	-0.813505	-0.487885	0.316510
42784	9.351673	-0.582120	3.138169	-0.000105	0.000288	0.004898	0.238466	0.216534	0.946703	-0.530427	0.845619	-0.059804	-0.813500	-0.487896	0.316506
42785	9.349174	-0.580984	3.103852	0.002095	0.001500	0.003992	0.238471	0.216539	0.946701	-0.530448	0.845606	-0.059797	-0.813484	-0.487916	0.316515
42786	9.334137	-0.576347	3.122551	-0.000105	0.000288	0.004898	0.238464	0.216545	0.946701	-0.530450	0.845604	-0.059806	-0.813485	-0.487916	0.316512
42787	9.358283	-0.611278	3.119321	0.001816	-0.000103	0.003977	0.238456	0.216542	0.946704	-0.530469	0.845592	-0.059800	-0.813475	-0.487938	0.316506
42788	9.349036	-0.582138	3.104051	-0.001241	0.002112	0.004378	0.238464	0.216553	0.946699	-0.530463	0.845596	-0.059808	-0.813477	-0.487927	0.316518
42789	9.334017	-0.577492	3.122699	-0.002706	-0.001041	0.002361	0.238458	0.216532	0.946706	-0.530442	0.845610	-0.059801	-0.813492	-0.487912	0.316500
42790	9.368872	-0.590893	3.154230	0.003231	-0.000324	0.004511	0.238446	0.216533	0.946709	-0.530472	0.845591	-0.059796	-0.813476	-0.487944	0.316492
42791	9.323311	-0.599570	3.087813	-0.002428	0.000561	0.002375	0.238452	0.216520	0.946710	-0.530453	0.845603	-0.059789	-0.813486	-0.487929	0.316490
42792	9.343121	-0.608012	3.138124	0.000174	0.001891	0.004913	0.238458	0.216535	0.946705	-0.530464	0.845596	-0.059795	-0.813478	-0.487934	0.316503
42793	9.366270	-0.590361	3.120110	0.001187	0.001551	0.002003	0.238474	0.216524	0.946704	-0.530473	0.845592	-0.059772	-0.813467	-0.487947	0.316512
42794	9.348801	-0.584042	3.104402	-0.001013	0.000340	0.002909	0.238475	0.216514	0.946706	-0.530467	0.845596	-0.059765	-0.813470	-0.487944	0.316507
42795	9.366184	-0.590819	3.120282	0.002601	0.001330	0.002537	0.238487	0.216506	0.946704	-0.530490	0.845583	-0.059742	-0.813452	-0.487969	0.316515
42796	9.357924	-0.614029	3.119858	-0.001292	-0.001262	0.002895	0.238674	0.216533	0.946651	-0.530447	0.845615	-0.059684	-0.813426	-0.487903	0.316686
42797	9.336176	-0.581306	3.157527	0.000680	0.001721	0.003458	0.238684	0.216535	0.946648	-0.530455	0.845610	-0.059676	-0.813417	-0.487911	0.316696
42798	9.333688	-0.580319	3.123159	-0.002812	-0.000752	0.007259	0.238654	0.216557	0.946651	-0.530443	0.845615	-0.059717	-0.813434	-0.487893	0.316680
42799	9.351100	-0.587248	3.138920	-0.001415	0.000221	-0.000534	0.238673	0.216517	0.946655	-0.530425	0.845628	-0.059679	-0.813440	-0.487886	0.316675
42800	9.340399	-0.608853	3.104094	0.000401	0.000119	0.003443	0.238670	0.216511	0.946657	-0.530431	0.845625	-0.059673	-0.813437	-0.487894	0.316670
42801	9.366037	-0.592814	3.120343	-0.000105	0.000289	0.004898	0.238661	0.216518	0.946658	-0.530437	0.845621	-0.059681	-0.813436	-0.487899	0.316666
42802	9.333581	-0.581537	3.123250	-0.000228	0.001772	0.001469	0.238683	0.216503	0.946656	-0.530435	0.845624	-0.059657	-0.813431	-0.487900	0.316677
42803	9.357687	-0.616395	3.120103	-0.000105	0.000289	0.004898	0.238674	0.216510	0.946656	-0.530441	0.845620	-0.059666	-0.813429	-0.487904	0.316673
42804	9.333477	-0.582449	3.123391	-0.002533	0.000850	0.007273	0.238658	0.216540	0.946654	-0.530431	0.845623	-0.059705	-0.813441	-0.487885	0.316674
42805	9.357555	-0.617531	3.120274	-0.002149	0.002164	0.002390	0.238678	0.216534	0.946650	-0.530414	0.845634	-0.059696	-0.813446	-0.487868	0.316687
42806	9.374004	-0.571885	3.121242	0.000401	0.000119	0.003444	0.238675	0.216528	0.946652	-0.530423	0.845630	-0.059688	-0.813441	-0.487879	0.316682
42807	9.325070	-0.606548	3.123212	-0.002428	0.000562	0.002375	0.238682	0.216515	0.946653	-0.530404	0.845642	-0.059680	-0.813451	-0.487864	0.316680
42808	9.350694	-0.590437	3.139532	0.003510	0.001277	0.004527	0.238683	0.216523	0.946651	-0.530439	0.845620	-0.059673	-0.813428	-0.487897	0.316688
42809	9.318236	-0.579229	3.142438	-0.002934	0.000732	0.003830	0.238683	0.216523	0.946651	-0.530419	0.845632	-0.059681	-0.813441	-0.487877	0.316687
42810	9.342323	-0.614167	3.139302	0.000680	0.001721	0.003458	0.238693	0.216524	0.946648	-0.530428	0.845627	-0.059673	-0.813432	-0.487886	0.316695
42811	9.358757	-0.568522	3.140341	-0.000734	0.001943	0.002924	0.238708	0.216523	0.946645	-0.530425	0.845630	-0.059665	-0.813430	-0.487881	0.316707
42812	9.330619	-0.583716	3.089721	0.000122	-0.001484	0.003429	0.238690	0.216509	0.946652	-0.530424	0.845630	-0.059662	-0.813435	-0.487887	0.316685
42813	9.348030	-0.590661	3.105471	-0.001520	0.000511	0.004364	0.238686	0.216512	0.946653	-0.530417	0.845634	-0.059670	-0.813441	-0.487879	0.316683
42814	9.347983	-0.591195	3.105510	-0.000612	0.000459	0.006353	0.238671	0.216532	0.946652	-0.530424	0.845628	-0.059694	-0.813441	-0.487880	0.316681
42815	9.342119	-0.616148	3.139520	-0.002428	0.000562	0.002375	0.238677	0.216519	0.946653	-0.530405	0.845640	-0.059686	-0.813451	-0.487864	0.316678
42816	9.358590	-0.570428	3.140491	-0.000227	0.001772	0.001469	0.238697	0.216504	0.946652	-0.530402	0.845644	-0.059663	-0.813448	-0.487865	0.316687
42817	9.296484	-0.624981	3.073288	-0.002934	0.000733	0.003830	0.238697	0.216504	0.946652	-0.530383	0.845656	-0.059670	-0.813460	-0.487845	0.316686
42818	9.350790	-0.570581	3.262580	0.007124	0.002265	0.004155	0.238708	0.216514	0.946647	-0.530446	0.845618	-0.059649	-0.813416	-0.487906	0.316705
42819	9.355397	-0.593012	2.984215	-0.001414	0.000222	-0.000534	0.238727	0.216474	0.946651	-0.530428	0.845631	-0.059610	-0.813422	-0.487900	0.316700
42820	9.359251	-0.623911	3.155928	-0.003161	0.002505	0.005299	0.238734	0.216495	0.946644	-0.530410	0.845641	-0.059632	-0.813431	-0.487874	0.316715
42821	9.338436	-0.563840	3.090920	-0.001520	0.000511	0.004364	0.238730	0.216499	0.946645	-0.530404	0.845645	-0.059640	-0.813437	-0.487866	0.316713
42822	9.311746	-0.608331	3.177508	-0.000612	0.000459	0.006353	0.238715	0.216519	0.946644	-0.530409	0.845640	-0.059664	-0.813438	-0.487866	0.316710
42823	9.396465	-0.559970	3.104326	0.002043	-0.001876	0.002509	0.238701	0.216495	0.946653	-0.530427	0.845630	-0.059643	-0.813431	-0.487893	0.316687
42824	9.332546	-0.589645	3.124825	-0.004855	0.001126	0.004750	0.238699	0.216505	0.946651	-0.530394	0.845649	-0.059665	-0.813453	-0.487856	0.316689
42825	9.354195	-0.623139	3.087224	-0.001013	0.000341	0.002910	0.238702	0.216495	0.946653	-0.530388	0.845654	-0.059658	-0.813456	-0.487852	0.316685
42826	9.325753	-0.562467	3.143953	-0.001520	0.000511	0.004364	0.238697	0.216498	0.946653	-0.530381	0.845657	-0.059666	-0.813462	-0.487844	0.316683
42827	9.349850	-0.597431	3.140722	0.003230	-0.000326	0.004512	0.238685	0.216499	0.946656	-0.530413	0.845637	-0.059660	-0.813444	-0.487879	0.316675
42828	9.343123	-0.569744	3.159754	0.003230	-0.000326	0.004512	0.238673	0.216499	0.946659	-0.530445	0.845618	-0.059655	-0.813427	-0.487913	0.316667
42829	9.379795	-0.608148	3.103434	-0.002707	-0.001039	0.002361	0.238667	0.216478	0.946665	-0.530424	0.845632	-0.059647	-0.813442	-0.487898	0.316650
42830	9.333948	-0.540896	3.144368	-0.001240	0.002114	0.004379	0.238676	0.216490	0.946661	-0.530419	0.845634	-0.059655	-0.813443	-0.487889	0.316663
42831	9.363123	-0.654911	3.102777	0.001589	0.001669	0.005448	0.238675	0.216508	0.946657	-0.530441	0.845620	-0.059663	-0.813429	-0.487905	0.316673
42832	9.347206	-0.597673	3.106610	0.002602	0.001328	0.002538	0.238687	0.216500	0.946655	-0.530463	0.845608	-0.059641	-0.813411	-0.487930	0.316681
42833	9.347195	-0.597831	3.106611	-0.000786	-0.001432	0.001440	0.238683	0.216469	0.946664	-0.530455	0.845614	-0.059619	-0.813418	-0.487933	0.316660
42834	9.365430	-0.657057	3.137428	0.000053	0.003375	0.001484	0.238717	0.216462	0.946656	-0.530454	0.845616	-0.059595	-0.813408	-0.487932	0.316686
42835	9.340397	-0.570128	3.125875	0.006565	-0.000941	0.004126	0.238702	0.216456	0.946662	-0.530513	0.845581	-0.059575	-0.813374	-0.487995	0.316675
42836	9.323805	-0.616464	3.125045	0.006740	0.000951	0.009040	0.238676	0.216501	0.946658	-0.530584	0.845534	-0.059601	-0.813335	-0.488056	0.316681
42837	9.323772	-0.617280	3.124983	0.017896	-0.003912	0.016730	0.238570	0.216588	0.946665	-0.530765	0.845416	-0.059664	-0.813248	-0.488222	0.316649
42838	9.338726	-0.623655	3.106189	0.024637	-0.002959	0.025771	0.238424	0.216755	0.946663	-0.531022	0.845246	-0.059792	-0.813123	-0.488443	0.316629
42839	9.338603	-0.625459	3.106195	0.032671	-0.000743	0.031917	0.238263	0.216985	0.946651	-0.531359	0.845023	-0.059953	-0.812951	-0.488727	0.316635
42840	9.363361	-0.558580	3.107445	0.042292	-0.003897	0.035647	0.238057	0.217232	0.946646	-0.531782	0.844744	-0.060118	-0.812734	-0.489098	0.316617
42841	9.325025	-0.573840	3.144056	0.044631	-0.005349	0.046504	0.237781	0.217562	0.946640	-0.532251	0.844431	-0.060379	-0.812508	-0.489493	0.316587
42842	9.377217	-0.672733	3.084103	0.054308	-0.005123	0.051719	0.237478	0.217938	0.946629	-0.532810	0.844058	-0.060659	-0.812230	-0.489969	0.316565
42843	9.328936	-0.607222	3.090272	0.052807	-0.005773	0.064420	0.237103	0.218417	0.946613	-0.533387	0.843664	-0.061063	-0.811961	-0.490433	0.316536
42844	9.335373	-0.563315	3.178102	0.072208	-0.008998	0.068472	0.236679	0.218915	0.946604	-0.534131	0.843166	-0.061445	-0.811596	-0.491068	0.316489
42845	9.416570	-0.621785	3.065865	0.074207	-0.007171	0.077374	0.236222	0.219496	0.946584	-0.534911	0.842638	-0.061904	-0.811215	-0.491715	0.316460
42846	9.295403	-0.480626	3.184209	0.087180	-0.003865	0.088592	0.235732	0.220187	0.946545	-0.535822	0.842020	-0.062429	-0.810756	-0.492464	0.316472
42847	9.338700	-0.605545	3.124284	0.097544	-0.010113	0.097759	0.235140	0.220924	0.946521	-0.536838	0.841329	-0.063007	-0.810255	-0.493313	0.316431
42848	9.340516	-0.689670	3.051639	0.107514	-0.008254	0.103003	0.234535	0.221714	0.946486	-0.537946	0.840576	-0.063604	-0.809696	-0.494242	0.316414
42849	9.309622	-0.504977	3.164766	0.074757	-0.008149	0.115698	0.233861	0.222610	0.946443	-0.538818	0.839955	-0.064424	-0.809311	-0.494894	0.316379
42850	9.365433	-0.559674	3.158606	0.118469	-0.012411	0.120563	0.233125	0.223524	0.946409	-0.540053	0.839105	-0.065152	-0.808700	-0.495922	0.316332
42851	9.326161	-0.656983	3.088470	0.106576	-0.011211	0.130995	0.232342	0.224532	0.946363	-0.541215	0.838289	-0.066017	-0.808148	-0.496847	0.316289
42852	9.339372	-0.698161	3.172502	0.109141	-0.014337	0.140431	0.231480	0.225601	0.946320	-0.542418	0.837436	-0.066962	-0.807589	-0.497800	0.316220
42853	9.327892	-0.442904	3.181524	0.135903	-0.017066	0.147222	0.230558	0.226713	0.946279	-0.543850	0.836432	-0.067888	-0.806889	-0.498982	0.316144
42854	9.331759	-1.027055	2.936737	0.128146	-0.015018	0.155835	0.229603	0.227905	0.946225	-0.545238	0.835444	-0.068919	-0.806225	-0.500094	0.316083
42855	9.323770	-0.541827	3.264155	0.085615	-0.014608	0.168231	0.228583	0.229201	0.946159	-0.546309	0.834637	-0.070202	-0.805789	-0.500848	0.315998
42856	9.361848	-0.489684	3.210439	0.161602	-0.020107	0.170268	0.227505	0.230484	0.946107	-0.547994	0.833441	-0.071264	-0.804950	-0.502248	0.315916
42857	9.354819	-0.733490	3.082033	0.159513	-0.018891	0.181047	0.226374	0.231861	0.946042	-0.549684	0.832226	-0.072435	-0.804116	-0.503626	0.315845
42858	9.379460	-0.598826	3.152825	0.145526	-0.019060	0.187520	0.225205	0.233289	0.945970	-0.551272	0.831063	-0.073712	-0.803357	-0.504887	0.315765
42859	9.321418	-0.694295	3.067442	0.177636	-0.019464	0.194520	0.223990	0.234771	0.945892	-0.553131	0.829716	-0.074953	-0.802418	-0.506414	0.315707
42860	9.344398	-0.822598	2.992876	0.128360	-0.020903	0.206246	0.222695	0.236339	0.945807	-0.554617	0.828585	-0.076460	-0.801752	-0.507533	0.315600
42861	9.319363	-0.644861	3.136837	0.128502	-0.018452	0.216113	0.221363	0.237999	0.945703	-0.556122	0.827426	-0.078060	-0.801078	-0.508647	0.315518
42862	9.290210	-0.753908	3.239872	0.154665	-0.019588	0.220974	0.219991	0.239691	0.945596	-0.557844	0.826117	-0.079624	-0.800259	-0.509979	0.315449
42863	9.298696	-0.537250	3.139493	0.201320	-0.021080	0.228492	0.218561	0.241434	0.945484	-0.559951	0.824546	-0.081111	-0.799178	-0.511697	0.315405
42864	9.307612	-1.138122	2.918791	0.126705	-0.024405	0.235991	0.217059	0.243218	0.945373	-0.561473	0.823331	-0.082905	-0.798519	-0.512806	0.315272
42865	9.377523	-0.549821	3.321615	0.112333	-0.025620	0.247406	0.215480	0.245087	0.945252	-0.562901	0.822157	-0.084852	-0.797942	-0.513799	0.315118
42866	9.303869	-0.671201	3.168029	0.249290	-0.026790	0.248561	0.213880	0.246955	0.945129	-0.565418	0.820269	-0.086377	-0.796591	-0.515918	0.315072
42867	9.312067	-1.145906	2.813460	0.151889	-0.025349	0.257252	0.212238	0.248897	0.944990	-0.567171	0.818854	-0.088292	-0.795784	-0.517232	0.314959
42868	9.336311	-0.721846	3.197535	0.142080	-0.025539	0.270308	0.210515	0.250941	0.944834	-0.568869	0.817449	-0.090361	-0.795029	-0.518465	0.314838
42869	9.289191	-0.778163	3.043355	0.200302	-0.030303	0.267475	0.208766	0.252933	0.944691	-0.571017	0.815742	-0.092219	-0.793950	-0.520183	0.314728
42870	9.346376	-0.952071	3.174709	0.152480	-0.026505	0.277762	0.206984	0.255023	0.944521	-0.572801	0.814249	-0.094325	-0.793131	-0.521499	0.314614
42871	9.313850	-0.827222	3.194637	0.176765	-0.027282	0.283607	0.205157	0.257153	0.944343	-0.574783	0.812607	-0.096409	-0.792171	-0.523013	0.314519
42872	9.276134	-0.886653	3.178594	0.157753	-0.027733	0.289997	0.203284	0.259327	0.944153	-0.576620	0.811039	-0.098614	-0.791318	-0.524371	0.314405
42873	9.342157	-0.803034	3.224830	0.192177	-0.032436	0.293311	0.201350	0.261498	0.943969	-0.578730	0.809273	-0.100740	-0.790272	-0.526019	0.314284
42874	9.355672	-1.044960	3.186713	0.196006	-0.033591	0.304929	0.199334	0.263751	0.943770	-0.580885	0.807447	-0.102965	-0.789201	-0.527698	0.314160
42875	9.263182	-0.951703	3.071423	0.193007	-0.035831	0.307480	0.197279	0.266007	0.943569	-0.583014	0.805620	-0.105222	-0.788147	-0.529355	0.314017
42876	9.285158	-1.143858	3.119901	0.168783	-0.034941	0.315183	0.195180	0.268323	0.943349	-0.584958	0.803891	-0.107628	-0.787228	-0.530813	0.313861
42877	9.379516	-0.812614	3.058990	0.161323	-0.034154	0.322457	0.193039	0.270696	0.943112	-0.586850	0.802172	-0.110125	-0.786348	-0.532207	0.313708
42878	9.256593	-1.126399	3.171071	0.226444	-0.038839	0.323879	0.190846	0.273049	0.942880	-0.589248	0.800091	-0.112431	-0.785089	-0.534133	0.313588
42879	9.205072	-1.107364	3.017660	0.179335	-0.036401	0.331314	0.188622	0.275468	0.942624	-0.591281	0.798231	-0.114954	-0.784098	-0.535672	0.313443
42880	9.351279	-1.166382	3.177945	0.195724	-0.042692	0.333164	0.186331	0.277860	0.942377	-0.593436	0.796267	-0.117443	-0.783016	-0.537357	0.313262
42881	9.187793	-1.261662	2.981490	0.162457	-0.038843	0.348929	0.183971	0.280392	0.942091	-0.595350	0.794427	-0.120184	-0.782121	-0.538764	0.313083
42882	9.305359	-1.043774	3.072280	0.200583	-0.043476	0.347022	0.181579	0.282877	0.941812	-0.597549	0.792375	-0.122787	-0.781002	-0.540484	0.312911
42883	9.263058	-1.270117	3.023599	0.171186	-0.040986	0.356052	0.179145	0.285438	0.941505	-0.599525	0.790445	-0.125566	-0.780049	-0.541961	0.312732
42884	9.295505	-1.039152	3.137140	0.163104	-0.043705	0.358518	0.176669	0.287997	0.941194	-0.601431	0.788540	-0.128393	-0.779146	-0.543380	0.312521
42885	9.277162	-1.463524	3.158885	0.219759	-0.047479	0.356715	0.174168	0.290514	0.940887	-0.603766	0.786320	-0.131026	-0.777903	-0.545254	0.312354
42886	9.241533	-1.233123	3.121526	0.191924	-0.046890	0.364897	0.171614	0.293089	0.940557	-0.605886	0.784216	-0.133821	-0.776821	-0.546905	0.312161
42887	9.261835	-1.186032	3.203036	0.200491	-0.048055	0.368387	0.169023	0.295677	0.940216	-0.608067	0.782041	-0.136622	-0.775684	-0.548622	0.311974
