// General information: 
//  MT Manager version: 2019.2.0 
//  XDA version: 2019.2.0 build 3853 rev 94535 built on 2019-09-09
// Device information: 
//  DeviceId: 00B43F80
//  ProductCode: MTW2-3A7G6
//  Firmware Version: 4.3.5
//  Hardware Version: 1.1.0
// Device settings: 
//  Filter Profile: human(46.1)
//  Option Flags: Orientation Smoother Disabled, AHS Disabled, ICC Disabled
// Coordinate system: ENU
PacketCounter	Acc_X	Acc_Y	Acc_Z	Gyr_X	Gyr_Y	Gyr_Z	Mat[1][1]	Mat[2][1]	Mat[3][1]	Mat[1][2]	Mat[2][2]	Mat[3][2]	Mat[1][3]	Mat[2][3]	Mat[3][3]
42075	9.472203	-1.144022	2.181426	0.004394	0.000230	0.006278	0.195247	0.155955	0.968275	-0.227287	0.967594	-0.110014	-0.954054	-0.198597	0.224366
42076	9.495491	-1.056196	2.180759	0.004663	-0.002402	0.006159	0.195234	0.155957	0.968277	-0.227298	0.967591	-0.110017	-0.954054	-0.198608	0.224355
42077	9.462158	-1.095182	2.161053	-0.001631	-0.001455	0.003217	0.195233	0.155933	0.968281	-0.227246	0.967604	-0.110005	-0.954067	-0.198561	0.224344
42078	9.490642	-1.035298	2.206812	0.008286	-0.003169	0.006797	0.195208	0.155941	0.968285	-0.227296	0.967593	-0.110006	-0.954060	-0.198613	0.224326
42079	9.495606	-1.098297	2.168858	0.001243	0.004978	0.009006	0.195255	0.155986	0.968268	-0.227282	0.967591	-0.110044	-0.954054	-0.198583	0.224380
42080	9.500427	-1.086112	2.227295	0.004603	-0.001705	0.001366	0.195258	0.155943	0.968275	-0.227287	0.967595	-0.110000	-0.954052	-0.198598	0.224374
42081	9.480939	-1.068052	2.163474	0.004633	-0.002053	0.003763	0.195250	0.155923	0.968280	-0.227295	0.967596	-0.109979	-0.954052	-0.198612	0.224363
42082	9.476294	-1.087353	2.178157	0.004394	0.000232	0.006279	0.195257	0.155932	0.968277	-0.227309	0.967592	-0.109984	-0.954047	-0.198623	0.224374
42083	9.480848	-1.068841	2.163482	0.005344	-0.000357	0.004612	0.195264	0.155924	0.968277	-0.227326	0.967589	-0.109970	-0.954041	-0.198641	0.224381
42084	9.504898	-1.068503	2.212540	0.003413	0.001169	0.005551	0.195281	0.155929	0.968273	-0.227327	0.967589	-0.109972	-0.954038	-0.198639	0.224398
42085	9.476388	-1.129056	2.166488	0.002230	-0.004506	0.001339	0.195255	0.155881	0.968285	-0.227308	0.967598	-0.109933	-0.954047	-0.198634	0.224361
42086	9.500007	-1.047498	2.238851	0.001243	0.004980	0.009006	0.195306	0.155925	0.968268	-0.227291	0.967598	-0.109971	-0.954041	-0.198601	0.224418
42087	9.452181	-1.096481	2.202419	0.006324	-0.001293	0.005342	0.195302	0.155922	0.968269	-0.227319	0.967592	-0.109962	-0.954035	-0.198631	0.224416
42088	9.514154	-1.072972	2.171423	0.001991	-0.002221	0.003856	0.195293	0.155903	0.968274	-0.227299	0.967598	-0.109950	-0.954042	-0.198615	0.224402
42089	9.475947	-1.090253	2.178217	0.001751	0.000064	0.006372	0.195299	0.155913	0.968271	-0.227285	0.967600	-0.109961	-0.954044	-0.198599	0.224408
42090	9.480615	-1.037477	2.248095	0.003682	-0.001462	0.005433	0.195296	0.155910	0.968272	-0.227284	0.967601	-0.109959	-0.954045	-0.198598	0.224405
42091	9.504590	-1.071635	2.212349	0.002732	-0.000872	0.007102	0.195292	0.155925	0.968271	-0.227281	0.967599	-0.109976	-0.954046	-0.198592	0.224403
42092	9.504550	-1.072193	2.212250	0.001040	-0.001631	0.005525	0.195286	0.155922	0.968273	-0.227255	0.967605	-0.109980	-0.954054	-0.198567	0.224393
42093	9.456606	-1.080246	2.187198	0.006294	-0.000946	0.002945	0.195290	0.155896	0.968276	-0.227278	0.967603	-0.109948	-0.954047	-0.198596	0.224395
42094	9.480309	-1.073726	2.163429	0.001244	0.004983	0.009007	0.195339	0.155941	0.968259	-0.227263	0.967602	-0.109987	-0.954041	-0.198565	0.224450
42095	9.489982	-1.083319	2.195348	0.007542	-0.004515	0.003557	0.195308	0.155914	0.968269	-0.227299	0.967597	-0.109958	-0.954039	-0.198611	0.224419
42096	9.494607	-1.064767	2.180440	0.005374	-0.000702	0.007012	0.195304	0.155928	0.968268	-0.227327	0.967590	-0.109966	-0.954033	-0.198636	0.224421
42097	9.466104	-1.091231	2.219182	0.001751	0.000066	0.006373	0.195310	0.155938	0.968265	-0.227313	0.967592	-0.109978	-0.954035	-0.198619	0.224428
42098	9.441782	-1.051633	2.181788	0.005582	-0.002641	0.002098	0.195305	0.155899	0.968272	-0.227321	0.967594	-0.109939	-0.954034	-0.198637	0.224415
42099	9.504252	-1.075025	2.212155	0.004393	0.000235	0.006283	0.195313	0.155909	0.968269	-0.227332	0.967591	-0.109943	-0.954030	-0.198645	0.224427
42100	9.480079	-1.076234	2.163188	0.000060	-0.000692	0.004796	0.195313	0.155901	0.968270	-0.227306	0.967597	-0.109943	-0.954036	-0.198620	0.224421
42101	9.475246	-1.054791	2.189532	0.006294	-0.000945	0.002946	0.195317	0.155876	0.968274	-0.227329	0.967596	-0.109911	-0.954030	-0.198649	0.224423
42102	9.470554	-1.074118	2.204330	-0.000179	0.001594	0.007313	0.195335	0.155899	0.968266	-0.227297	0.967600	-0.109937	-0.954034	-0.198610	0.224441
42103	9.460752	-1.065610	2.172446	0.008283	-0.003164	0.006805	0.195309	0.155906	0.968270	-0.227346	0.967588	-0.109938	-0.954027	-0.198661	0.224424
42104	9.508642	-1.058387	2.197355	0.000772	0.001004	0.005645	0.195327	0.155910	0.968266	-0.227322	0.967593	-0.109944	-0.954029	-0.198633	0.224439
42105	9.475173	-1.097416	2.177986	0.003414	0.001173	0.005554	0.195346	0.155914	0.968262	-0.227322	0.967593	-0.109944	-0.954025	-0.198631	0.224458
42106	9.489332	-1.047447	2.206712	0.002019	-0.002564	0.006257	0.195323	0.155917	0.968266	-0.227319	0.967593	-0.109953	-0.954031	-0.198629	0.224436
42107	9.470460	-1.117255	2.192591	0.005343	-0.000354	0.004616	0.195329	0.155909	0.968266	-0.227336	0.967591	-0.109939	-0.954026	-0.198648	0.224442
42108	9.494054	-1.070107	2.180231	-0.000891	-0.000100	0.006466	0.195329	0.155920	0.968264	-0.227305	0.967596	-0.109958	-0.954033	-0.198613	0.224441
42109	9.484592	-1.067695	2.221254	0.008253	-0.002818	0.004408	0.195312	0.155905	0.968270	-0.227350	0.967588	-0.109936	-0.954026	-0.198664	0.224427
42110	9.470163	-1.077979	2.204125	-0.000178	0.001597	0.007314	0.195329	0.155928	0.968263	-0.227320	0.967592	-0.109962	-0.954030	-0.198626	0.224444
42111	9.493921	-1.071627	2.180064	0.005640	-0.003331	0.006898	0.195302	0.155936	0.968267	-0.227344	0.967585	-0.109970	-0.954029	-0.198652	0.224422
42112	9.431911	-1.095764	2.210770	0.004631	-0.002049	0.003769	0.195289	0.155916	0.968273	-0.227359	0.967584	-0.109949	-0.954028	-0.198674	0.224408
42113	9.493731	-1.031722	2.191502	0.003414	0.001174	0.005555	0.195308	0.155920	0.968268	-0.227360	0.967584	-0.109949	-0.954024	-0.198671	0.224427
42114	9.484543	-1.110616	2.209377	0.003681	-0.001458	0.005438	0.195303	0.155918	0.968270	-0.227361	0.967584	-0.109948	-0.954025	-0.198674	0.224422
42115	9.479263	-1.042395	2.174353	0.002701	-0.000521	0.004708	0.195308	0.155911	0.968270	-0.227354	0.967586	-0.109941	-0.954026	-0.198667	0.224424
42116	9.484456	-1.111494	2.209306	0.005373	-0.000697	0.007017	0.195305	0.155928	0.968268	-0.227373	0.967580	-0.109955	-0.954022	-0.198683	0.224427
42117	9.469735	-1.040637	2.215366	0.001068	-0.001969	0.007928	0.195289	0.155949	0.968268	-0.227355	0.967581	-0.109983	-0.954029	-0.198662	0.224413
42118	9.479227	-1.084837	2.162623	0.002464	0.001767	0.007225	0.195306	0.155973	0.968260	-0.227353	0.967579	-0.110004	-0.954026	-0.198652	0.224435
42119	9.479508	-1.091449	2.235525	0.007539	-0.004513	0.003563	0.195275	0.155946	0.968271	-0.227389	0.967574	-0.109975	-0.954024	-0.198698	0.224404
42120	9.498538	-1.063108	2.237726	0.001751	0.000072	0.006377	0.195280	0.155957	0.968268	-0.227375	0.967576	-0.109988	-0.954026	-0.198682	0.224409
42121	9.465060	-1.102108	2.218260	0.002701	-0.000520	0.004709	0.195284	0.155949	0.968269	-0.227367	0.967579	-0.109981	-0.954027	-0.198675	0.224411
42122	9.464890	-1.061836	2.229865	0.002701	-0.000520	0.004709	0.195286	0.155943	0.968269	-0.227364	0.967580	-0.109976	-0.954028	-0.198673	0.224411
42123	9.474430	-1.105722	2.177016	0.001988	-0.002216	0.003861	0.195277	0.155923	0.968274	-0.227348	0.967585	-0.109962	-0.954034	-0.198662	0.224396
42124	9.488654	-1.055637	2.205725	0.003414	0.001176	0.005557	0.195298	0.155927	0.968269	-0.227347	0.967586	-0.109961	-0.954029	-0.198658	0.224417
42125	9.455112	-1.094810	2.186416	0.002494	0.001425	0.009626	0.195310	0.155970	0.968260	-0.227347	0.967581	-0.110002	-0.954027	-0.198647	0.224438
42126	9.474030	-1.066850	2.188950	0.002464	0.001769	0.007226	0.195331	0.155994	0.968252	-0.227337	0.967581	-0.110024	-0.954025	-0.198628	0.224462
42127	9.483740	-1.076360	2.220710	0.004896	-0.004680	0.003655	0.195299	0.155968	0.968263	-0.227348	0.967581	-0.110002	-0.954029	-0.198649	0.224426
42128	9.464371	-1.099216	2.145256	0.003414	0.001177	0.005557	0.195322	0.155975	0.968257	-0.227339	0.967582	-0.110006	-0.954026	-0.198635	0.224449
42129	9.473966	-1.068066	2.188632	0.003946	-0.004087	0.005324	0.195291	0.155966	0.968264	-0.227344	0.967582	-0.110003	-0.954032	-0.198646	0.224418
42130	9.517256	-1.079690	2.228149	0.002701	-0.000519	0.004710	0.195299	0.155959	0.968264	-0.227329	0.967586	-0.109997	-0.954033	-0.198633	0.224422
42131	9.473938	-1.068936	2.188328	0.002017	-0.002558	0.006263	0.195281	0.155962	0.968267	-0.227318	0.967587	-0.110007	-0.954040	-0.198622	0.224404
42132	9.454722	-1.057415	2.197616	0.005077	0.002281	0.004737	0.195314	0.155960	0.968261	-0.227331	0.967586	-0.109995	-0.954030	-0.198632	0.224438
42133	9.507320	-1.072131	2.196411	0.002494	0.001428	0.009627	0.195326	0.156004	0.968251	-0.227330	0.967581	-0.110036	-0.954028	-0.198620	0.224458
42134	9.488159	-1.060568	2.205490	0.004152	-0.006033	0.000409	0.195287	0.155945	0.968269	-0.227329	0.967587	-0.109986	-0.954036	-0.198637	0.224408
42135	9.454722	-1.099444	2.185775	0.001781	-0.000268	0.008780	0.195285	0.155977	0.968264	-0.227320	0.967585	-0.110020	-0.954038	-0.198621	0.224411
42136	9.463858	-1.021616	2.167976	0.002436	0.002114	0.004827	0.195311	0.155979	0.968258	-0.227311	0.967588	-0.110019	-0.954035	-0.198607	0.224436
42137	9.488134	-1.102531	2.193769	0.004629	-0.002047	0.003774	0.195303	0.155959	0.968263	-0.227319	0.967588	-0.109999	-0.954035	-0.198622	0.224425
42138	9.492786	-1.083997	2.178889	0.003680	-0.001453	0.005443	0.195298	0.155954	0.968265	-0.227324	0.967587	-0.109994	-0.954035	-0.198629	0.224420
42139	9.502495	-1.093535	2.210629	0.001038	-0.001620	0.005533	0.195290	0.155952	0.968267	-0.227302	0.967592	-0.109999	-0.954042	-0.198608	0.224409
42140	9.449743	-1.079921	2.211976	0.005372	-0.000692	0.007022	0.195285	0.155968	0.968265	-0.227328	0.967585	-0.110009	-0.954037	-0.198631	0.224410
42141	9.483187	-1.082740	2.219971	0.000537	0.003302	0.008166	0.195318	0.156001	0.968253	-0.227306	0.967586	-0.110041	-0.954035	-0.198597	0.224447
42142	9.478097	-1.095977	2.161961	0.004364	0.000586	0.003890	0.195337	0.155988	0.968252	-0.227311	0.967587	-0.110023	-0.954030	-0.198603	0.224463
42143	9.506858	-1.076681	2.196185	0.006321	-0.001286	0.005354	0.195333	0.155985	0.968253	-0.227339	0.967582	-0.110014	-0.954024	-0.198632	0.224462
42144	9.487719	-1.065014	2.205238	0.001273	-0.003910	0.003017	0.195310	0.155954	0.968263	-0.227312	0.967590	-0.109994	-0.954035	-0.198615	0.224430
42145	9.473306	-1.075203	2.187996	0.004393	0.000244	0.006292	0.195318	0.155963	0.968259	-0.227324	0.967587	-0.109999	-0.954031	-0.198623	0.224442
42146	9.473273	-1.075614	2.187937	0.001987	-0.002213	0.003865	0.195307	0.155946	0.968265	-0.227306	0.967592	-0.109988	-0.954037	-0.198611	0.224425
42147	9.492397	-1.088067	2.178558	0.002730	-0.000858	0.007114	0.195303	0.155961	0.968263	-0.227303	0.967591	-0.110004	-0.954039	-0.198605	0.224423
42148	9.468523	-1.095423	2.202569	0.005343	-0.000349	0.004623	0.195305	0.155952	0.968264	-0.227326	0.967587	-0.109990	-0.954033	-0.198630	0.224427
42149	9.453961	-1.065152	2.197155	0.002495	0.001434	0.009631	0.195317	0.155995	0.968254	-0.227325	0.967583	-0.110031	-0.954031	-0.198618	0.224447
42150	9.506568	-1.079886	2.195869	0.004364	0.000587	0.003891	0.195334	0.155982	0.968253	-0.227333	0.967583	-0.110013	-0.954026	-0.198626	0.224461
42151	9.458611	-1.087802	2.170768	0.002250	-0.004844	0.003750	0.195299	0.155957	0.968264	-0.227318	0.967588	-0.109998	-0.954036	-0.198622	0.224421
42152	9.506546	-1.080614	2.195604	0.005108	0.001942	0.007141	0.195321	0.155976	0.968257	-0.227343	0.967581	-0.110007	-0.954026	-0.198640	0.224449
42153	9.468183	-1.057129	2.214188	0.003679	-0.001451	0.005446	0.195315	0.155974	0.968258	-0.227346	0.967581	-0.110005	-0.954026	-0.198644	0.224444
42154	9.487303	-1.069591	2.204811	0.001037	-0.001617	0.005536	0.195309	0.155972	0.968260	-0.227321	0.967586	-0.110010	-0.954033	-0.198620	0.224434
42155	9.491988	-1.091895	2.178425	0.004393	0.000246	0.006294	0.195317	0.155981	0.968257	-0.227332	0.967583	-0.110015	-0.954029	-0.198628	0.224445
42156	9.463382	-1.077463	2.228766	0.001037	-0.001617	0.005536	0.195307	0.155979	0.968259	-0.227320	0.967586	-0.110018	-0.954034	-0.198617	0.224433
42157	9.477460	-1.061857	2.172792	0.006291	-0.000943	0.002955	0.195312	0.155953	0.968262	-0.227343	0.967584	-0.109986	-0.954028	-0.198646	0.224435
42158	9.467997	-1.100120	2.202491	0.003210	0.003134	0.010481	0.195334	0.156010	0.968249	-0.227355	0.967575	-0.110035	-0.954020	-0.198642	0.224470
42159	9.491661	-1.053183	2.190256	0.004364	0.000587	0.003893	0.195351	0.155997	0.968247	-0.227361	0.967576	-0.110017	-0.954015	-0.198650	0.224485
42160	9.458108	-1.092013	2.170847	0.003678	-0.001449	0.005447	0.195348	0.155994	0.968248	-0.227360	0.967576	-0.110015	-0.954016	-0.198650	0.224481
42161	9.472479	-1.041905	2.199350	0.005606	-0.002980	0.004511	0.195330	0.155980	0.968254	-0.227380	0.967574	-0.110000	-0.954015	-0.198675	0.224463
42162	9.486955	-1.113790	2.193181	0.002700	-0.000514	0.004715	0.195340	0.155975	0.968253	-0.227358	0.967579	-0.109998	-0.954018	-0.198653	0.224469
42163	9.458029	-1.052321	2.182115	0.006291	-0.000943	0.002956	0.195344	0.155950	0.968256	-0.227381	0.967577	-0.109966	-0.954012	-0.198682	0.224471
42164	9.505999	-1.085802	2.195417	0.000087	-0.001019	0.007207	0.195340	0.155965	0.968255	-0.227352	0.967581	-0.109990	-0.954020	-0.198649	0.224466
42165	9.429495	-1.078787	2.220638	0.004861	-0.004336	0.001262	0.195316	0.155917	0.968267	-0.227358	0.967585	-0.109945	-0.954023	-0.198669	0.224433
42166	9.472380	-1.043740	2.198903	0.003210	0.003137	0.010482	0.195340	0.155975	0.968253	-0.227365	0.967577	-0.109996	-0.954017	-0.198660	0.224470
42167	9.491437	-1.097107	2.178205	0.003678	-0.001448	0.005449	0.195334	0.155972	0.968255	-0.227368	0.967577	-0.109994	-0.954017	-0.198664	0.224464
42168	9.472253	-1.044854	2.198921	0.003678	-0.001448	0.005449	0.195326	0.155969	0.968257	-0.227373	0.967576	-0.109992	-0.954017	-0.198671	0.224456
42169	9.491374	-1.097956	2.178050	0.002700	-0.000512	0.004716	0.195331	0.155962	0.968257	-0.227365	0.967579	-0.109985	-0.954018	-0.198665	0.224458
42170	9.467488	-1.064474	2.213644	0.005342	-0.000346	0.004627	0.195337	0.155954	0.968257	-0.227383	0.967576	-0.109972	-0.954013	-0.198684	0.224464
42171	9.524842	-1.060286	2.197347	0.002014	-0.002548	0.006272	0.195318	0.155957	0.968260	-0.227372	0.967577	-0.109982	-0.954019	-0.198674	0.224446
42172	9.457712	-1.137681	2.158555	0.006057	0.001351	0.005475	0.195338	0.155960	0.968256	-0.227398	0.967572	-0.109974	-0.954009	-0.198697	0.224469
42173	9.486468	-1.037275	2.215844	0.001065	-0.001951	0.007942	0.195322	0.155981	0.968256	-0.227381	0.967573	-0.110003	-0.954016	-0.198677	0.224455
42174	9.481776	-1.097208	2.218894	0.005575	-0.002639	0.002111	0.195308	0.155944	0.968264	-0.227405	0.967572	-0.109963	-0.954014	-0.198711	0.224437
42175	9.472004	-1.047837	2.198577	0.002467	0.001782	0.007234	0.195329	0.155966	0.968257	-0.227399	0.967571	-0.109981	-0.954010	-0.198698	0.224461
42176	9.481651	-1.098209	2.218931	0.003707	-0.001785	0.007853	0.195318	0.155985	0.968256	-0.227407	0.967567	-0.110001	-0.954011	-0.198703	0.224456
42177	9.471889	-1.089678	2.186970	0.006320	-0.001280	0.005362	0.195314	0.155983	0.968257	-0.227435	0.967561	-0.109993	-0.954005	-0.198733	0.224454
42178	9.490974	-1.061552	2.189192	0.000087	-0.001015	0.007210	0.195308	0.156000	0.968256	-0.227401	0.967566	-0.110020	-0.954014	-0.198694	0.224448
42179	9.486223	-1.080902	2.203944	0.005342	-0.000345	0.004629	0.195314	0.155992	0.968256	-0.227418	0.967564	-0.110006	-0.954009	-0.198713	0.224455
42180	9.471775	-1.050256	2.198406	0.006291	-0.000942	0.002959	0.195317	0.155967	0.968259	-0.227440	0.967562	-0.109976	-0.954003	-0.198740	0.224454
42181	9.486142	-1.081441	2.204027	-0.000204	0.001956	0.004920	0.195345	0.155967	0.968254	-0.227405	0.967570	-0.109978	-0.954006	-0.198702	0.224477
42182	9.457279	-1.060721	2.181300	0.004888	-0.004674	0.003668	0.195312	0.155938	0.968265	-0.227415	0.967570	-0.109953	-0.954010	-0.198723	0.224441
42183	9.462281	-1.048327	2.239425	0.005109	0.001950	0.007146	0.195335	0.155959	0.968257	-0.227435	0.967564	-0.109965	-0.954001	-0.198736	0.224470
42184	9.509825	-1.116494	2.168446	0.004364	0.000590	0.003896	0.195349	0.155945	0.968256	-0.227442	0.967565	-0.109946	-0.953996	-0.198744	0.224481
42185	9.476256	-1.033193	2.183745	0.005342	-0.000344	0.004630	0.195356	0.155937	0.968256	-0.227459	0.967562	-0.109933	-0.953991	-0.198763	0.224488
42186	9.471489	-1.093074	2.187008	0.002700	-0.000509	0.004719	0.195354	0.155933	0.968257	-0.227451	0.967565	-0.109932	-0.953993	-0.198755	0.224484
42187	9.485878	-1.083626	2.204091	0.005342	-0.000344	0.004630	0.195360	0.155925	0.968257	-0.227468	0.967562	-0.109918	-0.953988	-0.198774	0.224491
42188	9.447589	-1.060045	2.222547	0.000087	-0.001012	0.007211	0.195358	0.155942	0.968255	-0.227434	0.967567	-0.109944	-0.953996	-0.198736	0.224489
42189	9.504928	-1.096664	2.194652	0.005603	-0.002976	0.004517	0.195340	0.155928	0.968261	-0.227454	0.967564	-0.109929	-0.953995	-0.198761	0.224470
42190	9.456951	-1.063830	2.181210	0.004364	0.000591	0.003897	0.195315	0.155849	0.968278	-0.227316	0.967601	-0.109887	-0.954033	-0.198643	0.224414
42191	9.485747	-1.085232	2.203864	0.006319	-0.001278	0.005365	0.195311	0.155846	0.968280	-0.227344	0.967596	-0.109879	-0.954027	-0.198672	0.224413
42192	9.452170	-1.083253	2.196012	0.002671	-0.000171	0.002316	0.195323	0.155816	0.968282	-0.227329	0.967603	-0.109850	-0.954029	-0.198662	0.224417
42193	9.490427	-1.066870	2.188979	0.004625	-0.002040	0.003784	0.195315	0.155796	0.968287	-0.227337	0.967603	-0.109830	-0.954028	-0.198676	0.224406
42194	9.480964	-1.104954	2.218521	0.001751	0.000090	0.006390	0.195322	0.155807	0.968284	-0.227323	0.967605	-0.109842	-0.954030	-0.198658	0.224413
42195	9.495084	-1.048885	2.174023	0.005603	-0.002975	0.004519	0.195304	0.155793	0.968290	-0.227342	0.967602	-0.109827	-0.954029	-0.198683	0.224394
42196	9.485623	-1.086958	2.203549	0.004393	0.000256	0.006302	0.195309	0.155804	0.968287	-0.227354	0.967598	-0.109835	-0.954025	-0.198692	0.224404
42197	9.485517	-1.087638	2.203668	0.002496	0.001452	0.009642	0.195322	0.155848	0.968277	-0.227354	0.967594	-0.109876	-0.954023	-0.198680	0.224425
42198	9.451960	-1.045165	2.207337	0.005573	-0.002638	0.002115	0.195312	0.155811	0.968285	-0.227371	0.967594	-0.109837	-0.954021	-0.198707	0.224410
42199	9.485412	-1.129038	2.192056	-0.000919	0.000262	0.004074	0.195326	0.155799	0.968284	-0.227327	0.967605	-0.109832	-0.954028	-0.198664	0.224415
42200	9.471035	-1.057907	2.197926	0.004654	-0.002376	0.006190	0.195316	0.155802	0.968286	-0.227330	0.967604	-0.109837	-0.954030	-0.198668	0.224407
42201	9.485397	-1.089402	2.203314	0.001064	-0.001942	0.007948	0.195299	0.155823	0.968286	-0.227313	0.967604	-0.109865	-0.954037	-0.198647	0.224393
42202	9.490099	-1.071066	2.188351	0.004625	-0.002039	0.003786	0.195293	0.155805	0.968290	-0.227314	0.967606	-0.109849	-0.954038	-0.198653	0.224383
42203	9.470917	-1.100052	2.185983	0.000058	-0.000672	0.004809	0.195296	0.155798	0.968290	-0.227281	0.967614	-0.109849	-0.954046	-0.198621	0.224381
42204	9.470912	-1.059782	2.197555	0.006058	0.001356	0.005480	0.195316	0.155802	0.968286	-0.227308	0.967608	-0.109841	-0.954035	-0.198646	0.224404
42205	9.470879	-1.060194	2.197496	0.000318	-0.003303	0.004697	0.195294	0.155788	0.968292	-0.227277	0.967616	-0.109840	-0.954047	-0.198620	0.224377
42206	9.504427	-1.062862	2.205143	0.006318	-0.001276	0.005368	0.195290	0.155788	0.968293	-0.227296	0.967612	-0.109836	-0.954043	-0.198639	0.224375
42207	9.489924	-1.073246	2.188044	0.001780	-0.000243	0.008797	0.195288	0.155820	0.968288	-0.227287	0.967610	-0.109871	-0.954046	-0.198623	0.224379
42208	9.485108	-1.092696	2.202926	0.003416	0.001192	0.005569	0.195310	0.155825	0.968283	-0.227285	0.967610	-0.109872	-0.954042	-0.198617	0.224401
42209	9.470597	-1.102882	2.185946	0.005341	-0.000341	0.004634	0.195317	0.155817	0.968283	-0.227302	0.967608	-0.109858	-0.954036	-0.198635	0.224408
42210	9.489810	-1.033946	2.199666	0.003676	-0.001440	0.005457	0.195302	0.155818	0.968286	-0.227325	0.967603	-0.109857	-0.954034	-0.198660	0.224396
42211	9.470526	-1.103674	2.185855	0.002699	-0.000505	0.004722	0.195307	0.155810	0.968286	-0.227317	0.967605	-0.109850	-0.954035	-0.198653	0.224398
42212	9.494726	-1.062593	2.246277	0.002699	-0.000505	0.004722	0.195310	0.155804	0.968287	-0.227309	0.967608	-0.109845	-0.954036	-0.198647	0.224399
42213	9.465489	-1.076598	2.139004	0.002959	-0.003137	0.004611	0.195290	0.155790	0.968293	-0.227303	0.967610	-0.109837	-0.954041	-0.198646	0.224376
42214	9.480218	-1.073238	2.229055	0.005110	0.001957	0.007152	0.195313	0.155811	0.968285	-0.227322	0.967604	-0.109849	-0.954032	-0.198657	0.224405
42215	9.470347	-1.105445	2.185735	0.001034	-0.001603	0.005546	0.195305	0.155809	0.968287	-0.227299	0.967609	-0.109854	-0.954039	-0.198636	0.224394
42216	9.480152	-1.074061	2.228940	0.005572	-0.002638	0.002118	0.195292	0.155774	0.968295	-0.227318	0.967609	-0.109817	-0.954038	-0.198665	0.224376
42217	9.475077	-1.087127	2.170691	0.001723	0.000430	0.003988	0.195307	0.155761	0.968294	-0.227299	0.967615	-0.109805	-0.954039	-0.198647	0.224387
42218	9.475125	-1.046820	2.182159	0.003676	-0.001438	0.005459	0.195300	0.155760	0.968296	-0.227301	0.967614	-0.109805	-0.954040	-0.198649	0.224380
42219	9.484708	-1.097062	2.202480	0.002728	-0.000838	0.007129	0.195296	0.155775	0.968294	-0.227298	0.967613	-0.109822	-0.954042	-0.198643	0.224378
42220	9.489394	-1.078715	2.187651	0.005341	-0.000340	0.004636	0.195306	0.155769	0.968293	-0.227306	0.967612	-0.109811	-0.954038	-0.198652	0.224387
42221	9.455833	-1.076809	2.179684	0.000317	-0.003300	0.004700	0.195284	0.155755	0.968300	-0.227275	0.967620	-0.109810	-0.954049	-0.198626	0.224360
42222	9.499049	-1.088617	2.219355	0.005111	0.001959	0.007153	0.195310	0.155775	0.968291	-0.227298	0.967613	-0.109819	-0.954039	-0.198642	0.224392
42223	9.494016	-1.061369	2.172627	0.002987	-0.003469	0.007019	0.195281	0.155784	0.968296	-0.227297	0.967612	-0.109834	-0.954045	-0.198642	0.224366
42224	9.475140	-1.096443	2.243188	0.003676	-0.001437	0.005460	0.195273	0.155782	0.968298	-0.227305	0.967610	-0.109832	-0.954044	-0.198652	0.224358
42225	9.455674	-1.078959	2.179314	0.003704	-0.001771	0.007866	0.195258	0.155802	0.968297	-0.227313	0.967606	-0.109853	-0.954046	-0.198657	0.224349
42226	9.518104	-1.062214	2.221145	0.003676	-0.001437	0.005460	0.195247	0.155800	0.968300	-0.227322	0.967604	-0.109851	-0.954046	-0.198668	0.224338
42227	9.503529	-1.113115	2.192429	0.002958	-0.003135	0.004614	0.195226	0.155786	0.968306	-0.227317	0.967606	-0.109842	-0.954051	-0.198668	0.224315
42228	9.479766	-1.079520	2.227944	0.002441	0.002129	0.004836	0.195255	0.155784	0.968301	-0.227307	0.967609	-0.109837	-0.954048	-0.198655	0.224342
42229	9.489069	-1.083136	2.186876	0.003704	-0.001769	0.007867	0.195241	0.155804	0.968301	-0.227314	0.967605	-0.109859	-0.954049	-0.198660	0.224333
42230	9.436380	-1.069204	2.188278	0.004365	0.000595	0.003901	0.195254	0.155792	0.968300	-0.227329	0.967603	-0.109840	-0.954043	-0.198676	0.224345
42231	9.469890	-1.071896	2.196081	0.001034	-0.001600	0.005549	0.195246	0.155791	0.968302	-0.227307	0.967608	-0.109845	-0.954049	-0.198655	0.224334
42232	9.469872	-1.072219	2.196000	0.006289	-0.000939	0.002967	0.195255	0.155765	0.968304	-0.227327	0.967607	-0.109814	-0.954043	-0.198680	0.224339
42233	9.517827	-1.065143	2.220928	0.003446	0.000864	0.007979	0.195265	0.155792	0.968298	-0.227333	0.967603	-0.109837	-0.954040	-0.198678	0.224356
42234	9.488852	-1.085235	2.186780	0.001981	-0.002200	0.003879	0.195249	0.155775	0.968304	-0.227326	0.967606	-0.109824	-0.954044	-0.198678	0.224336
42235	9.450670	-1.061408	2.205108	0.003675	-0.001435	0.005462	0.195243	0.155772	0.968305	-0.227329	0.967606	-0.109823	-0.954045	-0.198682	0.224330
42236	9.517574	-1.107154	2.209354	0.002441	0.002131	0.004837	0.195276	0.155770	0.968299	-0.227317	0.967609	-0.109817	-0.954041	-0.198666	0.224360
42237	9.483937	-1.105295	2.201684	0.004393	0.000264	0.006309	0.195284	0.155780	0.968296	-0.227328	0.967606	-0.109822	-0.954037	-0.198674	0.224371
42238	9.474325	-1.056133	2.181148	0.002985	-0.003465	0.007023	0.195254	0.155789	0.968300	-0.227330	0.967604	-0.109837	-0.954042	-0.198677	0.224344
42239	9.454903	-1.126015	2.167437	0.005112	0.001962	0.007156	0.195277	0.155810	0.968292	-0.227349	0.967598	-0.109848	-0.954033	-0.198690	0.224373
42240	9.450522	-1.022999	2.216702	0.004594	-0.001703	0.001385	0.195273	0.155767	0.968300	-0.227363	0.967600	-0.109803	-0.954031	-0.198714	0.224362
42241	9.517316	-1.109371	2.209354	0.002728	-0.000833	0.007134	0.195269	0.155782	0.968298	-0.227360	0.967599	-0.109820	-0.954032	-0.198708	0.224361
42242	9.454932	-1.086458	2.178807	0.003675	-0.001434	0.005463	0.195259	0.155782	0.968300	-0.227367	0.967597	-0.109820	-0.954033	-0.198716	0.224352
42243	9.507667	-1.060750	2.188753	0.000086	-0.000996	0.007222	0.195254	0.155798	0.968299	-0.227339	0.967601	-0.109844	-0.954040	-0.198684	0.224347
42244	9.450102	-1.106283	2.193428	0.004622	-0.002035	0.003793	0.195248	0.155781	0.968303	-0.227340	0.967602	-0.109828	-0.954041	-0.198690	0.224337
42245	9.503047	-1.039629	2.214713	0.002956	-0.003132	0.004617	0.195228	0.155767	0.968309	-0.227334	0.967605	-0.109820	-0.954047	-0.198690	0.224314
42246	9.488249	-1.131191	2.174660	0.001723	0.000434	0.003991	0.195242	0.155756	0.968308	-0.227321	0.967609	-0.109808	-0.954047	-0.198677	0.224324
42247	9.459734	-1.029009	2.174906	0.006317	-0.001270	0.005377	0.195238	0.155753	0.968309	-0.227348	0.967604	-0.109800	-0.954041	-0.198707	0.224323
42248	9.521844	-1.093732	2.193944	0.000804	0.000704	0.008069	0.195247	0.155782	0.968303	-0.227327	0.967605	-0.109832	-0.954045	-0.198677	0.224335
42249	9.450066	-1.067666	2.204677	0.004365	0.000597	0.003904	0.195264	0.155768	0.968302	-0.227333	0.967606	-0.109813	-0.954040	-0.198684	0.224350
42250	9.502798	-1.041860	2.214736	0.002727	-0.000830	0.007136	0.195258	0.155783	0.968300	-0.227332	0.967604	-0.109830	-0.954041	-0.198681	0.224347
42251	9.449775	-1.109375	2.193274	0.004393	0.000266	0.006312	0.195267	0.155793	0.968297	-0.227344	0.967601	-0.109835	-0.954037	-0.198689	0.224359
42252	9.512061	-1.045935	2.173609	0.001004	-0.001264	0.003145	0.195269	0.155768	0.968301	-0.227314	0.967610	-0.109817	-0.954043	-0.198665	0.224353
42253	9.473548	-1.103602	2.169048	0.001061	-0.001926	0.007961	0.195253	0.155789	0.968301	-0.227297	0.967611	-0.109845	-0.954051	-0.198644	0.224339
42254	9.449844	-1.070104	2.204446	0.006316	-0.001269	0.005378	0.195249	0.155787	0.968302	-0.227319	0.967606	-0.109838	-0.954046	-0.198668	0.224337
42255	9.506995	-1.107081	2.176729	0.001780	-0.000226	0.008808	0.195247	0.155820	0.968297	-0.227310	0.967604	-0.109873	-0.954049	-0.198651	0.224341
42256	9.425916	-1.077777	2.228393	0.005569	-0.002637	0.002124	0.195241	0.155783	0.968304	-0.227317	0.967607	-0.109836	-0.954048	-0.198668	0.224329
42257	9.540683	-1.069506	2.195766	0.002727	-0.000828	0.007137	0.195238	0.155798	0.968302	-0.227314	0.967606	-0.109853	-0.954050	-0.198661	0.224328
42258	9.449541	-1.112671	2.192614	0.002955	-0.003130	0.004620	0.195217	0.155784	0.968309	-0.227307	0.967608	-0.109845	-0.954056	-0.198660	0.224304
42259	9.473766	-1.025084	2.191126	0.002984	-0.003460	0.007028	0.195188	0.155793	0.968313	-0.227306	0.967607	-0.109860	-0.954062	-0.198660	0.224278
42260	9.487838	-1.097296	2.185158	0.005369	-0.000665	0.007051	0.195184	0.155808	0.968311	-0.227336	0.967599	-0.109868	-0.954055	-0.198687	0.224281
42261	9.478638	-1.053822	2.237670	0.003646	-0.001100	0.003059	0.195187	0.155783	0.968315	-0.227334	0.967602	-0.109844	-0.954055	-0.198690	0.224278
42262	9.487751	-1.098181	2.185091	0.001780	-0.000224	0.008809	0.195181	0.155817	0.968311	-0.227328	0.967599	-0.109880	-0.954058	-0.198677	0.224279
42263	9.502143	-1.089159	2.202154	0.004422	-0.000061	0.008723	0.195181	0.155849	0.968305	-0.227344	0.967592	-0.109908	-0.954054	-0.198687	0.224287
42264	9.464013	-1.065275	2.220431	0.002207	-0.004498	0.001366	0.195152	0.155803	0.968319	-0.227327	0.967600	-0.109873	-0.954064	-0.198683	0.224248
42265	9.506945	-1.071043	2.186877	0.003674	-0.001430	0.005468	0.195147	0.155801	0.968320	-0.227329	0.967600	-0.109871	-0.954065	-0.198687	0.224242
42266	9.487827	-1.059343	2.196132	0.003418	0.001202	0.005577	0.195168	0.155804	0.968315	-0.227326	0.967601	-0.109870	-0.954061	-0.198680	0.224263
42267	9.454038	-1.098109	2.176842	0.002954	-0.003128	0.004622	0.195148	0.155790	0.968322	-0.227320	0.967603	-0.109862	-0.954066	-0.198680	0.224240
42268	9.502272	-1.050320	2.212995	0.005341	-0.000334	0.004644	0.195152	0.155784	0.968322	-0.227340	0.967600	-0.109851	-0.954061	-0.198701	0.224245
42269	9.449396	-1.076932	2.203041	0.004394	0.000270	0.006315	0.195160	0.155794	0.968319	-0.227352	0.967596	-0.109856	-0.954056	-0.198709	0.224256
42270	9.521225	-1.063390	2.203781	0.001032	-0.001591	0.005556	0.195150	0.155793	0.968321	-0.227333	0.967600	-0.109862	-0.954063	-0.198692	0.224244
42271	9.449135	-1.118439	2.191430	0.005567	-0.002636	0.002127	0.195140	0.155756	0.968329	-0.227347	0.967601	-0.109823	-0.954062	-0.198716	0.224229
42272	9.525981	-1.045289	2.188726	0.003447	0.000875	0.007987	0.195156	0.155783	0.968321	-0.227344	0.967599	-0.109848	-0.954059	-0.198705	0.224249
42273	9.429943	-1.107227	2.200760	0.003419	0.001204	0.005578	0.195175	0.155787	0.968317	-0.227345	0.967599	-0.109848	-0.954055	-0.198702	0.224269
42274	9.501990	-1.052925	2.212968	0.003674	-0.001428	0.005470	0.195168	0.155787	0.968318	-0.227346	0.967599	-0.109848	-0.954056	-0.198705	0.224261
42275	9.492017	-1.085181	2.169594	0.002727	-0.000824	0.007141	0.195164	0.155802	0.968317	-0.227343	0.967597	-0.109865	-0.954058	-0.198699	0.224260
42276	9.453883	-1.061332	2.187928	0.001978	-0.002194	0.003886	0.195155	0.155784	0.968321	-0.227326	0.967603	-0.109853	-0.954064	-0.198686	0.224246
42277	9.487167	-1.104874	2.184254	0.001752	0.000110	0.006403	0.195161	0.155794	0.968318	-0.227312	0.967605	-0.109865	-0.954066	-0.198669	0.224253
42278	9.449010	-1.081018	2.202694	0.006315	-0.001265	0.005384	0.195156	0.155792	0.968320	-0.227344	0.967598	-0.109857	-0.954059	-0.198703	0.224251
42279	9.506385	-1.077279	2.186249	0.002982	-0.003454	0.007034	0.195127	0.155801	0.968324	-0.227343	0.967597	-0.109872	-0.954065	-0.198703	0.224224
42280	9.472810	-1.075335	2.178343	0.004365	0.000600	0.003908	0.195138	0.155791	0.968324	-0.227352	0.967596	-0.109857	-0.954061	-0.198713	0.224234
42281	9.501780	-1.056069	2.212370	0.001978	-0.002193	0.003886	0.195128	0.155772	0.968329	-0.227336	0.967602	-0.109844	-0.954067	-0.198702	0.224219
42282	9.477693	-1.103829	2.224852	0.002007	-0.002521	0.006296	0.195110	0.155775	0.968332	-0.227326	0.967603	-0.109854	-0.954073	-0.198693	0.224200
42283	9.468189	-1.054649	2.204286	0.004394	0.000273	0.006318	0.195118	0.155784	0.968329	-0.227337	0.967600	-0.109859	-0.954069	-0.198702	0.224212
42284	9.486964	-1.108012	2.183546	0.000311	-0.003287	0.004712	0.195099	0.155770	0.968335	-0.227303	0.967608	-0.109857	-0.954081	-0.198672	0.224186
42285	9.506482	-1.039181	2.197018	0.007036	0.000435	0.006231	0.195109	0.155779	0.968331	-0.227339	0.967600	-0.109855	-0.954070	-0.198706	0.224202
42286	9.472633	-1.077982	2.177804	0.001032	-0.001588	0.005559	0.195102	0.155775	0.968333	-0.227317	0.967604	-0.109858	-0.954077	-0.198685	0.224192
42287	9.487064	-1.068769	2.194865	0.002473	0.001811	0.007251	0.195123	0.155797	0.968326	-0.227312	0.967603	-0.109876	-0.954074	-0.198673	0.224216
42288	9.487001	-1.069191	2.194931	0.003645	-0.001098	0.003062	0.195128	0.155773	0.968328	-0.227307	0.967607	-0.109852	-0.954074	-0.198672	0.224216
42289	9.477384	-1.107077	2.224556	0.001031	-0.001587	0.005559	0.195121	0.155771	0.968330	-0.227284	0.967612	-0.109858	-0.954081	-0.198651	0.224206
42290	9.458221	-1.048745	2.172056	0.003645	-0.001098	0.003062	0.195123	0.155748	0.968333	-0.227285	0.967615	-0.109834	-0.954080	-0.198656	0.224203
42291	9.482126	-1.089059	2.209573	0.001752	0.000113	0.006406	0.195130	0.155758	0.968330	-0.227271	0.967617	-0.109845	-0.954082	-0.198639	0.224210
42292	9.482076	-1.089562	2.209540	0.003673	-0.001425	0.005473	0.195124	0.155756	0.968332	-0.227277	0.967616	-0.109843	-0.954082	-0.198646	0.224204
42293	9.501333	-1.061492	2.211693	0.004394	0.000275	0.006319	0.195132	0.155765	0.968329	-0.227288	0.967612	-0.109848	-0.954077	-0.198654	0.224216
42294	9.453006	-1.109997	2.175293	0.002231	-0.004823	0.003781	0.195100	0.155740	0.968339	-0.227269	0.967618	-0.109834	-0.954088	-0.198645	0.224178
42295	9.482283	-1.049957	2.220648	0.002417	0.002466	0.002431	0.195139	0.155716	0.968335	-0.227254	0.967625	-0.109806	-0.954084	-0.198631	0.224208
42296	9.467395	-1.100979	2.192450	0.002501	0.001486	0.009663	0.195151	0.155761	0.968326	-0.227254	0.967620	-0.109848	-0.954082	-0.198619	0.224229
42297	9.481828	-1.091736	2.209530	0.003645	-0.001098	0.003063	0.195153	0.155736	0.968329	-0.227252	0.967624	-0.109823	-0.954082	-0.198622	0.224226
42298	9.520177	-1.075795	2.202288	0.002980	-0.003450	0.007039	0.195124	0.155746	0.968333	-0.227253	0.967621	-0.109839	-0.954087	-0.198625	0.224200
42299	9.443759	-1.068248	2.227515	0.002952	-0.003123	0.004628	0.195104	0.155733	0.968340	-0.227247	0.967624	-0.109831	-0.954093	-0.198624	0.224177
42300	9.496242	-1.036717	2.164360	0.001724	0.000441	0.003996	0.195118	0.155720	0.968339	-0.227230	0.967629	-0.109820	-0.954094	-0.198608	0.224186
42301	9.495975	-1.124357	2.214686	0.004394	0.000276	0.006321	0.195127	0.155730	0.968336	-0.227241	0.967626	-0.109825	-0.954090	-0.198616	0.224198
42302	9.462967	-1.041038	2.229524	0.002980	-0.003449	0.007040	0.195095	0.155740	0.968340	-0.227242	0.967624	-0.109842	-0.954096	-0.198618	0.224170
42303	9.510032	-1.110074	2.158441	0.001780	-0.000211	0.008819	0.195093	0.155773	0.968335	-0.227234	0.967622	-0.109877	-0.954098	-0.198602	0.224174
42304	9.486421	-1.076352	2.193936	0.005312	-0.000004	0.002238	0.195108	0.155742	0.968337	-0.227247	0.967623	-0.109839	-0.954092	-0.198621	0.224183
42305	9.467363	-1.064420	2.203137	0.003673	-0.001423	0.005475	0.195102	0.155740	0.968339	-0.227250	0.967622	-0.109838	-0.954092	-0.198625	0.224177
42306	9.467005	-1.105732	2.191741	0.004422	-0.000049	0.008733	0.195100	0.155771	0.968334	-0.227271	0.967614	-0.109865	-0.954088	-0.198639	0.224184
42307	9.472053	-1.046779	2.188270	0.005340	-0.000329	0.004650	0.195107	0.155763	0.968334	-0.227288	0.967612	-0.109852	-0.954083	-0.198658	0.224191
42308	9.481414	-1.096863	2.208767	0.003672	-0.001422	0.005476	0.195095	0.155763	0.968337	-0.227293	0.967611	-0.109852	-0.954084	-0.198664	0.224180
42309	9.467197	-1.066282	2.202952	0.005592	-0.002960	0.004544	0.195077	0.155748	0.968343	-0.227312	0.967608	-0.109837	-0.954083	-0.198689	0.224161
42310	9.505216	-1.091247	2.184403	0.001780	-0.000208	0.008820	0.195071	0.155782	0.968338	-0.227312	0.967604	-0.109872	-0.954084	-0.198682	0.224162
42311	9.467121	-1.067222	2.202824	0.003616	-0.000771	0.000653	0.195082	0.155735	0.968344	-0.227305	0.967611	-0.109824	-0.954084	-0.198684	0.224163
42312	9.500620	-1.070021	2.210647	0.000806	0.000725	0.008081	0.195085	0.155763	0.968338	-0.227295	0.967610	-0.109855	-0.954085	-0.198667	0.224171
42313	9.471499	-1.090221	2.176643	0.005368	-0.000653	0.007063	0.195083	0.155778	0.968337	-0.227317	0.967604	-0.109865	-0.954081	-0.198686	0.224174
42314	9.466966	-1.068673	2.202786	0.001976	-0.002189	0.003891	0.195075	0.155760	0.968341	-0.227298	0.967610	-0.109852	-0.954087	-0.198672	0.224161
42315	9.509820	-1.074679	2.169390	0.005340	-0.000328	0.004652	0.195082	0.155752	0.968341	-0.227315	0.967607	-0.109839	-0.954081	-0.198690	0.224167
42316	9.447897	-1.057016	2.211925	0.006286	-0.000935	0.002980	0.195083	0.155728	0.968345	-0.227342	0.967604	-0.109808	-0.954074	-0.198724	0.224167
42317	9.504925	-1.093985	2.184302	0.004394	0.000280	0.006324	0.195092	0.155737	0.968341	-0.227354	0.967601	-0.109813	-0.954070	-0.198732	0.224178
42318	9.428431	-1.086192	2.209982	0.002418	0.002468	0.002432	0.195130	0.155712	0.968338	-0.227340	0.967607	-0.109783	-0.954065	-0.198720	0.224209
42319	9.529014	-1.047314	2.171632	0.002228	-0.004820	0.003786	0.195095	0.155687	0.968349	-0.227326	0.967612	-0.109769	-0.954076	-0.198715	0.224168
42320	9.423275	-1.146393	2.213156	0.003700	-0.001744	0.007891	0.195086	0.155708	0.968347	-0.227322	0.967611	-0.109792	-0.954079	-0.198708	0.224164
42321	9.505481	-1.014033	2.206701	0.003644	-0.001095	0.003066	0.195089	0.155683	0.968351	-0.227320	0.967614	-0.109767	-0.954078	-0.198711	0.224161
42322	9.485422	-1.124406	2.181862	0.001752	0.000120	0.006411	0.195098	0.155693	0.968347	-0.227302	0.967617	-0.109780	-0.954081	-0.198690	0.224169
42323	9.452489	-1.041106	2.196704	0.003700	-0.001743	0.007891	0.195083	0.155714	0.968347	-0.227310	0.967612	-0.109802	-0.954082	-0.198694	0.224160
42324	9.504656	-1.097167	2.183876	-0.000889	-0.000040	0.006497	0.195087	0.155725	0.968344	-0.227273	0.967619	-0.109820	-0.954090	-0.198654	0.224162
42325	9.466903	-1.032565	2.213622	0.008983	-0.001422	0.007720	0.195076	0.155744	0.968343	-0.227331	0.967604	-0.109829	-0.954078	-0.198710	0.224162
42326	9.509086	-1.120179	2.157387	0.002227	-0.004818	0.003788	0.195037	0.155721	0.968355	-0.227320	0.967608	-0.109816	-0.954089	-0.198708	0.224118
42327	9.433041	-1.071639	2.193984	0.003672	-0.001418	0.005480	0.195032	0.155719	0.968356	-0.227322	0.967608	-0.109815	-0.954090	-0.198712	0.224113
42328	9.456834	-1.065613	2.169886	0.000779	0.001053	0.005671	0.195048	0.155723	0.968353	-0.227299	0.967613	-0.109821	-0.954092	-0.198685	0.224126
42329	9.518719	-1.130360	2.188933	0.003895	-0.003726	0.002962	0.195026	0.155692	0.968362	-0.227299	0.967616	-0.109795	-0.954097	-0.198695	0.224099
42330	9.447504	-1.062958	2.210759	0.005340	-0.000326	0.004654	0.195036	0.155683	0.968361	-0.227311	0.967615	-0.109781	-0.954092	-0.198708	0.224108
42331	9.490315	-1.069196	2.177406	0.000084	-0.000969	0.007239	0.195031	0.155699	0.968360	-0.227283	0.967618	-0.109805	-0.954099	-0.198676	0.224103
42332	9.485413	-1.088522	2.192290	0.004394	0.000282	0.006327	0.195040	0.155708	0.968356	-0.227292	0.967616	-0.109809	-0.954095	-0.198682	0.224115
42333	9.490178	-1.070329	2.177450	0.001752	0.000123	0.006413	0.195047	0.155718	0.968354	-0.227278	0.967618	-0.109821	-0.954097	-0.198665	0.224122
42334	9.470786	-1.099155	2.175253	0.005562	-0.002634	0.002136	0.195032	0.155681	0.968362	-0.227302	0.967616	-0.109782	-0.954094	-0.198700	0.224103
42335	9.447625	-1.024524	2.222023	0.002475	0.001823	0.007259	0.195053	0.155703	0.968355	-0.227297	0.967616	-0.109800	-0.954091	-0.198687	0.224127
42336	9.523580	-1.074136	2.185207	0.003699	-0.001739	0.007895	0.195040	0.155724	0.968354	-0.227301	0.967612	-0.109823	-0.954093	-0.198688	0.224119
42337	9.470983	-1.059919	2.186574	0.005340	-0.000325	0.004655	0.195046	0.155716	0.968354	-0.227319	0.967609	-0.109810	-0.954088	-0.198707	0.224126
42338	9.499627	-1.081566	2.209295	0.001752	0.000124	0.006414	0.195050	0.155729	0.968351	-0.227306	0.967611	-0.109825	-0.954090	-0.198691	0.224131
42339	9.475350	-1.082746	2.160404	0.002670	-0.000163	0.002328	0.195064	0.155699	0.968353	-0.227293	0.967617	-0.109795	-0.954090	-0.198683	0.224136
42340	9.470826	-1.061211	2.186630	0.001780	-0.000198	0.008827	0.195062	0.155731	0.968348	-0.227287	0.967615	-0.109829	-0.954092	-0.198669	0.224141
42341	9.503906	-1.105049	2.183165	0.007036	0.000444	0.006243	0.195072	0.155740	0.968345	-0.227323	0.967606	-0.109827	-0.954081	-0.198703	0.224157
42342	9.427913	-1.056247	2.219804	0.004115	-0.006035	0.000446	0.195034	0.155680	0.968362	-0.227321	0.967613	-0.109775	-0.954090	-0.198719	0.224106
42343	9.556495	-1.120387	2.181258	-0.000861	-0.000356	0.008913	0.195030	0.155713	0.968358	-0.227287	0.967616	-0.109817	-0.954098	-0.198677	0.224106
42344	9.418177	-1.048255	2.187628	0.007981	-0.000165	0.004571	0.195042	0.155703	0.968357	-0.227330	0.967608	-0.109795	-0.954086	-0.198722	0.224120
42345	9.504216	-1.065948	2.193995	0.000084	-0.000965	0.007241	0.195036	0.155719	0.968355	-0.227302	0.967612	-0.109819	-0.954094	-0.198690	0.224115
42346	9.475056	-1.132472	2.221687	0.004394	0.000285	0.006329	0.195043	0.155730	0.968353	-0.227313	0.967609	-0.109826	-0.954090	-0.198699	0.224124
42347	9.466511	-1.001670	2.223683	0.004616	-0.002024	0.003811	0.195035	0.155710	0.968357	-0.227322	0.967609	-0.109806	-0.954089	-0.198713	0.224114
42348	9.498817	-1.126895	2.197513	0.000807	0.000736	0.008088	0.195042	0.155738	0.968351	-0.227304	0.967610	-0.109836	-0.954092	-0.198687	0.224125
42349	9.451469	-1.053162	2.195342	0.003643	-0.001093	0.003070	0.195045	0.155714	0.968355	-0.227302	0.967613	-0.109811	-0.954092	-0.198691	0.224122
42350	9.494700	-1.065013	2.234863	0.002975	-0.003436	0.007053	0.195016	0.155723	0.968359	-0.227303	0.967611	-0.109827	-0.954098	-0.198693	0.224096
42351	9.479737	-1.116078	2.206337	0.001029	-0.001573	0.005570	0.195008	0.155722	0.968361	-0.227281	0.967616	-0.109832	-0.954104	-0.198672	0.224085
42352	9.456262	-1.035908	2.180009	0.004394	0.000286	0.006330	0.195014	0.155731	0.968358	-0.227300	0.967611	-0.109836	-0.954099	-0.198688	0.224095
42353	9.479616	-1.117143	2.206322	0.002726	-0.000804	0.007158	0.195010	0.155747	0.968356	-0.227297	0.967610	-0.109853	-0.954100	-0.198682	0.224094
42354	9.504233	-1.029650	2.204843	0.004366	0.000608	0.003917	0.195028	0.155733	0.968355	-0.227302	0.967611	-0.109834	-0.954095	-0.198688	0.224110
42355	9.469830	-1.109055	2.174390	0.002002	-0.002504	0.006312	0.195010	0.155737	0.968358	-0.227290	0.967612	-0.109845	-0.954102	-0.198678	0.224092
42356	9.465360	-1.087323	2.200559	0.004338	0.000929	0.001502	0.195030	0.155702	0.968359	-0.227293	0.967616	-0.109805	-0.954097	-0.198686	0.224104
42357	9.489623	-1.040377	2.187656	0.000305	-0.003273	0.004725	0.195008	0.155689	0.968366	-0.227262	0.967623	-0.109804	-0.954109	-0.198660	0.224077
42358	9.498425	-1.131357	2.196913	0.002477	0.001829	0.007263	0.195031	0.155713	0.968358	-0.227253	0.967623	-0.109825	-0.954106	-0.198642	0.224103
42359	9.504058	-1.031722	2.204632	0.001029	-0.001572	0.005571	0.195024	0.155711	0.968359	-0.227230	0.967628	-0.109831	-0.954113	-0.198621	0.224093
42360	9.484171	-1.101482	2.191190	0.001753	0.000129	0.006417	0.195032	0.155722	0.968356	-0.227208	0.967631	-0.109845	-0.954117	-0.198595	0.224101
42361	9.475208	-1.057863	2.243756	0.005090	0.002309	0.004763	0.195064	0.155721	0.968350	-0.227223	0.967629	-0.109834	-0.954107	-0.198607	0.224133
42362	9.494133	-1.070526	2.234638	0.003670	-0.001412	0.005487	0.195058	0.155718	0.968351	-0.227227	0.967628	-0.109831	-0.954107	-0.198612	0.224127
42363	9.464998	-1.090490	2.200547	0.003670	-0.001412	0.005487	0.195052	0.155717	0.968353	-0.227230	0.967628	-0.109830	-0.954108	-0.198616	0.224121
42364	9.488846	-1.084435	2.176272	0.005588	-0.002954	0.004556	0.195036	0.155702	0.968358	-0.227248	0.967625	-0.109814	-0.954107	-0.198640	0.224105
42365	9.474604	-1.100344	2.232355	0.000559	0.003373	0.008195	0.195070	0.155736	0.968346	-0.227227	0.967627	-0.109846	-0.954105	-0.198607	0.224142
42366	9.465338	-1.051008	2.211633	0.004111	-0.006035	0.000450	0.195032	0.155676	0.968363	-0.227221	0.967634	-0.109795	-0.954114	-0.198619	0.224092
42367	9.488759	-1.085626	2.176061	0.002477	0.001831	0.007264	0.195053	0.155697	0.968356	-0.227216	0.967633	-0.109814	-0.954111	-0.198606	0.224117
42368	9.483813	-1.104836	2.191051	0.006312	-0.001253	0.005403	0.195050	0.155694	0.968357	-0.227244	0.967627	-0.109805	-0.954105	-0.198636	0.224117
42369	9.436112	-1.071820	2.177502	0.002725	-0.000800	0.007161	0.195046	0.155710	0.968355	-0.227241	0.967626	-0.109822	-0.954106	-0.198630	0.224116
42370	9.498295	-1.096012	2.207905	0.004614	-0.002022	0.003815	0.195038	0.155689	0.968360	-0.227252	0.967626	-0.109800	-0.954105	-0.198646	0.224104
42371	9.450625	-1.062821	2.194324	0.002697	-0.000480	0.004746	0.195043	0.155682	0.968360	-0.227244	0.967629	-0.109794	-0.954106	-0.198640	0.224107
42372	9.484134	-1.065591	2.202133	0.005311	-0.000002	0.002246	0.195055	0.155652	0.968363	-0.227256	0.967630	-0.109758	-0.954101	-0.198657	0.224114
42373	9.522096	-1.090440	2.183600	0.000303	-0.003270	0.004728	0.195034	0.155639	0.968369	-0.227225	0.967637	-0.109757	-0.954112	-0.198631	0.224087
42374	9.450511	-1.064013	2.194235	0.003230	0.003215	0.010526	0.195063	0.155695	0.968354	-0.227228	0.967631	-0.109807	-0.954106	-0.198618	0.224128
42375	9.469418	-1.076842	2.185084	0.002917	-0.002792	0.002228	0.195052	0.155659	0.968362	-0.227217	0.967637	-0.109775	-0.954111	-0.198617	0.224108
42376	9.464545	-1.095834	2.199841	0.003670	-0.001410	0.005489	0.195042	0.155657	0.968364	-0.227229	0.967635	-0.109773	-0.954110	-0.198630	0.224099
42377	9.488842	-1.049141	2.186858	0.004642	-0.002340	0.006232	0.195026	0.155661	0.968367	-0.227242	0.967631	-0.109777	-0.954110	-0.198645	0.224086
42378	9.464493	-1.096736	2.199616	0.002697	-0.000479	0.004747	0.195028	0.155654	0.968368	-0.227238	0.967633	-0.109771	-0.954111	-0.198642	0.224086
42379	9.498467	-1.058934	2.218620	0.003669	-0.001409	0.005490	0.195022	0.155652	0.968369	-0.227241	0.967632	-0.109769	-0.954111	-0.198646	0.224080
42380	9.478972	-1.087895	2.216521	0.001753	0.000134	0.006420	0.195030	0.155662	0.968366	-0.227226	0.967635	-0.109781	-0.954113	-0.198627	0.224088
42381	9.469291	-1.079252	2.184445	0.004833	-0.004334	0.001298	0.195006	0.155614	0.968379	-0.227231	0.967638	-0.109736	-0.954117	-0.198647	0.224055
42382	9.507650	-1.063524	2.177375	0.001286	0.005079	0.009042	0.195051	0.155662	0.968362	-0.227217	0.967637	-0.109778	-0.954111	-0.198616	0.224108
42383	9.459387	-1.117598	2.214417	0.004861	-0.004652	0.003715	0.195019	0.155636	0.968372	-0.227228	0.967637	-0.109757	-0.954115	-0.198637	0.224072
42384	9.502705	-1.083076	2.192150	0.002697	-0.000478	0.004748	0.195027	0.155629	0.968372	-0.227218	0.967640	-0.109750	-0.954115	-0.198627	0.224078
42385	9.464712	-1.058799	2.210598	0.004367	0.000611	0.003920	0.195045	0.155615	0.968371	-0.227225	0.967640	-0.109732	-0.954110	-0.198635	0.224093
42386	9.478757	-1.090153	2.216329	0.003669	-0.001408	0.005491	0.195040	0.155615	0.968371	-0.227222	0.967641	-0.109732	-0.954112	-0.198633	0.224088
42387	9.488010	-1.093944	2.175159	0.002697	-0.000477	0.004748	0.195045	0.155608	0.968372	-0.227214	0.967643	-0.109726	-0.954113	-0.198626	0.224091
42388	9.454456	-1.091745	2.167256	0.005586	-0.002951	0.004561	0.195030	0.155594	0.968377	-0.227228	0.967642	-0.109713	-0.954113	-0.198645	0.224074
42389	9.502995	-1.044368	2.203260	0.002506	0.001520	0.009684	0.195042	0.155639	0.968367	-0.227228	0.967637	-0.109754	-0.954110	-0.198633	0.224096
42390	9.482980	-1.113996	2.190017	0.003614	-0.000772	0.000659	0.195214	0.155764	0.968312	-0.227354	0.967601	-0.109815	-0.954045	-0.198712	0.224303
42391	9.479020	-1.051441	2.227561	0.005120	0.001995	0.007183	0.195237	0.155786	0.968304	-0.227374	0.967595	-0.109827	-0.954036	-0.198725	0.224332
42392	9.487777	-1.096001	2.175138	0.001246	-0.003879	0.003058	0.195213	0.155756	0.968314	-0.227347	0.967603	-0.109809	-0.954047	-0.198707	0.224299
42393	9.464382	-1.062061	2.210444	0.002478	0.001838	0.007268	0.195234	0.155778	0.968306	-0.227341	0.967602	-0.109827	-0.954044	-0.198694	0.224324
42394	9.473617	-1.065922	2.169319	0.005585	-0.002950	0.004563	0.195217	0.155765	0.968312	-0.227367	0.967598	-0.109811	-0.954041	-0.198725	0.224307
42395	9.478399	-1.093908	2.216012	0.003669	-0.001406	0.005493	0.195211	0.155763	0.968313	-0.227370	0.967597	-0.109810	-0.954042	-0.198729	0.224302
42396	9.468649	-1.085543	2.184111	0.003450	0.000909	0.008012	0.195223	0.155789	0.968307	-0.227377	0.967593	-0.109832	-0.954038	-0.198729	0.224319
42397	9.497743	-1.066477	2.218105	0.003641	-0.001089	0.003076	0.195226	0.155765	0.968310	-0.227375	0.967596	-0.109808	-0.954037	-0.198732	0.224317
42398	9.474053	-1.026631	2.180152	0.004106	-0.006035	0.000456	0.195182	0.155706	0.968328	-0.227375	0.967602	-0.109758	-0.954047	-0.198750	0.224262
42399	9.425833	-1.080401	2.217015	0.002479	0.001840	0.007269	0.195204	0.155728	0.968320	-0.227370	0.967601	-0.109777	-0.954043	-0.198738	0.224287
42400	9.492936	-1.039877	2.170867	0.002725	-0.000792	0.007167	0.195200	0.155742	0.968319	-0.227374	0.967599	-0.109791	-0.954043	-0.198740	0.224287
42401	9.463605	-1.106292	2.198653	0.002725	-0.000791	0.007167	0.195196	0.155758	0.968317	-0.227371	0.967597	-0.109808	-0.954044	-0.198733	0.224286
42402	9.492836	-1.041030	2.170749	0.003669	-0.001405	0.005494	0.195191	0.155756	0.968319	-0.227372	0.967597	-0.109806	-0.954045	-0.198736	0.224280
42403	9.483019	-1.078713	2.200547	0.003641	-0.001089	0.003077	0.195194	0.155731	0.968322	-0.227370	0.967600	-0.109782	-0.954045	-0.198739	0.224278
42404	9.468943	-1.048064	2.194703	0.001027	-0.001562	0.005579	0.195185	0.155730	0.968324	-0.227351	0.967604	-0.109787	-0.954051	-0.198721	0.224268
42405	9.478037	-1.098205	2.215433	0.002451	0.002157	0.004852	0.195215	0.155729	0.968318	-0.227341	0.967607	-0.109782	-0.954048	-0.198707	0.224295
42406	9.468291	-1.089674	2.183606	0.006310	-0.001247	0.005411	0.195211	0.155727	0.968319	-0.227361	0.967603	-0.109776	-0.954044	-0.198729	0.224293
42407	9.483342	-1.039741	2.211791	0.001780	-0.000176	0.008842	0.195210	0.155760	0.968314	-0.227353	0.967601	-0.109811	-0.954046	-0.198713	0.224298
42408	9.444303	-1.097226	2.207691	0.000055	-0.000631	0.004835	0.195213	0.155753	0.968314	-0.227318	0.967609	-0.109812	-0.954054	-0.198678	0.224296
42409	9.501645	-1.093952	2.191345	0.004394	0.000298	0.006341	0.195222	0.155763	0.968311	-0.227329	0.967606	-0.109818	-0.954049	-0.198687	0.224307
42410	9.458761	-1.088511	2.224693	0.002724	-0.000789	0.007169	0.195216	0.155778	0.968310	-0.227334	0.967603	-0.109833	-0.954049	-0.198689	0.224305
42411	9.487509	-1.064003	2.185458	0.002942	-0.003105	0.004651	0.195196	0.155765	0.968316	-0.227328	0.967605	-0.109825	-0.954055	-0.198688	0.224282
42412	9.458736	-1.089447	2.224340	0.001026	-0.001560	0.005580	0.195186	0.155764	0.968318	-0.227300	0.967611	-0.109833	-0.954063	-0.198661	0.224269
42413	9.483154	-1.042497	2.211300	0.008170	-0.002160	-0.000353	0.195187	0.155705	0.968328	-0.227335	0.967611	-0.109765	-0.954055	-0.198710	0.224262
42414	9.510724	-1.099521	2.150005	-0.000597	0.006319	0.012394	0.195236	0.155785	0.968305	-0.227313	0.967607	-0.109841	-0.954050	-0.198664	0.224323
42415	9.482392	-1.084435	2.200437	0.007498	-0.004492	0.003638	0.195205	0.155760	0.968315	-0.227349	0.967602	-0.109813	-0.954048	-0.198710	0.224292
42416	9.477629	-1.057283	2.153352	0.000082	-0.000944	0.007255	0.195200	0.155776	0.968313	-0.227329	0.967604	-0.109835	-0.954054	-0.198686	0.224289
42417	9.501321	-1.097748	2.190852	0.002941	-0.003104	0.004652	0.195181	0.155762	0.968320	-0.227323	0.967606	-0.109827	-0.954059	-0.198685	0.224266
42418	9.468310	-1.054823	2.194197	0.004395	0.000299	0.006343	0.195188	0.155772	0.968316	-0.227342	0.967602	-0.109830	-0.954053	-0.198701	0.224278
42419	9.487216	-1.067532	2.185009	0.003640	-0.001087	0.003079	0.195191	0.155747	0.968320	-0.227339	0.967605	-0.109806	-0.954053	-0.198704	0.224276
42420	9.482254	-1.086565	2.199981	0.000782	0.001073	0.005682	0.195210	0.155752	0.968315	-0.227316	0.967610	-0.109812	-0.954055	-0.198677	0.224292
42421	9.496797	-1.077148	2.216999	0.006282	-0.000931	0.002995	0.195215	0.155727	0.968318	-0.227339	0.967608	-0.109781	-0.954048	-0.198706	0.224295
42422	9.477235	-1.106035	2.214969	0.001780	-0.000171	0.008846	0.195213	0.155760	0.968313	-0.227331	0.967606	-0.109816	-0.954051	-0.198690	0.224299
42423	9.477726	-1.065770	2.226257	0.007009	0.000771	0.003841	0.195232	0.155746	0.968312	-0.227362	0.967601	-0.109791	-0.954039	-0.198723	0.224318
42424	9.482047	-1.088284	2.200023	0.002968	-0.003417	0.007072	0.195202	0.155756	0.968316	-0.227365	0.967599	-0.109806	-0.954045	-0.198727	0.224291
42425	9.453437	-1.067504	2.177014	0.002941	-0.003103	0.004653	0.195182	0.155743	0.968322	-0.227359	0.967601	-0.109799	-0.954050	-0.198726	0.224268
42426	9.520508	-1.073134	2.192393	0.003668	-0.001401	0.005499	0.195176	0.155742	0.968324	-0.227359	0.967601	-0.109799	-0.954051	-0.198727	0.224262
42427	9.463096	-1.077206	2.208621	0.001969	-0.002173	0.003909	0.195167	0.155723	0.968329	-0.227343	0.967606	-0.109786	-0.954057	-0.198716	0.224247
42428	9.496607	-1.080292	2.216284	0.002724	-0.000784	0.007173	0.195164	0.155740	0.968326	-0.227334	0.967606	-0.109806	-0.954060	-0.198703	0.224247
42429	9.510177	-1.106244	2.148979	0.006282	-0.000930	0.002997	0.195169	0.155715	0.968329	-0.227357	0.967604	-0.109774	-0.954053	-0.198732	0.224249
42430	9.444088	-1.066069	2.217508	0.002968	-0.003415	0.007074	0.195139	0.155725	0.968334	-0.227358	0.967602	-0.109790	-0.954059	-0.198734	0.224222
42431	9.529674	-1.078745	2.150639	0.003667	-0.001400	0.005500	0.195133	0.155723	0.968335	-0.227361	0.967602	-0.109789	-0.954060	-0.198738	0.224217
42432	9.462979	-1.079404	2.208050	0.000055	-0.000626	0.004839	0.195138	0.155718	0.968335	-0.227326	0.967610	-0.109791	-0.954067	-0.198704	0.224216
42433	9.486769	-1.073688	2.183934	0.003451	0.000919	0.008019	0.195149	0.155745	0.968329	-0.227332	0.967606	-0.109814	-0.954063	-0.198702	0.224233
42434	9.458521	-1.058327	2.234230	0.004611	-0.002016	0.003826	0.195141	0.155727	0.968333	-0.227332	0.967608	-0.109798	-0.954065	-0.198707	0.224221
42435	9.520249	-1.077197	2.191523	0.001997	-0.002485	0.006330	0.195123	0.155731	0.968336	-0.227321	0.967609	-0.109808	-0.954071	-0.198697	0.224204
42436	9.476787	-1.112474	2.213662	0.002481	0.001849	0.007275	0.195147	0.155754	0.968328	-0.227316	0.967608	-0.109828	-0.954068	-0.198684	0.224231
42437	9.463305	-1.041013	2.219252	0.004340	0.000929	0.001507	0.195173	0.155719	0.968328	-0.227318	0.967612	-0.109786	-0.954062	-0.198691	0.224249
42438	9.490875	-1.097895	2.157723	0.008250	-0.003101	0.006909	0.195148	0.155726	0.968332	-0.227369	0.967600	-0.109787	-0.954055	-0.198744	0.224232
42439	9.448620	-1.051571	2.202249	0.002481	0.001850	0.007275	0.195169	0.155748	0.968324	-0.227364	0.967599	-0.109805	-0.954052	-0.198732	0.224257
42440	9.519941	-1.079475	2.191742	0.002696	-0.000469	0.004756	0.195173	0.155741	0.968324	-0.227352	0.967603	-0.109801	-0.954054	-0.198720	0.224258
42441	9.471773	-1.086890	2.166965	0.003640	-0.001085	0.003082	0.195176	0.155717	0.968328	-0.227350	0.967606	-0.109776	-0.954054	-0.198724	0.224256
42442	9.458157	-1.061732	2.234152	0.000082	-0.000937	0.007260	0.195169	0.155734	0.968326	-0.227319	0.967610	-0.109802	-0.954062	-0.198689	0.224249
42443	9.500281	-1.109107	2.189638	0.004367	0.000617	0.003927	0.195187	0.155721	0.968325	-0.227325	0.967611	-0.109784	-0.954057	-0.198696	0.224264
42444	9.453336	-1.034939	2.187267	0.000998	-0.001241	0.003166	0.195189	0.155696	0.968329	-0.227297	0.967620	-0.109765	-0.954064	-0.198673	0.224258
42445	9.519767	-1.081502	2.191497	0.001053	-0.001865	0.008006	0.195173	0.155717	0.968328	-0.227280	0.967620	-0.109794	-0.954071	-0.198653	0.224245
42446	9.443400	-1.073290	2.216955	0.006308	-0.001241	0.005419	0.195168	0.155715	0.968330	-0.227312	0.967614	-0.109785	-0.954064	-0.198687	0.224244
42447	9.486696	-1.039244	2.195018	0.001296	0.005100	0.009050	0.195217	0.155761	0.968312	-0.227300	0.967612	-0.109823	-0.954057	-0.198658	0.224299
42448	9.451824	-1.118642	2.165019	0.002911	-0.002787	0.002238	0.195207	0.155724	0.968320	-0.227292	0.967618	-0.109791	-0.954061	-0.198659	0.224281
42449	9.448760	-1.015189	2.213416	0.005338	-0.000312	0.004674	0.195214	0.155717	0.968320	-0.227309	0.967615	-0.109778	-0.954056	-0.198678	0.224288
42450	9.489606	-1.144079	2.146604	0.004395	0.000306	0.006349	0.195221	0.155728	0.968317	-0.227322	0.967611	-0.109784	-0.954051	-0.198688	0.224298
42451	9.471885	-1.050579	2.178166	0.002696	-0.000467	0.004758	0.195226	0.155721	0.968317	-0.227315	0.967614	-0.109778	-0.954052	-0.198681	0.224301
42452	9.485844	-1.082146	2.183777	0.000324	-0.003565	0.007162	0.195197	0.155731	0.968321	-0.227287	0.967618	-0.109801	-0.954064	-0.198654	0.224271
42453	9.447325	-1.098722	2.190846	0.004395	0.000306	0.006349	0.195206	0.155741	0.968318	-0.227299	0.967615	-0.109806	-0.954060	-0.198663	0.224283
42454	9.486394	-1.042430	2.194810	0.003666	-0.001396	0.005504	0.195196	0.155739	0.968320	-0.227306	0.967613	-0.109805	-0.954060	-0.198671	0.224274
42455	9.461249	-1.130525	2.196466	0.002911	-0.002787	0.002239	0.195184	0.155704	0.968328	-0.227295	0.967619	-0.109774	-0.954065	-0.198670	0.224255
42456	9.481396	-1.061812	2.209648	0.004180	0.002627	0.008869	0.195209	0.155742	0.968317	-0.227311	0.967612	-0.109804	-0.954056	-0.198674	0.224288
42457	9.489888	-1.106759	2.157533	0.001753	0.000152	0.006433	0.195216	0.155752	0.968314	-0.227297	0.967614	-0.109816	-0.954058	-0.198657	0.224296
42458	9.462316	-1.050575	2.218964	0.003666	-0.001395	0.005505	0.195214	0.155752	0.968314	-0.227297	0.967614	-0.109816	-0.954059	-0.198657	0.224294
42459	9.533641	-1.078545	2.208325	0.005365	-0.000621	0.007097	0.195213	0.155767	0.968312	-0.227319	0.967608	-0.109826	-0.954054	-0.198676	0.224298
42460	9.451907	-1.083455	2.175777	0.003666	-0.001394	0.005506	0.195209	0.155767	0.968313	-0.227321	0.967607	-0.109826	-0.954054	-0.198679	0.224295
42461	9.466462	-1.074138	2.192801	0.002455	0.002166	0.004858	0.195239	0.155766	0.968307	-0.227311	0.967610	-0.109821	-0.954050	-0.198665	0.224323
42462	9.470659	-1.096824	2.166827	0.007063	0.000153	0.008690	0.195244	0.155798	0.968301	-0.227356	0.967597	-0.109841	-0.954038	-0.198703	0.224339
42463	9.499849	-1.077983	2.200635	0.002964	-0.003406	0.007083	0.195216	0.155807	0.968305	-0.227355	0.967595	-0.109857	-0.954044	-0.198703	0.224313
42464	9.490162	-1.069559	2.168571	0.005337	-0.000310	0.004677	0.195222	0.155800	0.968305	-0.227371	0.967593	-0.109845	-0.954039	-0.198720	0.224320
42465	9.499790	-1.078835	2.200471	0.003666	-0.001393	0.005507	0.195217	0.155798	0.968306	-0.227373	0.967593	-0.109843	-0.954040	-0.198724	0.224315
42466	9.447317	-1.064218	2.201764	0.001024	-0.001548	0.005590	0.195209	0.155798	0.968308	-0.227347	0.967598	-0.109851	-0.954048	-0.198698	0.224304
42467	9.533245	-1.082496	2.208099	0.004395	0.000310	0.006352	0.195218	0.155808	0.968305	-0.227358	0.967595	-0.109857	-0.954043	-0.198706	0.224316
42468	9.456423	-1.068813	2.160744	0.006094	0.001084	0.007945	0.195230	0.155836	0.968298	-0.227385	0.967586	-0.109876	-0.954034	-0.198725	0.224337
42469	9.499561	-1.080831	2.200481	0.000997	-0.001238	0.003169	0.195232	0.155812	0.968301	-0.227358	0.967595	-0.109858	-0.954040	-0.198703	0.224330
42470	9.465329	-1.119295	2.181464	0.003665	-0.001392	0.005508	0.195226	0.155810	0.968303	-0.227366	0.967593	-0.109855	-0.954040	-0.198713	0.224325
42471	9.466708	-1.038067	2.203513	0.004849	-0.004643	0.003735	0.195194	0.155785	0.968313	-0.227377	0.967593	-0.109834	-0.954044	-0.198733	0.224290
42472	9.532379	-1.125452	2.196677	0.002482	0.001859	0.007281	0.195216	0.155810	0.968305	-0.227360	0.967594	-0.109859	-0.954043	-0.198707	0.224315
42473	9.451998	-1.048694	2.186500	0.004608	-0.002011	0.003834	0.195208	0.155791	0.968309	-0.227368	0.967594	-0.109840	-0.954043	-0.198721	0.224305
42474	9.499443	-1.082873	2.199987	0.002723	-0.000772	0.007183	0.195205	0.155810	0.968307	-0.227357	0.967595	-0.109861	-0.954046	-0.198706	0.224303
42475	9.484761	-1.093085	2.183031	0.005337	-0.000308	0.004679	0.195211	0.155802	0.968307	-0.227374	0.967592	-0.109848	-0.954041	-0.198724	0.224310
42476	9.470806	-1.062363	2.177143	0.001966	-0.002166	0.003917	0.195205	0.155784	0.968311	-0.227355	0.967598	-0.109837	-0.954047	-0.198710	0.224298
42477	9.494367	-1.102713	2.214836	0.004395	0.000312	0.006354	0.195213	0.155794	0.968308	-0.227366	0.967595	-0.109842	-0.954042	-0.198718	0.224310
42478	9.451817	-1.050789	2.186278	0.006307	-0.001236	0.005427	0.195209	0.155793	0.968309	-0.227396	0.967588	-0.109834	-0.954036	-0.198749	0.224309
42479	9.494938	-1.062904	2.226038	-0.000159	0.001706	0.007365	0.195229	0.155815	0.968301	-0.227366	0.967593	-0.109860	-0.954039	-0.198711	0.224330
42480	9.479556	-1.113798	2.197986	0.004581	-0.001702	0.001413	0.195232	0.155774	0.968307	-0.227366	0.967597	-0.109818	-0.954038	-0.198720	0.224324
42481	9.475561	-1.045724	2.162126	0.002696	-0.000462	0.004762	0.195237	0.155767	0.968307	-0.227358	0.967600	-0.109812	-0.954039	-0.198713	0.224326
42482	9.479503	-1.114403	2.197910	0.002696	-0.000462	0.004763	0.195244	0.155760	0.968307	-0.227345	0.967604	-0.109807	-0.954041	-0.198701	0.224330
42483	9.471232	-1.024246	2.188189	0.003638	-0.001082	0.003088	0.195247	0.155736	0.968310	-0.227343	0.967607	-0.109782	-0.954041	-0.198704	0.224328
42484	9.479448	-1.114975	2.197857	0.005337	-0.000307	0.004681	0.195252	0.155728	0.968311	-0.227358	0.967605	-0.109770	-0.954036	-0.198720	0.224333
42485	9.508993	-1.049781	2.169682	0.000294	-0.003247	0.004748	0.195231	0.155716	0.968317	-0.227327	0.967612	-0.109769	-0.954048	-0.198694	0.224306
42486	9.456237	-1.081330	2.232883	0.004422	0.000006	0.008778	0.195228	0.155749	0.968312	-0.227349	0.967604	-0.109797	-0.954043	-0.198710	0.224312
42487	9.503894	-1.069444	2.184701	0.002429	0.002478	0.002438	0.195266	0.155725	0.968308	-0.227334	0.967610	-0.109769	-0.954039	-0.198696	0.224343
42488	9.475269	-1.048492	2.162066	0.005364	-0.000614	0.007104	0.195260	0.155742	0.968307	-0.227354	0.967604	-0.109783	-0.954036	-0.198712	0.224343
42489	9.479882	-1.076543	2.209016	0.001753	0.000160	0.006439	0.195267	0.155753	0.968304	-0.227340	0.967606	-0.109795	-0.954037	-0.198695	0.224350
42490	9.484827	-1.058350	2.193966	0.004607	-0.002009	0.003837	0.195257	0.155733	0.968309	-0.227352	0.967606	-0.109775	-0.954036	-0.198713	0.224338
42491	9.503715	-1.071209	2.184616	0.001992	-0.002471	0.006342	0.195240	0.155737	0.968312	-0.227340	0.967607	-0.109785	-0.954043	-0.198702	0.224321
42492	9.503700	-1.071735	2.184425	0.004634	-0.002316	0.006260	0.195222	0.155743	0.968314	-0.227349	0.967604	-0.109793	-0.954045	-0.198711	0.224305
42493	9.455907	-1.084549	2.232720	0.004395	0.000315	0.006357	0.195231	0.155753	0.968311	-0.227360	0.967601	-0.109798	-0.954040	-0.198719	0.224318
42494	9.499353	-1.050525	2.210481	0.003665	-0.001388	0.005513	0.195226	0.155752	0.968312	-0.227365	0.967600	-0.109797	-0.954040	-0.198725	0.224313
42495	9.493638	-1.110221	2.214208	0.002907	-0.002784	0.002245	0.195215	0.155716	0.968320	-0.227354	0.967606	-0.109766	-0.954045	-0.198723	0.224294
42496	9.466552	-1.007658	2.213540	0.005364	-0.000612	0.007106	0.195212	0.155732	0.968318	-0.227375	0.967600	-0.109777	-0.954040	-0.198742	0.224297
42497	9.503211	-1.120008	2.246051	0.001753	0.000162	0.006440	0.195219	0.155742	0.968315	-0.227362	0.967602	-0.109790	-0.954042	-0.198725	0.224304
42498	9.489572	-1.043343	2.178267	0.006306	-0.001233	0.005431	0.195214	0.155739	0.968317	-0.227402	0.967593	-0.109778	-0.954033	-0.198767	0.224303
42499	9.479586	-1.080902	2.208156	0.001965	-0.002162	0.003920	0.195205	0.155720	0.968321	-0.227386	0.967599	-0.109765	-0.954039	-0.198756	0.224288
42500	9.455688	-1.087379	2.232270	0.001726	0.000469	0.004017	0.195224	0.155709	0.968319	-0.227364	0.967605	-0.109755	-0.954040	-0.198735	0.224302
42501	9.479497	-1.081662	2.208166	0.004395	0.000317	0.006359	0.195233	0.155719	0.968316	-0.227376	0.967602	-0.109761	-0.954036	-0.198743	0.224314
42502	9.502569	-1.116828	2.172863	0.001023	-0.001540	0.005596	0.195226	0.155718	0.968317	-0.227354	0.967606	-0.109766	-0.954042	-0.198721	0.224305
42503	9.466298	-1.010586	2.213295	0.000969	-0.000928	0.000749	0.195236	0.155671	0.968323	-0.227322	0.967618	-0.109725	-0.954048	-0.198699	0.224301
42504	9.512906	-1.085638	2.215846	0.002511	0.001561	0.009710	0.195249	0.155715	0.968313	-0.227331	0.967612	-0.109764	-0.954043	-0.198696	0.224324
42505	9.498183	-1.095910	2.198968	0.003637	-0.001080	0.003091	0.195252	0.155691	0.968317	-0.227329	0.967615	-0.109739	-0.954043	-0.198699	0.224322
42506	9.441493	-1.058867	2.226481	0.004395	0.000318	0.006360	0.195261	0.155702	0.968313	-0.227336	0.967613	-0.109747	-0.954040	-0.198703	0.224333
42507	9.531617	-1.099484	2.206735	0.003664	-0.001386	0.005515	0.195255	0.155701	0.968314	-0.227338	0.967612	-0.109746	-0.954040	-0.198707	0.224328
42508	9.446455	-1.041084	2.211225	0.004844	-0.004639	0.003744	0.195222	0.155674	0.968325	-0.227356	0.967610	-0.109723	-0.954043	-0.198735	0.224292
42509	9.498129	-1.097356	2.198483	0.000996	-0.001233	0.003173	0.195223	0.155651	0.968329	-0.227329	0.967619	-0.109705	-0.954049	-0.198712	0.224286
42510	9.465346	-1.054144	2.201731	0.006306	-0.001231	0.005434	0.195223	0.155649	0.968329	-0.227353	0.967614	-0.109698	-0.954043	-0.198736	0.224288
42511	9.484164	-1.067206	2.192541	0.001780	-0.000140	0.008866	0.195222	0.155683	0.968324	-0.227344	0.967612	-0.109734	-0.954046	-0.198720	0.224292
42512	9.479109	-1.086283	2.207563	0.002668	-0.000152	0.002343	0.195232	0.155653	0.968327	-0.227331	0.967618	-0.109705	-0.954047	-0.198713	0.224295
42513	9.474860	-1.064378	2.233622	0.003664	-0.001385	0.005516	0.195227	0.155652	0.968328	-0.227334	0.967618	-0.109704	-0.954047	-0.198717	0.224290
42514	9.516784	-1.112048	2.189162	0.001753	0.000166	0.006443	0.195235	0.155663	0.968325	-0.227320	0.967620	-0.109717	-0.954049	-0.198699	0.224298
42515	9.435773	-1.076020	2.167846	0.004395	0.000319	0.006361	0.195244	0.155673	0.968321	-0.227332	0.967616	-0.109722	-0.954044	-0.198708	0.224311
42516	9.507790	-1.063463	2.168292	0.001991	-0.002465	0.006347	0.195226	0.155676	0.968324	-0.227317	0.967619	-0.109733	-0.954051	-0.198694	0.224292
42517	9.449973	-1.113309	2.246713	0.005099	0.002328	0.004782	0.195258	0.155675	0.968318	-0.227332	0.967616	-0.109722	-0.954041	-0.198706	0.224325
42518	9.503463	-1.042147	2.194430	0.005601	-0.003239	0.007016	0.195228	0.155684	0.968323	-0.227356	0.967610	-0.109732	-0.954042	-0.198731	0.224300
42519	9.477958	-1.130527	2.196336	0.001780	-0.000137	0.008868	0.195227	0.155718	0.968317	-0.227348	0.967607	-0.109767	-0.954044	-0.198715	0.224305
42520	9.474837	-1.021926	2.171559	0.005310	0.000002	0.002262	0.195243	0.155687	0.968319	-0.227354	0.967610	-0.109732	-0.954039	-0.198727	0.224315
42521	9.478656	-1.090419	2.207467	0.002695	-0.000455	0.004768	0.195248	0.155681	0.968319	-0.227347	0.967612	-0.109726	-0.954040	-0.198720	0.224318
42522	9.493266	-1.081025	2.224441	0.004368	0.000625	0.003938	0.195268	0.155668	0.968317	-0.227352	0.967613	-0.109708	-0.954034	-0.198727	0.224336
42523	9.488588	-1.054001	2.177423	0.001990	-0.002463	0.006349	0.195251	0.155673	0.968320	-0.227341	0.967615	-0.109719	-0.954041	-0.198716	0.224318
42524	9.473547	-1.110313	2.222269	0.001990	-0.002463	0.006349	0.195238	0.155677	0.968322	-0.227323	0.967618	-0.109729	-0.954047	-0.198698	0.224305
42525	9.503180	-1.045317	2.194146	0.002458	0.002176	0.004864	0.195268	0.155676	0.968316	-0.227313	0.967620	-0.109725	-0.954044	-0.198685	0.224333
42526	9.463771	-1.102362	2.190406	0.003663	-0.001382	0.005519	0.195263	0.155674	0.968317	-0.227315	0.967620	-0.109723	-0.954044	-0.198688	0.224327
42527	9.464580	-1.061820	2.201333	0.005546	-0.002629	0.002168	0.195253	0.155638	0.968325	-0.227329	0.967621	-0.109686	-0.954043	-0.198712	0.224312
42528	9.502277	-1.087231	2.182955	0.000812	0.000793	0.008121	0.195263	0.155666	0.968318	-0.227306	0.967623	-0.109718	-0.954046	-0.198681	0.224325
42529	9.454839	-1.053865	2.169344	0.003636	-0.001078	0.003094	0.195266	0.155642	0.968322	-0.227304	0.967626	-0.109693	-0.954046	-0.198684	0.224323
42530	9.497992	-1.065761	2.209034	0.005336	-0.000301	0.004688	0.195275	0.155635	0.968321	-0.227316	0.967625	-0.109682	-0.954042	-0.198697	0.224331
42531	9.507154	-1.069885	2.167918	0.002722	-0.000757	0.007195	0.195271	0.155651	0.968319	-0.227313	0.967623	-0.109700	-0.954043	-0.198691	0.224331
42532	9.493716	-1.044485	2.234997	0.001963	-0.002158	0.003925	0.195262	0.155632	0.968324	-0.227300	0.967628	-0.109685	-0.954048	-0.198683	0.224316
42533	9.463529	-1.105161	2.190041	0.004395	0.000323	0.006365	0.195271	0.155642	0.968321	-0.227312	0.967625	-0.109691	-0.954043	-0.198691	0.224328
42534	9.516689	-1.080144	2.199670	0.001021	-0.001533	0.005601	0.195262	0.155642	0.968322	-0.227290	0.967629	-0.109698	-0.954050	-0.198671	0.224317
42535	9.487358	-1.099893	2.165666	0.005546	-0.002629	0.002169	0.195252	0.155606	0.968330	-0.227305	0.967630	-0.109660	-0.954049	-0.198694	0.224302
42536	9.488164	-1.059415	2.176643	0.001754	0.000171	0.006446	0.195261	0.155618	0.968326	-0.227282	0.967633	-0.109676	-0.954052	-0.198668	0.224310
42537	9.478058	-1.097163	2.206695	0.002722	-0.000756	0.007197	0.195258	0.155634	0.968325	-0.227279	0.967632	-0.109694	-0.954054	-0.198661	0.224310
42538	9.488064	-1.060433	2.176586	0.003636	-0.001077	0.003095	0.195264	0.155610	0.968327	-0.227274	0.967636	-0.109669	-0.954054	-0.198661	0.224311
42539	9.496837	-1.110484	2.197469	0.001754	0.000172	0.006447	0.195271	0.155621	0.968324	-0.227260	0.967638	-0.109682	-0.954055	-0.198644	0.224319
42540	9.464121	-1.067356	2.200631	0.006540	-0.003858	0.005346	0.195246	0.155613	0.968330	-0.227288	0.967632	-0.109673	-0.954054	-0.198676	0.224295
42541	9.506833	-1.074246	2.167172	0.004395	0.000325	0.006366	0.195255	0.155623	0.968327	-0.227299	0.967629	-0.109678	-0.954050	-0.198684	0.224308
42542	9.459021	-1.086834	2.215547	0.003663	-0.001379	0.005522	0.195252	0.155623	0.968327	-0.227295	0.967630	-0.109680	-0.954051	-0.198681	0.224304
42543	9.493383	-1.049061	2.234265	0.000968	-0.000927	0.000750	0.195262	0.155577	0.968333	-0.227263	0.967642	-0.109639	-0.954057	-0.198658	0.224300
42544	9.477795	-1.099995	2.206414	0.004186	0.002654	0.008887	0.195287	0.155616	0.968322	-0.227281	0.967634	-0.109668	-0.954047	-0.198664	0.224335
42545	9.454251	-1.060595	2.168629	0.005572	-0.002930	0.004597	0.195269	0.155602	0.968327	-0.227300	0.967632	-0.109654	-0.954046	-0.198689	0.224317
42546	9.497419	-1.072613	2.208182	0.003663	-0.001378	0.005523	0.195265	0.155600	0.968329	-0.227299	0.967632	-0.109653	-0.954048	-0.198688	0.224312
42547	9.463862	-1.070259	2.200333	0.003663	-0.001378	0.005523	0.195259	0.155599	0.968330	-0.227301	0.967631	-0.109652	-0.954048	-0.198692	0.224307
42548	9.482689	-1.083117	2.191116	0.000027	-0.000302	0.002427	0.195270	0.155567	0.968333	-0.227270	0.967642	-0.109626	-0.954053	-0.198666	0.224307
42549	9.496509	-1.114510	2.196849	0.002930	-0.003082	0.004679	0.195251	0.155554	0.968339	-0.227264	0.967644	-0.109618	-0.954059	-0.198665	0.224285
42550	9.449954	-1.040233	2.194321	0.003193	0.003884	0.005711	0.195298	0.155566	0.968327	-0.227257	0.967645	-0.109622	-0.954051	-0.198651	0.224332
42551	9.506872	-1.083506	2.239965	0.002956	-0.003383	0.007106	0.195270	0.155576	0.968332	-0.227257	0.967644	-0.109638	-0.954057	-0.198651	0.224307
42552	9.482524	-1.084856	2.190970	0.005336	-0.000299	0.004692	0.195272	0.155570	0.968332	-0.227277	0.967640	-0.109626	-0.954051	-0.198672	0.224311
42553	9.482487	-1.085241	2.190939	0.003662	-0.001377	0.005524	0.195267	0.155569	0.968333	-0.227279	0.967640	-0.109626	-0.954052	-0.198676	0.224306
42554	9.497138	-1.075963	2.207761	0.003662	-0.001377	0.005524	0.195257	0.155567	0.968335	-0.227284	0.967638	-0.109625	-0.954053	-0.198682	0.224296
42555	9.468623	-1.055061	2.184835	0.004630	-0.002303	0.006275	0.195241	0.155571	0.968338	-0.227298	0.967635	-0.109630	-0.954053	-0.198697	0.224283
42556	9.477352	-1.105246	2.205694	0.001754	0.000176	0.006450	0.195254	0.155583	0.968334	-0.227282	0.967637	-0.109643	-0.954054	-0.198676	0.224296
42557	9.459340	-1.052290	2.225861	0.003636	-0.001076	0.003097	0.195257	0.155559	0.968337	-0.227280	0.967640	-0.109618	-0.954054	-0.198679	0.224294
42558	9.496962	-1.077752	2.207643	0.005128	0.002033	0.007214	0.195283	0.155581	0.968328	-0.227296	0.967635	-0.109631	-0.954044	-0.198688	0.224326
42559	9.463374	-1.075526	2.199867	0.002955	-0.003381	0.007108	0.195255	0.155591	0.968332	-0.227296	0.967633	-0.109647	-0.954050	-0.198688	0.224301
42560	9.492733	-1.056635	2.233457	0.004630	-0.002302	0.006276	0.195237	0.155595	0.968335	-0.227309	0.967630	-0.109651	-0.954051	-0.198704	0.224285
42561	9.463335	-1.076518	2.199548	0.002695	-0.000449	0.004774	0.195242	0.155588	0.968335	-0.227302	0.967632	-0.109645	-0.954052	-0.198697	0.224288
42562	9.463299	-1.076936	2.199496	0.003662	-0.001375	0.005526	0.195241	0.155587	0.968336	-0.227302	0.967632	-0.109644	-0.954052	-0.198697	0.224286
42563	9.515635	-1.092745	2.198005	0.003662	-0.001375	0.005526	0.195236	0.155586	0.968337	-0.227305	0.967632	-0.109643	-0.954052	-0.198701	0.224281
42564	9.468294	-1.059153	2.184282	0.003635	-0.001075	0.003098	0.195236	0.155561	0.968341	-0.227303	0.967635	-0.109619	-0.954053	-0.198705	0.224276
42565	9.458176	-1.096667	2.214307	0.006330	-0.001523	0.007873	0.195224	0.155582	0.968340	-0.227336	0.967625	-0.109635	-0.954047	-0.198735	0.224273
42566	9.463180	-1.078640	2.199176	0.003662	-0.001374	0.005527	0.195219	0.155581	0.968341	-0.227340	0.967624	-0.109634	-0.954047	-0.198740	0.224269
42567	9.486987	-1.073178	2.175032	0.002488	0.001883	0.007296	0.195241	0.155603	0.968333	-0.227335	0.967623	-0.109653	-0.954044	-0.198728	0.224294
42568	9.482822	-1.051238	2.201012	0.004809	-0.004332	0.001330	0.195216	0.155556	0.968346	-0.227338	0.967627	-0.109610	-0.954048	-0.198745	0.224260
42569	9.468165	-1.061247	2.183822	0.001988	-0.002452	0.006359	0.195198	0.155561	0.968348	-0.227327	0.967629	-0.109621	-0.954055	-0.198734	0.224243
42570	9.486954	-1.074333	2.174603	0.004396	0.000331	0.006371	0.195210	0.155572	0.968344	-0.227331	0.967627	-0.109628	-0.954051	-0.198734	0.224257
42571	9.457995	-1.099317	2.213769	0.002928	-0.003078	0.004683	0.195190	0.155559	0.968350	-0.227326	0.967629	-0.109621	-0.954057	-0.198734	0.224234
42572	9.515388	-1.096516	2.197200	0.005336	-0.000296	0.004695	0.195198	0.155552	0.968350	-0.227341	0.967627	-0.109609	-0.954051	-0.198750	0.224242
42573	9.476799	-1.112611	2.204367	0.000286	-0.003229	0.004764	0.195177	0.155540	0.968356	-0.227310	0.967634	-0.109609	-0.954063	-0.198724	0.224215
42574	9.497375	-1.044216	2.217237	0.003249	0.003291	0.010569	0.195207	0.155599	0.968341	-0.227310	0.967628	-0.109661	-0.954057	-0.198707	0.224257
42575	9.491331	-1.104122	2.221350	0.002901	-0.002779	0.002256	0.195195	0.155563	0.968349	-0.227299	0.967634	-0.109630	-0.954062	-0.198705	0.224237
42576	9.472974	-1.045970	2.168234	0.004629	-0.002299	0.006280	0.195179	0.155567	0.968351	-0.227312	0.967631	-0.109635	-0.954062	-0.198719	0.224223
42577	9.491310	-1.104886	2.221061	0.002695	-0.000446	0.004777	0.195184	0.155561	0.968351	-0.227304	0.967633	-0.109629	-0.954063	-0.198712	0.224226
42578	9.449036	-1.052836	2.192259	0.004629	-0.002298	0.006281	0.195170	0.155564	0.968354	-0.227315	0.967630	-0.109633	-0.954063	-0.198724	0.224214
42579	9.462756	-1.084416	2.198160	0.003429	0.001259	0.005621	0.195190	0.155569	0.968349	-0.227316	0.967630	-0.109633	-0.954059	-0.198722	0.224235
42580	9.490705	-1.101176	2.147936	0.003661	-0.001372	0.005529	0.195183	0.155569	0.968350	-0.227315	0.967630	-0.109635	-0.954061	-0.198721	0.224228
42581	9.497180	-1.047158	2.216684	0.002166	-0.004483	0.001413	0.195157	0.155522	0.968363	-0.227295	0.967639	-0.109598	-0.954070	-0.198716	0.224191
42582	9.481495	-1.098206	2.188771	0.003250	0.003294	0.010571	0.195188	0.155579	0.968348	-0.227305	0.967631	-0.109647	-0.954062	-0.198708	0.224233
42583	9.482310	-1.057988	2.199985	0.004369	0.000632	0.003945	0.195205	0.155567	0.968346	-0.227311	0.967632	-0.109629	-0.954057	-0.198716	0.224249
42584	9.458408	-1.064282	2.224117	0.002927	-0.003076	0.004686	0.195185	0.155553	0.968352	-0.227310	0.967633	-0.109620	-0.954061	-0.198720	0.224227
42585	9.477219	-1.077239	2.214832	0.002695	-0.000445	0.004778	0.195191	0.155546	0.968352	-0.227302	0.967636	-0.109614	-0.954062	-0.198713	0.224230
42586	9.482208	-1.059277	2.199806	0.000814	0.000812	0.008131	0.195197	0.155574	0.968346	-0.227288	0.967636	-0.109644	-0.954064	-0.198691	0.224240
42587	9.467453	-1.069500	2.182883	0.004601	-0.001999	0.003854	0.195190	0.155556	0.968351	-0.227296	0.967636	-0.109625	-0.954064	-0.198705	0.224230
42588	9.482160	-1.060050	2.199638	0.004601	-0.001999	0.003854	0.195184	0.155538	0.968355	-0.227309	0.967635	-0.109605	-0.954062	-0.198723	0.224222
42589	9.495847	-1.091727	2.205573	0.002515	0.001592	0.009728	0.195198	0.155583	0.968345	-0.227309	0.967630	-0.109648	-0.954059	-0.198711	0.224244
42590	9.486153	-1.083385	2.173608	0.005541	-0.002627	0.002178	0.195205	0.155642	0.968334	-0.227244	0.967637	-0.109721	-0.954073	-0.198630	0.224256
42591	9.481985	-1.061369	2.199756	0.003197	0.003892	0.005714	0.195250	0.155653	0.968323	-0.227242	0.967637	-0.109723	-0.954064	-0.198621	0.224302
42592	9.462153	-1.090064	2.197961	0.003893	-0.004000	0.005440	0.195224	0.155645	0.968330	-0.227239	0.967638	-0.109720	-0.954070	-0.198622	0.224275
42593	9.458044	-1.068203	2.223788	0.003661	-0.001369	0.005532	0.195219	0.155644	0.968331	-0.227241	0.967638	-0.109719	-0.954071	-0.198625	0.224270
42594	9.462110	-1.090893	2.197736	0.001728	0.000482	0.004026	0.195230	0.155629	0.968331	-0.227235	0.967641	-0.109704	-0.954070	-0.198621	0.224277
42595	9.505730	-1.057103	2.175334	0.003661	-0.001369	0.005532	0.195225	0.155628	0.968332	-0.227238	0.967641	-0.109703	-0.954070	-0.198625	0.224272
42596	9.472172	-1.054650	2.167535	0.002694	-0.000443	0.004779	0.195230	0.155622	0.968332	-0.227234	0.967642	-0.109698	-0.954070	-0.198622	0.224276
42597	9.481721	-1.064095	2.199578	0.002516	0.001595	0.009730	0.195244	0.155668	0.968322	-0.227234	0.967637	-0.109740	-0.954067	-0.198610	0.224298
42598	9.485771	-1.086873	2.173536	0.005541	-0.002627	0.002179	0.195233	0.155633	0.968330	-0.227243	0.967639	-0.109706	-0.954068	-0.198628	0.224281
42599	9.481673	-1.064868	2.199410	0.001019	-0.001519	0.005613	0.195226	0.155633	0.968331	-0.227221	0.967644	-0.109712	-0.954074	-0.198606	0.224272
42600	9.466926	-1.074999	2.182468	0.005336	-0.000292	0.004700	0.195235	0.155625	0.968331	-0.227234	0.967642	-0.109699	-0.954069	-0.198620	0.224280
42601	9.481602	-1.065673	2.199327	0.003661	-0.001368	0.005533	0.195229	0.155624	0.968332	-0.227237	0.967641	-0.109698	-0.954070	-0.198624	0.224276
42602	9.461783	-1.094352	2.197421	0.003661	-0.001368	0.005534	0.195225	0.155622	0.968333	-0.227238	0.967641	-0.109697	-0.954070	-0.198626	0.224271
42603	9.471884	-1.057783	2.167269	0.004396	0.000338	0.006378	0.195234	0.155632	0.968330	-0.227250	0.967638	-0.109703	-0.954066	-0.198635	0.224283
42604	9.504375	-1.102003	2.164012	0.004627	-0.002293	0.006287	0.195218	0.155638	0.968332	-0.227260	0.967635	-0.109710	-0.954066	-0.198646	0.224270
42605	9.500191	-1.080326	2.190126	0.000584	0.003449	0.008225	0.195253	0.155673	0.968319	-0.227239	0.967636	-0.109742	-0.954064	-0.198612	0.224308
42606	9.476196	-1.086833	2.214522	-0.000914	0.000334	0.004107	0.195267	0.155661	0.968318	-0.227192	0.967647	-0.109739	-0.954073	-0.198565	0.224314
42607	9.447760	-1.065751	2.191519	0.004831	-0.004627	0.003767	0.195235	0.155636	0.968329	-0.227202	0.967647	-0.109718	-0.954077	-0.198586	0.224279
42608	9.500081	-1.081660	2.189946	0.001754	0.000189	0.006458	0.195240	0.155650	0.968326	-0.227192	0.967648	-0.109733	-0.954078	-0.198571	0.224286
42609	9.481242	-1.069508	2.199016	0.001959	-0.002146	0.003937	0.195231	0.155631	0.968330	-0.227175	0.967653	-0.109720	-0.954084	-0.198560	0.224272
42610	9.466488	-1.079636	2.182078	0.004396	0.000339	0.006379	0.195242	0.155643	0.968326	-0.227189	0.967649	-0.109726	-0.954078	-0.198570	0.224286
42611	9.485271	-1.092572	2.172860	0.002898	-0.002776	0.002261	0.195231	0.155607	0.968334	-0.227178	0.967655	-0.109696	-0.954083	-0.198568	0.224267
42612	9.443595	-1.045396	2.216950	0.001985	-0.002441	0.006369	0.195212	0.155611	0.968337	-0.227161	0.967658	-0.109708	-0.954091	-0.198553	0.224247
42613	9.509669	-1.092319	2.221203	0.004804	-0.004332	0.001337	0.195188	0.155564	0.968350	-0.227167	0.967662	-0.109664	-0.954095	-0.198572	0.224215
42614	9.481179	-1.071379	2.198376	0.003253	0.003306	0.010578	0.195216	0.155621	0.968335	-0.227175	0.967654	-0.109713	-0.954087	-0.198564	0.224255
42615	9.471437	-1.063262	2.166541	0.003660	-0.001365	0.005536	0.195211	0.155620	0.968336	-0.227178	0.967653	-0.109712	-0.954087	-0.198568	0.224250
42616	9.485094	-1.094865	2.172476	0.004396	0.000340	0.006380	0.195221	0.155630	0.968333	-0.227179	0.967652	-0.109720	-0.954085	-0.198565	0.224262
42617	9.475847	-1.091538	2.213700	0.003430	0.001266	0.005627	0.195241	0.155635	0.968328	-0.227180	0.967652	-0.109721	-0.954081	-0.198562	0.224282
42618	9.490049	-1.077349	2.157486	0.001984	-0.002440	0.006370	0.195231	0.155639	0.968329	-0.227165	0.967655	-0.109730	-0.954086	-0.198548	0.224272
42619	9.456946	-1.079937	2.222788	0.003430	0.001266	0.005627	0.195251	0.155644	0.968324	-0.227166	0.967654	-0.109731	-0.954082	-0.198545	0.224293
42620	9.519396	-1.058959	2.191197	0.001984	-0.002439	0.006370	0.195234	0.155648	0.968327	-0.227157	0.967655	-0.109741	-0.954088	-0.198537	0.224275
42621	9.460918	-1.103335	2.196654	0.001755	0.000192	0.006461	0.195241	0.155659	0.968324	-0.227143	0.967657	-0.109753	-0.954090	-0.198520	0.224283
42622	9.481793	-1.034552	2.209142	0.004066	-0.006037	0.000495	0.195202	0.155600	0.968341	-0.227139	0.967664	-0.109703	-0.954098	-0.198534	0.224233
42623	9.489916	-1.079455	2.157017	0.000559	0.003748	0.005796	0.195245	0.155611	0.968331	-0.227113	0.967669	-0.109712	-0.954096	-0.198500	0.224274
42624	9.461883	-1.063526	2.207358	0.004625	-0.002289	0.006292	0.195229	0.155616	0.968333	-0.227130	0.967664	-0.109717	-0.954095	-0.198518	0.224261
42625	9.479589	-1.117463	2.187282	0.003430	0.001267	0.005628	0.195248	0.155622	0.968328	-0.227131	0.967664	-0.109717	-0.954091	-0.198515	0.224281
42626	9.495268	-1.067373	2.215233	0.007037	0.000492	0.006303	0.195263	0.155630	0.968324	-0.227161	0.967657	-0.109716	-0.954081	-0.198542	0.224301
42627	9.499260	-1.090272	2.189236	0.000079	-0.000881	0.007295	0.195258	0.155647	0.968322	-0.227133	0.967661	-0.109740	-0.954088	-0.198510	0.224297
42628	9.452043	-1.056627	2.175369	0.006504	-0.003551	0.002938	0.195235	0.155617	0.968332	-0.227155	0.967659	-0.109710	-0.954088	-0.198542	0.224270
42629	9.485517	-1.060056	2.183066	0.002517	0.001606	0.009737	0.195249	0.155662	0.968322	-0.227155	0.967654	-0.109752	-0.954085	-0.198530	0.224293
42630	9.460498	-1.107452	2.196392	0.001018	-0.001512	0.005618	0.195242	0.155663	0.968323	-0.227130	0.967659	-0.109761	-0.954093	-0.198506	0.224283
42631	9.504224	-1.073646	2.173812	0.008179	-0.002477	0.002105	0.195234	0.155627	0.968331	-0.227169	0.967655	-0.109717	-0.954085	-0.198555	0.224272
42632	9.499094	-1.092419	2.188888	0.000789	0.001119	0.005708	0.195252	0.155631	0.968326	-0.227148	0.967659	-0.109722	-0.954086	-0.198530	0.224289
42633	9.461474	-1.067517	2.207186	0.003633	-0.001069	0.003108	0.195256	0.155607	0.968329	-0.227146	0.967663	-0.109698	-0.954086	-0.198533	0.224287
42634	9.489853	-1.089369	2.229968	0.002720	-0.000730	0.007217	0.195255	0.155625	0.968327	-0.227145	0.967661	-0.109716	-0.954086	-0.198528	0.224290
42635	9.476145	-1.058676	2.223920	0.004598	-0.001994	0.003863	0.195247	0.155606	0.968331	-0.227154	0.967661	-0.109697	-0.954086	-0.198542	0.224280
42636	9.500039	-1.053116	2.199529	0.001957	-0.002143	0.003942	0.195238	0.155588	0.968336	-0.227137	0.967666	-0.109685	-0.954092	-0.198530	0.224265
42637	9.475102	-1.100201	2.212602	0.000281	-0.003216	0.004776	0.195217	0.155576	0.968342	-0.227106	0.967674	-0.109684	-0.954103	-0.198504	0.224239
42638	9.481188	-1.041554	2.208445	0.003255	0.003315	0.010583	0.195246	0.155635	0.968327	-0.227110	0.967667	-0.109736	-0.954096	-0.198492	0.224280
42639	9.474940	-1.101430	2.212685	0.002896	-0.002774	0.002265	0.195235	0.155599	0.968335	-0.227099	0.967673	-0.109705	-0.954101	-0.198490	0.224260
42640	9.485154	-1.064680	2.182393	0.005335	-0.000287	0.004707	0.195239	0.155593	0.968335	-0.227117	0.967670	-0.109694	-0.954096	-0.198509	0.224265
42641	9.474898	-1.102088	2.212535	0.001018	-0.001510	0.005620	0.195232	0.155592	0.968336	-0.227095	0.967674	-0.109700	-0.954103	-0.198487	0.224255
42642	9.479990	-1.083957	2.197341	0.003633	-0.001068	0.003109	0.195231	0.155569	0.968340	-0.227097	0.967677	-0.109677	-0.954103	-0.198495	0.224250
42643	9.466287	-1.053236	2.191327	0.002720	-0.000728	0.007219	0.195228	0.155586	0.968338	-0.227094	0.967675	-0.109694	-0.954104	-0.198488	0.224250
42644	9.493549	-1.116118	2.203254	0.001755	0.000197	0.006464	0.195235	0.155596	0.968335	-0.227071	0.967679	-0.109709	-0.954108	-0.198462	0.224256
42645	9.451424	-1.063845	2.174540	0.004344	0.000930	0.001520	0.195261	0.155561	0.968336	-0.227073	0.967683	-0.109668	-0.954102	-0.198469	0.224274
42646	9.503688	-1.079729	2.173145	0.001018	-0.001509	0.005621	0.195254	0.155561	0.968337	-0.227055	0.967687	-0.109674	-0.954108	-0.198451	0.224266
42647	9.446204	-1.083187	2.189678	0.002492	0.001904	0.007308	0.195276	0.155584	0.968329	-0.227050	0.967686	-0.109693	-0.954105	-0.198439	0.224291
42648	9.499523	-1.058406	2.199220	0.004598	-0.001993	0.003865	0.195264	0.155566	0.968334	-0.227062	0.967685	-0.109674	-0.954104	-0.198456	0.224277
42649	9.493277	-1.118132	2.203407	0.000790	0.001123	0.005710	0.195282	0.155571	0.968330	-0.227038	0.967690	-0.109682	-0.954106	-0.198428	0.224293
42650	9.447149	-1.043581	2.200589	0.004598	-0.001992	0.003865	0.195274	0.155553	0.968334	-0.227044	0.967690	-0.109664	-0.954107	-0.198440	0.224282
42651	9.508545	-1.063429	2.158099	0.003431	0.001272	0.005631	0.195293	0.155558	0.968330	-0.227045	0.967690	-0.109665	-0.954102	-0.198437	0.224302
42652	9.464737	-1.097747	2.180636	0.006274	-0.000919	0.003031	0.195302	0.155535	0.968332	-0.227062	0.967689	-0.109636	-0.954096	-0.198459	0.224308
42653	9.489727	-1.051376	2.167137	0.000280	-0.003213	0.004778	0.195281	0.155523	0.968338	-0.227031	0.967697	-0.109636	-0.954108	-0.198433	0.224281
42654	9.494148	-1.079338	2.214237	0.003256	0.003320	0.010586	0.195313	0.155580	0.968322	-0.227033	0.967691	-0.109685	-0.954101	-0.198418	0.224325
42655	9.441799	-1.064333	2.215591	0.002183	-0.004771	0.003856	0.195279	0.155556	0.968333	-0.227018	0.967696	-0.109672	-0.954111	-0.198413	0.224285
42656	9.517996	-1.074527	2.189702	0.003659	-0.001358	0.005544	0.195276	0.155555	0.968334	-0.227028	0.967694	-0.109669	-0.954110	-0.198424	0.224282
42657	9.445800	-1.087492	2.189285	0.002694	-0.000434	0.004788	0.195281	0.155548	0.968334	-0.227021	0.967696	-0.109663	-0.954111	-0.198417	0.224285
42658	9.450906	-1.069372	2.174082	0.001956	-0.002140	0.003945	0.195273	0.155531	0.968338	-0.227001	0.967702	-0.109652	-0.954117	-0.198402	0.224272
42659	9.531559	-1.106970	2.195380	0.003685	-0.001649	0.007978	0.195260	0.155553	0.968337	-0.227009	0.967697	-0.109675	-0.954118	-0.198406	0.224264
42660	9.456463	-1.056704	2.231834	0.006274	-0.000919	0.003032	0.195265	0.155527	0.968340	-0.227035	0.967695	-0.109642	-0.954110	-0.198437	0.224267
42661	9.488805	-1.101149	2.228643	-0.000834	-0.000528	0.011413	0.195255	0.155585	0.968333	-0.227006	0.967694	-0.109709	-0.954119	-0.198396	0.224266
42662	9.445670	-1.089916	2.188642	0.004060	-0.006038	0.000502	0.195221	0.155527	0.968349	-0.226994	0.967703	-0.109660	-0.954129	-0.198402	0.224220
42663	9.528582	-1.045631	2.231696	0.002493	0.001908	0.007311	0.195243	0.155549	0.968341	-0.226989	0.967702	-0.109679	-0.954126	-0.198389	0.224245
42664	9.460351	-1.081059	2.205406	0.003658	-0.001357	0.005545	0.195240	0.155548	0.968342	-0.226982	0.967703	-0.109681	-0.954128	-0.198382	0.224241
42665	9.480213	-1.053325	2.207050	0.007264	-0.002133	0.006223	0.195226	0.155552	0.968344	-0.227020	0.967694	-0.109678	-0.954122	-0.198422	0.224233
42666	9.497823	-1.107322	2.186914	0.001017	-0.001504	0.005624	0.195222	0.155550	0.968345	-0.227004	0.967698	-0.109681	-0.954127	-0.198406	0.224227
42667	9.479026	-1.095063	2.195993	0.005335	-0.000284	0.004711	0.195229	0.155543	0.968345	-0.227021	0.967695	-0.109669	-0.954121	-0.198424	0.224234
42668	9.480098	-1.054667	2.206904	0.001755	0.000203	0.006468	0.195237	0.155554	0.968342	-0.227007	0.967697	-0.109682	-0.954123	-0.198407	0.224242
42669	9.478980	-1.095864	2.195791	0.006726	-0.006179	0.002859	0.195191	0.155518	0.968357	-0.227034	0.967695	-0.109648	-0.954126	-0.198448	0.224194
42670	9.484060	-1.077870	2.180672	0.001329	0.005175	0.009077	0.195239	0.155564	0.968340	-0.227031	0.967691	-0.109685	-0.954117	-0.198428	0.224249
42671	9.488459	-1.105578	2.227922	0.005535	-0.002625	0.002191	0.195230	0.155528	0.968347	-0.227045	0.967692	-0.109648	-0.954115	-0.198452	0.224234
42672	9.441347	-1.071628	2.213999	0.005561	-0.002914	0.004625	0.195211	0.155514	0.968353	-0.227061	0.967690	-0.109634	-0.954115	-0.198473	0.224215
42673	9.517488	-1.081998	2.188230	0.002720	-0.000720	0.007225	0.195208	0.155530	0.968351	-0.227058	0.967689	-0.109652	-0.954117	-0.198467	0.224215
42674	9.474805	-1.075510	2.221552	0.003632	-0.001066	0.003113	0.195212	0.155508	0.968354	-0.227059	0.967691	-0.109628	-0.954115	-0.198473	0.224215
42675	9.479908	-1.057462	2.206382	0.002720	-0.000720	0.007226	0.195210	0.155525	0.968352	-0.227056	0.967690	-0.109646	-0.954117	-0.198467	0.224215
42676	9.488311	-1.107620	2.227538	0.007038	0.000500	0.006313	0.195217	0.155533	0.968349	-0.227097	0.967680	-0.109643	-0.954105	-0.198505	0.224229
42677	9.456543	-1.018656	2.168433	0.001043	-0.001790	0.008061	0.195202	0.155555	0.968348	-0.227080	0.967681	-0.109673	-0.954113	-0.198484	0.224217
42678	9.493337	-1.090324	2.212333	-0.000912	0.000347	0.004113	0.195219	0.155545	0.968347	-0.227029	0.967693	-0.109671	-0.954121	-0.198433	0.224225
42679	9.479720	-1.059411	2.206254	0.005534	-0.002624	0.002192	0.195209	0.155509	0.968354	-0.227043	0.967694	-0.109634	-0.954120	-0.198457	0.224210
42680	9.450158	-1.079239	2.172455	0.001781	-0.000083	0.008905	0.195207	0.155545	0.968349	-0.227040	0.967691	-0.109671	-0.954121	-0.198446	0.224215
42681	9.507988	-1.081869	2.229076	0.004371	0.000642	0.003957	0.195224	0.155533	0.968348	-0.227047	0.967691	-0.109653	-0.954116	-0.198453	0.224230
42682	9.468771	-1.092932	2.163424	0.002719	-0.000718	0.007227	0.195224	0.155554	0.968344	-0.227036	0.967691	-0.109677	-0.954119	-0.198437	0.224233
42683	9.503401	-1.055601	2.181983	0.002693	-0.000429	0.004792	0.195229	0.155547	0.968344	-0.227028	0.967693	-0.109671	-0.954119	-0.198430	0.224236
42684	9.487911	-1.111354	2.227383	0.001729	0.000495	0.004036	0.195246	0.155535	0.968343	-0.227003	0.967700	-0.109661	-0.954122	-0.198406	0.224247
42685	9.498166	-1.074995	2.197031	0.005612	-0.003488	0.009499	0.195212	0.155568	0.968344	-0.227033	0.967690	-0.109694	-0.954122	-0.198432	0.224223
42686	9.444736	-1.100559	2.187347	0.005534	-0.002624	0.002193	0.195201	0.155533	0.968352	-0.227044	0.967691	-0.109660	-0.954121	-0.198453	0.224207
42687	9.465822	-1.031772	2.199859	0.001729	0.000495	0.004036	0.195217	0.155521	0.968351	-0.227025	0.967697	-0.109649	-0.954123	-0.198435	0.224218
42688	9.492946	-1.094562	2.211919	0.001755	0.000208	0.006471	0.195226	0.155534	0.968347	-0.227012	0.967698	-0.109662	-0.954124	-0.198417	0.224227
42689	9.464523	-1.073570	2.189076	0.002693	-0.000428	0.004793	0.195231	0.155527	0.968347	-0.227004	0.967701	-0.109657	-0.954125	-0.198410	0.224231
42690	9.512798	-1.067291	2.213520	0.002918	-0.003059	0.004707	0.195208	0.155515	0.968354	-0.227005	0.967701	-0.109649	-0.954129	-0.198416	0.224206
42691	9.453675	-1.106492	2.146030	0.004397	0.000355	0.006394	0.195218	0.155526	0.968350	-0.227016	0.967698	-0.109655	-0.954125	-0.198424	0.224219
42692	9.493982	-1.055529	2.222510	0.004621	-0.002275	0.006308	0.195202	0.155531	0.968352	-0.227025	0.967695	-0.109661	-0.954126	-0.198434	0.224205
42693	9.483124	-1.088091	2.179668	0.007038	0.000503	0.006317	0.195213	0.155541	0.968349	-0.227061	0.967687	-0.109660	-0.954115	-0.198467	0.224222
42694	9.445591	-1.063104	2.197928	0.003657	-0.001351	0.005551	0.195211	0.155538	0.968349	-0.227057	0.967688	-0.109659	-0.954116	-0.198463	0.224219
42695	9.516520	-1.092194	2.187374	0.001781	-0.000078	0.008909	0.195210	0.155572	0.968344	-0.227048	0.967686	-0.109696	-0.954118	-0.198447	0.224225
42696	9.440336	-1.082596	2.212973	0.004569	-0.001700	0.001437	0.195215	0.155532	0.968350	-0.227050	0.967690	-0.109654	-0.954117	-0.198457	0.224221
42697	9.492567	-1.098678	2.211504	0.002719	-0.000714	0.007231	0.195212	0.155549	0.968347	-0.227047	0.967689	-0.109672	-0.954118	-0.198451	0.224222
42698	9.477717	-1.108933	2.194680	0.004397	0.000357	0.006396	0.195222	0.155559	0.968344	-0.227060	0.967685	-0.109677	-0.954113	-0.198461	0.224235
42699	9.478852	-1.068643	2.205533	0.002719	-0.000713	0.007231	0.195220	0.155576	0.968342	-0.227057	0.967684	-0.109695	-0.954114	-0.198454	0.224235
42700	9.473637	-1.087600	2.220644	0.002693	-0.000426	0.004795	0.195223	0.155570	0.968342	-0.227057	0.967685	-0.109688	-0.954114	-0.198455	0.224238
42701	9.469157	-1.060698	2.173489	0.003631	-0.001063	0.003116	0.195227	0.155546	0.968345	-0.227055	0.967688	-0.109664	-0.954114	-0.198458	0.224236
42702	9.459975	-1.057125	2.214684	0.005137	0.002065	0.007240	0.195251	0.155569	0.968336	-0.227070	0.967683	-0.109679	-0.954105	-0.198465	0.224266
42703	9.506993	-1.091933	2.228412	0.002943	-0.003342	0.007147	0.195223	0.155580	0.968340	-0.227069	0.967681	-0.109696	-0.954111	-0.198465	0.224241
42704	9.478654	-1.070769	2.205349	0.004569	-0.001700	0.001438	0.195223	0.155535	0.968347	-0.227072	0.967685	-0.109650	-0.954110	-0.198478	0.224232
42705	9.478658	-1.071068	2.205189	0.001979	-0.002418	0.006389	0.195206	0.155540	0.968350	-0.227060	0.967687	-0.109661	-0.954116	-0.198467	0.224215
42706	9.482557	-1.094022	2.179165	0.004397	0.000359	0.006397	0.195214	0.155551	0.968347	-0.227063	0.967685	-0.109669	-0.954114	-0.198467	0.224226
42707	9.497305	-1.084758	2.195958	0.001953	-0.002132	0.003953	0.195206	0.155533	0.968351	-0.227047	0.967691	-0.109657	-0.954120	-0.198455	0.224212
42708	9.487691	-1.076335	2.163793	0.001953	-0.002132	0.003953	0.195193	0.155518	0.968356	-0.227032	0.967695	-0.109648	-0.954126	-0.198445	0.224195
42709	9.525604	-1.106954	2.218670	0.002470	0.002206	0.004881	0.195223	0.155517	0.968350	-0.227022	0.967698	-0.109644	-0.954122	-0.198432	0.224223
42710	9.450169	-1.051564	2.181980	0.004817	-0.004616	0.003791	0.195192	0.155494	0.968360	-0.227029	0.967698	-0.109625	-0.954127	-0.198448	0.224188
42711	9.469406	-1.069338	2.245808	0.004371	0.000645	0.003961	0.195209	0.155481	0.968359	-0.227035	0.967699	-0.109608	-0.954122	-0.198455	0.224203
42712	9.487569	-1.077754	2.163624	0.006324	-0.001486	0.007915	0.195200	0.155501	0.968358	-0.227064	0.967690	-0.109623	-0.954117	-0.198481	0.224202
42713	9.498395	-1.046291	2.206219	0.000301	-0.003486	0.007227	0.195171	0.155512	0.968362	-0.227038	0.967694	-0.109646	-0.954129	-0.198455	0.224172
42714	9.448839	-1.094341	2.170640	0.003657	-0.001347	0.005555	0.195162	0.155514	0.968363	-0.227044	0.967692	-0.109648	-0.954129	-0.198462	0.224165
42715	9.478365	-1.075452	2.204314	0.004397	0.000360	0.006399	0.195171	0.155524	0.968360	-0.227056	0.967689	-0.109654	-0.954125	-0.198470	0.224178
42716	9.473115	-1.094461	2.219500	-0.000886	0.000069	0.006554	0.195180	0.155532	0.968356	-0.227010	0.967698	-0.109671	-0.954134	-0.198421	0.224183
42717	9.493054	-1.066823	2.221081	0.005557	-0.002908	0.004635	0.195163	0.155520	0.968362	-0.227030	0.967695	-0.109657	-0.954133	-0.198446	0.224165
42718	9.496941	-1.089816	2.195026	0.001782	-0.000070	0.008914	0.195159	0.155554	0.968357	-0.227019	0.967693	-0.109694	-0.954136	-0.198428	0.224168
42719	9.468544	-1.068942	2.172119	0.003656	-0.001346	0.005556	0.195154	0.155553	0.968358	-0.227022	0.967692	-0.109694	-0.954136	-0.198432	0.224163
42720	9.474222	-1.055616	2.229942	0.004594	-0.001985	0.003878	0.195144	0.155535	0.968363	-0.227028	0.967693	-0.109677	-0.954137	-0.198443	0.224150
42721	9.496847	-1.091125	2.194783	0.006298	-0.001200	0.005480	0.195141	0.155533	0.968364	-0.227056	0.967687	-0.109669	-0.954131	-0.198472	0.224150
42722	9.483296	-1.060299	2.188634	0.001952	-0.002130	0.003955	0.195133	0.155515	0.968369	-0.227036	0.967693	-0.109658	-0.954137	-0.198457	0.224136
42723	9.478069	-1.079265	2.203722	0.004423	0.000078	0.008838	0.195134	0.155549	0.968363	-0.227052	0.967686	-0.109687	-0.954133	-0.198466	0.224146
42724	9.501925	-1.074156	2.179354	0.002915	-0.003052	0.004714	0.195115	0.155537	0.968369	-0.227047	0.967688	-0.109680	-0.954138	-0.198465	0.224125
42725	9.492795	-1.070559	2.220387	0.007039	0.000508	0.006323	0.195126	0.155547	0.968365	-0.227084	0.967679	-0.109680	-0.954127	-0.198498	0.224142
42726	9.457947	-1.108740	2.201971	0.001730	0.000501	0.004040	0.195142	0.155535	0.968364	-0.227066	0.967685	-0.109668	-0.954128	-0.198481	0.224153
42727	9.516552	-1.065866	2.196253	0.001782	-0.000066	0.008916	0.195142	0.155569	0.968358	-0.227057	0.967683	-0.109704	-0.954130	-0.198465	0.224159
42728	9.459098	-1.068982	2.212739	0.004593	-0.001983	0.003879	0.195133	0.155552	0.968363	-0.227064	0.967683	-0.109687	-0.954130	-0.198477	0.224147
42729	9.488178	-1.045139	2.173214	0.003630	-0.001061	0.003120	0.195137	0.155528	0.968366	-0.227062	0.967686	-0.109663	-0.954130	-0.198480	0.224145
42730	9.453876	-1.088090	2.227708	0.003682	-0.001627	0.007997	0.195121	0.155552	0.968365	-0.227075	0.967681	-0.109687	-0.954130	-0.198489	0.224136
42731	9.501623	-1.077282	2.179127	0.005334	-0.000275	0.004723	0.195128	0.155545	0.968365	-0.227092	0.967678	-0.109675	-0.954125	-0.198507	0.224144
42732	9.464169	-1.052135	2.197322	0.003656	-0.001343	0.005559	0.195121	0.155545	0.968367	-0.227102	0.967676	-0.109674	-0.954124	-0.198518	0.224138
42733	9.482871	-1.065319	2.188037	0.002915	-0.003051	0.004716	0.195101	0.155532	0.968372	-0.227096	0.967678	-0.109667	-0.954129	-0.198517	0.224116
42734	9.496320	-1.096905	2.194181	0.005855	0.004063	0.005650	0.195148	0.155545	0.968361	-0.227109	0.967675	-0.109667	-0.954117	-0.198522	0.224166
42735	9.506638	-1.060631	2.163864	0.004866	-0.005178	0.008674	0.195100	0.155567	0.968367	-0.227129	0.967667	-0.109694	-0.954122	-0.198543	0.224125
42736	9.453626	-1.090808	2.227444	0.003409	0.001570	0.003205	0.195129	0.155550	0.968364	-0.227121	0.967671	-0.109673	-0.954118	-0.198535	0.224149
42737	9.473025	-1.058324	2.156212	0.006076	0.001433	0.005567	0.195150	0.155555	0.968359	-0.227147	0.967666	-0.109667	-0.954107	-0.198558	0.224174
42738	9.510886	-1.089003	2.211158	0.000052	-0.000565	0.004878	0.195154	0.155550	0.968359	-0.227108	0.967675	-0.109671	-0.954116	-0.198519	0.224172
42739	9.477317	-1.086390	2.203454	0.004397	0.000366	0.006404	0.195163	0.155561	0.968355	-0.227119	0.967671	-0.109677	-0.954111	-0.198527	0.224185
42740	9.463775	-1.055618	2.197349	0.001951	-0.002127	0.003958	0.195152	0.155545	0.968360	-0.227099	0.967677	-0.109668	-0.954118	-0.198512	0.224168
42741	9.501143	-1.081600	2.179083	0.004397	0.000366	0.006404	0.195161	0.155556	0.968357	-0.227110	0.967674	-0.109675	-0.954114	-0.198520	0.224181
42742	9.477188	-1.087678	2.203375	0.006297	-0.001196	0.005485	0.195158	0.155556	0.968357	-0.227138	0.967668	-0.109669	-0.954108	-0.198548	0.224181
42743	9.482324	-1.069860	2.188192	0.001782	-0.000060	0.008920	0.195158	0.155590	0.968352	-0.227129	0.967666	-0.109705	-0.954110	-0.198532	0.224186
42744	9.482301	-1.070366	2.188045	0.003850	-0.003689	0.003040	0.195136	0.155560	0.968361	-0.227125	0.967670	-0.109680	-0.954115	-0.198537	0.224159
42745	9.477079	-1.089107	2.203139	0.003435	0.001290	0.005645	0.195156	0.155565	0.968356	-0.227126	0.967669	-0.109681	-0.954111	-0.198534	0.224179
42746	9.448729	-1.067983	2.180243	0.001951	-0.002126	0.003959	0.195148	0.155545	0.968361	-0.227113	0.967674	-0.109666	-0.954116	-0.198526	0.224166
42747	9.510531	-1.093005	2.210711	0.003655	-0.001340	0.005562	0.195143	0.155545	0.968362	-0.227116	0.967673	-0.109666	-0.954116	-0.198530	0.224162
42748	9.471805	-1.108689	2.218031	0.001951	-0.002126	0.003960	0.195135	0.155525	0.968367	-0.227097	0.967679	-0.109652	-0.954122	-0.198516	0.224148
42749	9.497024	-1.062506	2.204370	0.000988	-0.001204	0.003200	0.195137	0.155501	0.968370	-0.227070	0.967688	-0.109635	-0.954128	-0.198494	0.224141
42750	9.458244	-1.078191	2.211921	0.007781	0.002221	0.007172	0.195162	0.155525	0.968361	-0.227118	0.967676	-0.109642	-0.954112	-0.198534	0.224176
42751	9.525204	-1.084705	2.227461	0.000962	-0.000922	0.000760	0.195172	0.155479	0.968367	-0.227086	0.967688	-0.109601	-0.954117	-0.198511	0.224173
42752	9.461999	-1.101366	2.186178	0.005165	0.001796	0.009688	0.195188	0.155522	0.968357	-0.227114	0.967677	-0.109635	-0.954107	-0.198528	0.224201
42753	9.478057	-1.051441	2.213820	0.003655	-0.001339	0.005563	0.195183	0.155521	0.968358	-0.227116	0.967677	-0.109634	-0.954108	-0.198531	0.224196
42754	9.505011	-1.114231	2.225825	0.001950	-0.002125	0.003960	0.195173	0.155502	0.968363	-0.227101	0.967682	-0.109621	-0.954114	-0.198521	0.224180
42755	9.468419	-1.043435	2.181616	0.005334	-0.000272	0.004727	0.195180	0.155495	0.968363	-0.227118	0.967679	-0.109609	-0.954108	-0.198539	0.224187
42756	9.457940	-1.080690	2.212002	0.001756	0.000225	0.006483	0.195185	0.155505	0.968360	-0.227104	0.967681	-0.109620	-0.954110	-0.198522	0.224192
42757	9.513980	-1.119605	2.184562	0.000271	-0.003191	0.004798	0.195164	0.155493	0.968366	-0.227073	0.967689	-0.109620	-0.954122	-0.198496	0.224166
42758	9.468330	-1.044848	2.181327	0.003655	-0.001338	0.005564	0.195158	0.155493	0.968367	-0.227071	0.967689	-0.109622	-0.954124	-0.198495	0.224161
42759	9.463055	-1.063841	2.196487	0.004423	0.000090	0.008847	0.195160	0.155527	0.968362	-0.227088	0.967682	-0.109651	-0.954119	-0.198504	0.224171
42760	9.477815	-1.054588	2.213361	0.005308	0.000009	0.002288	0.195174	0.155496	0.968364	-0.227110	0.967681	-0.109612	-0.954111	-0.198531	0.224181
42761	9.457759	-1.082989	2.211647	0.001976	-0.002404	0.006402	0.195157	0.155501	0.968366	-0.227098	0.967682	-0.109624	-0.954118	-0.198520	0.224164
42762	9.495100	-1.109051	2.193356	0.005334	-0.000271	0.004728	0.195167	0.155495	0.968365	-0.227118	0.967679	-0.109611	-0.954111	-0.198540	0.224174
42763	9.492546	-1.046055	2.230023	0.002693	-0.000415	0.004805	0.195172	0.155488	0.968365	-0.227110	0.967682	-0.109605	-0.954112	-0.198533	0.224177
42764	9.471104	-1.115405	2.217657	-0.000911	0.000362	0.004120	0.195186	0.155476	0.968364	-0.227066	0.967692	-0.109600	-0.954119	-0.198491	0.224183
42765	9.486691	-1.060648	2.172191	0.007039	0.000516	0.006332	0.195197	0.155487	0.968361	-0.227103	0.967684	-0.109600	-0.954108	-0.198524	0.224200
42766	9.496243	-1.069850	2.204184	0.001013	-0.001481	0.005642	0.195192	0.155487	0.968362	-0.227078	0.967689	-0.109607	-0.954115	-0.198500	0.224193
42767	9.485212	-1.102636	2.161417	0.004423	0.000092	0.008850	0.195193	0.155520	0.968356	-0.227095	0.967682	-0.109636	-0.954111	-0.198509	0.224203
42768	9.486553	-1.062264	2.172003	0.001206	-0.003831	0.003120	0.195169	0.155493	0.968365	-0.227068	0.967690	-0.109620	-0.954122	-0.198490	0.224171
42769	9.462677	-1.068108	2.196042	0.004591	-0.001979	0.003887	0.195162	0.155475	0.968369	-0.227076	0.967690	-0.109601	-0.954122	-0.198504	0.224161
42770	9.477477	-1.058710	2.212840	0.004372	0.000652	0.003968	0.195183	0.155461	0.968367	-0.227083	0.967691	-0.109582	-0.954116	-0.198511	0.224179
42771	9.494748	-1.112830	2.192963	0.001975	-0.002402	0.006404	0.195166	0.155466	0.968370	-0.227071	0.967692	-0.109594	-0.954122	-0.198500	0.224162
42772	9.449130	-1.038071	2.189785	0.002693	-0.000414	0.004806	0.195171	0.155458	0.968370	-0.227061	0.967695	-0.109587	-0.954124	-0.198491	0.224164
42773	9.533399	-1.098613	2.185320	0.003680	-0.001615	0.008008	0.195158	0.155481	0.968369	-0.227069	0.967691	-0.109610	-0.954124	-0.198495	0.224157
42774	9.462485	-1.070296	2.195806	0.004372	0.000652	0.003969	0.195174	0.155469	0.968368	-0.227074	0.967691	-0.109593	-0.954120	-0.198502	0.224171
42775	9.463869	-1.029714	2.206369	0.002168	-0.004752	0.003882	0.195141	0.155445	0.968379	-0.227060	0.967696	-0.109580	-0.954130	-0.198496	0.224132
42776	9.464917	-1.134419	2.158930	0.005141	0.002082	0.007253	0.195166	0.155468	0.968370	-0.227081	0.967690	-0.109593	-0.954120	-0.198510	0.224164
42777	9.502509	-1.015502	2.198824	0.001975	-0.002400	0.006405	0.195149	0.155473	0.968372	-0.227069	0.967691	-0.109604	-0.954126	-0.198499	0.224147
42778	9.460969	-1.112971	2.184756	0.002693	-0.000413	0.004807	0.195158	0.155465	0.968372	-0.227058	0.967695	-0.109597	-0.954127	-0.198488	0.224153
42779	9.487632	-1.025985	2.181829	0.004590	-0.001978	0.003888	0.195151	0.155447	0.968376	-0.227066	0.967695	-0.109578	-0.954126	-0.198501	0.224143
42780	9.495836	-1.075966	2.202959	0.004616	-0.002256	0.006330	0.195136	0.155452	0.968378	-0.227076	0.967692	-0.109584	-0.954127	-0.198511	0.224131
42781	9.480940	-1.086056	2.186209	0.005116	0.002361	0.004812	0.195168	0.155452	0.968372	-0.227091	0.967690	-0.109574	-0.954117	-0.198523	0.224164
42782	9.467435	-1.055238	2.180210	0.003654	-0.001334	0.005569	0.195162	0.155450	0.968373	-0.227094	0.967689	-0.109573	-0.954117	-0.198527	0.224158
42783	9.460805	-1.114802	2.184534	0.002885	-0.002764	0.002285	0.195151	0.155415	0.968381	-0.227083	0.967695	-0.109542	-0.954122	-0.198525	0.224139
42784	9.482262	-1.046260	2.196722	0.002718	-0.000690	0.007249	0.195150	0.155431	0.968379	-0.227082	0.967693	-0.109559	-0.954123	-0.198521	0.224141
42785	9.480789	-1.087714	2.186037	0.004398	0.000375	0.006412	0.195159	0.155441	0.968375	-0.227094	0.967690	-0.109565	-0.954118	-0.198529	0.224153
42786	9.519486	-1.072872	2.178562	0.003628	-0.001055	0.003128	0.195159	0.155420	0.968379	-0.227100	0.967691	-0.109542	-0.954117	-0.198541	0.224150
42787	9.471649	-1.084395	2.227058	0.003680	-0.001610	0.008012	0.195146	0.155443	0.968378	-0.227108	0.967687	-0.109565	-0.954117	-0.198545	0.224143
42788	9.467214	-1.057846	2.179905	0.006078	0.001441	0.005575	0.195168	0.155448	0.968372	-0.227129	0.967682	-0.109561	-0.954108	-0.198563	0.224168
42789	9.480569	-1.089601	2.186052	0.003679	-0.001610	0.008013	0.195155	0.155471	0.968371	-0.227137	0.967678	-0.109585	-0.954109	-0.198567	0.224161
42790	9.485755	-1.071740	2.170831	0.001731	0.000510	0.004047	0.195210	0.155577	0.968343	-0.227100	0.967675	-0.109688	-0.954106	-0.198499	0.224231
42791	9.480517	-1.090415	2.185871	0.004807	-0.004606	0.003810	0.195178	0.155553	0.968354	-0.227111	0.967674	-0.109668	-0.954110	-0.198519	0.224196
42792	9.495328	-1.081197	2.202587	0.002501	0.001942	0.007332	0.195202	0.155576	0.968345	-0.227104	0.967674	-0.109688	-0.954107	-0.198503	0.224224
42793	9.476578	-1.068841	2.211820	0.001731	0.000511	0.004047	0.195218	0.155564	0.968344	-0.227085	0.967679	-0.109677	-0.954108	-0.198486	0.224235
42794	9.495197	-1.082087	2.202716	0.003654	-0.001331	0.005571	0.195214	0.155562	0.968345	-0.227073	0.967682	-0.109679	-0.954112	-0.198474	0.224229
42795	9.461655	-1.079325	2.194960	0.002692	-0.000410	0.004809	0.195220	0.155556	0.968345	-0.227065	0.967684	-0.109673	-0.954112	-0.198467	0.224233
42796	9.500383	-1.064474	2.187392	0.004589	-0.001976	0.003892	0.195214	0.155536	0.968349	-0.227066	0.967686	-0.109654	-0.954113	-0.198473	0.224223
42797	9.485547	-1.074467	2.170394	0.002909	-0.003040	0.004730	0.195195	0.155524	0.968355	-0.227060	0.967688	-0.109648	-0.954119	-0.198472	0.224201
42798	9.437720	-1.085860	2.218891	0.001731	0.000511	0.004047	0.195213	0.155513	0.968353	-0.227038	0.967695	-0.109638	-0.954120	-0.198451	0.224214
42799	9.500298	-1.065713	2.187160	0.004424	0.000102	0.008857	0.195214	0.155548	0.968347	-0.227055	0.967687	-0.109668	-0.954116	-0.198459	0.224224
42800	9.480162	-1.094309	2.185466	0.002909	-0.003039	0.004730	0.195192	0.155536	0.968354	-0.227057	0.967688	-0.109661	-0.954120	-0.198467	0.224201
42801	9.500250	-1.066696	2.186887	0.003654	-0.001330	0.005573	0.195187	0.155536	0.968355	-0.227060	0.967687	-0.109661	-0.954120	-0.198470	0.224196
42802	9.437550	-1.087735	2.218696	0.004373	0.000655	0.003973	0.195206	0.155523	0.968353	-0.227074	0.967686	-0.109642	-0.954113	-0.198485	0.224213
42803	9.480051	-1.095372	2.185417	0.004373	0.000655	0.003973	0.195223	0.155511	0.968351	-0.227081	0.967686	-0.109624	-0.954108	-0.198493	0.224228
42804	9.485257	-1.077374	2.170221	0.003653	-0.001330	0.005573	0.195219	0.155508	0.968353	-0.227081	0.967687	-0.109622	-0.954109	-0.198495	0.224224
42805	9.461310	-1.083404	2.194441	0.006320	-0.001462	0.007942	0.195208	0.155530	0.968351	-0.227114	0.967677	-0.109638	-0.954103	-0.198524	0.224221
42806	9.513422	-1.100002	2.192979	0.003653	-0.001329	0.005574	0.195209	0.155528	0.968351	-0.227100	0.967680	-0.109639	-0.954106	-0.198511	0.224221
42807	9.476088	-1.074717	2.211072	0.003653	-0.001329	0.005574	0.195204	0.155527	0.968352	-0.227103	0.967679	-0.109639	-0.954107	-0.198514	0.224216
42808	9.461225	-1.084598	2.194216	0.003602	-0.000778	0.000688	0.195214	0.155481	0.968358	-0.227098	0.967686	-0.109592	-0.954106	-0.198519	0.224215
42809	9.499959	-1.069577	2.186747	0.004373	0.000656	0.003973	0.195231	0.155469	0.968356	-0.227105	0.967686	-0.109575	-0.954101	-0.198526	0.224231
42810	9.453041	-1.035477	2.172844	0.002908	-0.003037	0.004732	0.195213	0.155456	0.968362	-0.227096	0.967689	-0.109568	-0.954107	-0.198522	0.224209
42811	9.494669	-1.088660	2.201753	0.002692	-0.000407	0.004812	0.195219	0.155450	0.968362	-0.227088	0.967692	-0.109562	-0.954107	-0.198515	0.224213
42812	9.472216	-1.053468	2.236661	0.004563	-0.001698	0.001451	0.195224	0.155406	0.968368	-0.227076	0.967699	-0.109520	-0.954109	-0.198512	0.224207
42813	9.494631	-1.089185	2.201658	0.001757	0.000239	0.006492	0.195232	0.155418	0.968364	-0.227063	0.967701	-0.109533	-0.954111	-0.198495	0.224216
42814	9.470109	-1.090555	2.152956	0.007014	0.000800	0.003899	0.195252	0.155406	0.968362	-0.227090	0.967697	-0.109511	-0.954100	-0.198523	0.224236
42815	9.495954	-1.049200	2.212500	0.001782	-0.000035	0.008936	0.195252	0.155441	0.968357	-0.227081	0.967695	-0.109547	-0.954102	-0.198506	0.224242
42816	9.492982	-1.131470	2.191071	0.002882	-0.002762	0.002290	0.195239	0.155407	0.968365	-0.227079	0.967699	-0.109518	-0.954105	-0.198513	0.224222
42817	9.515544	-1.017436	2.140513	-0.000479	-0.004888	0.003966	0.195204	0.155384	0.968376	-0.227039	0.967709	-0.109511	-0.954122	-0.198482	0.224179
42818	9.434934	-1.084465	2.463100	0.010426	0.002377	0.007111	0.195230	0.155406	0.968367	-0.227110	0.967692	-0.109511	-0.954100	-0.198546	0.224217
42819	9.434193	-1.071398	1.852775	0.006799	0.003430	0.003979	0.195275	0.155400	0.968359	-0.227140	0.967688	-0.109488	-0.954083	-0.198573	0.224262
42820	9.590121	-1.124495	2.313004	-0.004801	-0.006094	0.004880	0.195226	0.155383	0.968371	-0.227061	0.967705	-0.109500	-0.954112	-0.198502	0.224202
42821	9.398536	-1.060067	2.089846	0.001757	0.000241	0.006494	0.195234	0.155394	0.968368	-0.227047	0.967707	-0.109513	-0.954114	-0.198485	0.224211
42822	9.511172	-1.046949	2.301840	0.008935	-0.001041	0.005427	0.195232	0.155393	0.968368	-0.227100	0.967696	-0.109500	-0.954102	-0.198539	0.224215
42823	9.475080	-1.075887	2.137163	0.002882	-0.002761	0.002291	0.195221	0.155358	0.968376	-0.227089	0.967702	-0.109469	-0.954107	-0.198537	0.224196
42824	9.442088	-1.077541	2.202554	0.002503	0.001951	0.007336	0.195243	0.155381	0.968368	-0.227085	0.967701	-0.109489	-0.954103	-0.198525	0.224222
42825	9.490384	-1.071707	2.227046	0.001972	-0.002388	0.006416	0.195226	0.155387	0.968371	-0.227073	0.967702	-0.109501	-0.954109	-0.198513	0.224205
42826	9.521802	-1.111810	2.150929	0.001732	0.000515	0.004050	0.195243	0.155375	0.968369	-0.227055	0.967708	-0.109490	-0.954110	-0.198496	0.224216
42827	9.467342	-1.032639	2.188818	0.003653	-0.001325	0.005578	0.195238	0.155375	0.968370	-0.227057	0.967707	-0.109490	-0.954111	-0.198499	0.224212
42828	9.475427	-1.082578	2.210070	0.004588	-0.001972	0.003897	0.195231	0.155357	0.968375	-0.227066	0.967707	-0.109472	-0.954110	-0.198513	0.224202
42829	9.480692	-1.064477	2.194746	0.003627	-0.001051	0.003134	0.195234	0.155333	0.968378	-0.227064	0.967710	-0.109448	-0.954110	-0.198516	0.224200
42830	9.487325	-1.155308	2.205131	0.001441	-0.006726	0.005497	0.195178	0.155321	0.968391	-0.227045	0.967714	-0.109452	-0.954126	-0.198506	0.224141
42831	9.499337	-1.078240	2.185192	0.000582	0.003793	0.005809	0.195221	0.155333	0.968380	-0.227019	0.967719	-0.109461	-0.954123	-0.198472	0.224183
42832	9.421700	-1.108878	2.200428	0.008935	-0.001040	0.005429	0.195219	0.155332	0.968381	-0.227072	0.967708	-0.109448	-0.954111	-0.198526	0.224187
42833	9.505803	-1.169416	2.196080	0.003627	-0.001051	0.003134	0.195223	0.155308	0.968384	-0.227070	0.967712	-0.109424	-0.954111	-0.198529	0.224185
42834	9.433536	-1.181432	2.195789	0.005522	-0.002618	0.002218	0.195213	0.155273	0.968392	-0.227084	0.967712	-0.109387	-0.954109	-0.198553	0.224170
42835	9.420742	-1.404255	2.157740	0.017047	-0.002968	0.002685	0.195199	0.155241	0.968399	-0.227209	0.967690	-0.109329	-0.954082	-0.198688	0.224164
42836	9.420818	-1.403873	2.157657	0.038605	-0.007083	0.001939	0.195148	0.155194	0.968417	-0.227538	0.967625	-0.109215	-0.954014	-0.199039	0.224142
42837	9.417859	-1.485476	2.136274	0.071865	-0.013436	0.018791	0.194997	0.155297	0.968431	-0.228218	0.967468	-0.109190	-0.953883	-0.199721	0.224095
42838	9.461725	-1.453460	2.113329	0.115652	-0.018433	0.052586	0.194722	0.155717	0.968419	-0.229380	0.967170	-0.109394	-0.953660	-0.200835	0.224047
42839	9.468307	-1.248390	2.093002	0.151827	-0.016797	0.087672	0.194380	0.156479	0.968365	-0.230956	0.966742	-0.109857	-0.953350	-0.202295	0.224056
42840	9.477277	-1.262201	2.124756	0.161804	-0.030808	0.092909	0.193892	0.157263	0.968336	-0.232636	0.966283	-0.110349	-0.953041	-0.203874	0.223940
42841	9.459485	-1.314175	2.024135	0.201260	-0.026596	0.099466	0.193427	0.158118	0.968290	-0.234703	0.965730	-0.110815	-0.952628	-0.205826	0.223909
42842	9.480187	-1.505206	2.005736	0.218227	-0.039648	0.108772	0.192814	0.159035	0.968262	-0.236949	0.965122	-0.111334	-0.952196	-0.207962	0.223772
42843	9.509910	-1.132324	2.113821	0.253553	-0.039098	0.116346	0.192185	0.160024	0.968224	-0.239544	0.964421	-0.111848	-0.951674	-0.210437	0.223680
42844	9.460929	-1.144359	2.088859	0.278257	-0.038535	0.119377	0.191552	0.161042	0.968180	-0.242378	0.963656	-0.112335	-0.951084	-0.213147	0.223624
42845	9.438779	-1.222159	2.150917	0.310746	-0.035532	0.129744	0.190919	0.162164	0.968118	-0.245538	0.962796	-0.112850	-0.950400	-0.216164	0.223634
42846	9.378619	-1.056449	2.175271	0.334880	-0.039105	0.132109	0.190243	0.163299	0.968061	-0.248929	0.961868	-0.113335	-0.949654	-0.219417	0.223638
42847	9.604786	-1.094934	2.025132	0.380919	-0.040049	0.139927	0.189533	0.164504	0.967996	-0.252768	0.960812	-0.113791	-0.948781	-0.223111	0.223687
42848	9.417030	-1.222172	2.088491	0.389045	-0.042120	0.147857	0.188779	0.165778	0.967926	-0.256694	0.959709	-0.114306	-0.947877	-0.226882	0.223727
42849	9.468139	-1.029226	2.028914	0.373961	-0.053024	0.151222	0.187908	0.167056	0.967875	-0.260480	0.958619	-0.114888	-0.947017	-0.230524	0.223647
42850	9.507485	-1.023147	2.092878	0.422722	-0.055418	0.151952	0.187007	0.168332	0.967829	-0.264724	0.957398	-0.115367	-0.946018	-0.234633	0.223601
42851	9.406562	-1.019093	2.068877	0.428308	-0.058219	0.170030	0.186025	0.169770	0.967767	-0.269048	0.956114	-0.116009	-0.944991	-0.238796	0.223537
42852	9.581254	-1.048782	1.991662	0.448271	-0.065175	0.176448	0.184953	0.171248	0.967712	-0.273567	0.954751	-0.116669	-0.943903	-0.243156	0.223432
42853	9.499075	-0.695037	2.281071	0.462094	-0.059816	0.190523	0.183886	0.172869	0.967627	-0.278236	0.953307	-0.117435	-0.942746	-0.247634	0.223398
42854	9.582018	-1.219277	1.752332	0.519998	-0.066943	0.190267	0.182745	0.174463	0.967557	-0.283442	0.951694	-0.118068	-0.941417	-0.252670	0.223367
42855	9.469989	-1.058120	2.006025	0.433929	-0.071355	0.215410	0.181482	0.176279	0.967466	-0.287875	0.950229	-0.119138	-0.940315	-0.256888	0.223195
42856	9.424393	-0.837082	2.232861	0.534283	-0.066185	0.220797	0.180242	0.178153	0.967354	-0.293253	0.948469	-0.120035	-0.938891	-0.262044	0.223198
42857	9.439725	-0.861501	2.076593	0.518853	-0.059082	0.228063	0.179037	0.180108	0.967216	-0.298489	0.946707	-0.121037	-0.937470	-0.267033	0.223256
42858	9.588561	-0.770695	2.015447	0.591758	-0.051932	0.238398	0.177856	0.182173	0.967047	-0.304415	0.944697	-0.121975	-0.935788	-0.272690	0.223477
42859	9.755545	-1.158006	1.797772	0.548454	-0.077168	0.245530	0.176405	0.184227	0.966924	-0.309937	0.942757	-0.123078	-0.934248	-0.277974	0.223406
42860	9.487911	-0.876663	1.860500	0.565141	-0.060534	0.253530	0.175072	0.186395	0.966750	-0.315617	0.940721	-0.124221	-0.932596	-0.283375	0.223524
42861	9.569783	-1.120584	2.083549	0.548194	-0.084002	0.263149	0.173477	0.188578	0.966615	-0.321142	0.938679	-0.125494	-0.931007	-0.288651	0.223400
42862	9.451261	-0.780006	2.072688	0.597737	-0.068408	0.277267	0.171967	0.190929	0.966423	-0.327140	0.936431	-0.126792	-0.929197	-0.294352	0.223496
42863	9.396084	-0.880916	2.108549	0.612425	-0.061735	0.280834	0.170493	0.193323	0.966208	-0.333265	0.934092	-0.128091	-0.927290	-0.300165	0.223684
42864	9.698387	-1.016402	1.886136	0.622086	-0.090128	0.281377	0.168738	0.195626	0.966053	-0.339464	0.931680	-0.129372	-0.925360	-0.306110	0.223618
42865	9.470149	-1.019224	2.026496	0.556838	-0.086801	0.298350	0.166941	0.198085	0.965864	-0.345072	0.929394	-0.130963	-0.923610	-0.311430	0.223508
42866	9.571918	-0.756296	2.112462	0.672632	-0.072432	0.298979	0.165258	0.200583	0.965638	-0.351734	0.926704	-0.132301	-0.921397	-0.317784	0.223697
42867	9.473316	-0.939970	1.822694	0.668938	-0.061901	0.322729	0.163569	0.203322	0.965352	-0.358380	0.923927	-0.133873	-0.919135	-0.324066	0.223993
42868	9.822176	-1.452858	1.734309	0.635010	-0.087375	0.319788	0.161639	0.205939	0.965123	-0.364690	0.921218	-0.135492	-0.916992	-0.330070	0.224008
42869	9.428540	-0.961619	2.089023	0.627216	-0.085698	0.329412	0.159670	0.208635	0.964871	-0.370925	0.918469	-0.137220	-0.914834	-0.335985	0.224040
42870	9.379534	-0.979888	2.139050	0.716345	-0.059600	0.345338	0.157861	0.211551	0.964534	-0.377977	0.915336	-0.138899	-0.912257	-0.342645	0.224457
42871	9.478950	-1.070526	2.044700	0.667583	-0.087120	0.353437	0.155748	0.214432	0.964241	-0.384574	0.912298	-0.140763	-0.909860	-0.348899	0.224554
42872	9.214302	-1.156552	2.294882	0.641445	-0.089364	0.360460	0.153567	0.217353	0.963937	-0.390921	0.909287	-0.142752	-0.907523	-0.354902	0.224604
42873	9.372215	-0.651343	2.293605	0.753402	-0.056856	0.371518	0.151615	0.220474	0.963537	-0.398276	0.905798	-0.144593	-0.904649	-0.361831	0.225142
42874	9.846830	-1.142541	1.805320	0.720447	-0.090549	0.365675	0.149358	0.223402	0.963215	-0.405295	0.902380	-0.146447	-0.901903	-0.368513	0.225321
42875	9.589785	-1.061610	1.964281	0.670598	-0.092024	0.379584	0.147008	0.226433	0.962869	-0.411858	0.899059	-0.148546	-0.899312	-0.374728	0.225427
42876	9.493504	-1.193774	2.071572	0.746093	-0.067389	0.393109	0.144800	0.229658	0.962440	-0.419092	0.895367	-0.150601	-0.896323	-0.381544	0.225897
42877	9.548667	-1.185457	2.149779	0.737001	-0.073259	0.402484	0.142474	0.232926	0.962001	-0.426227	0.891625	-0.152761	-0.893326	-0.388266	0.226313
42878	9.392035	-1.133777	1.932428	0.747480	-0.085937	0.406561	0.139991	0.236161	0.961577	-0.433429	0.887770	-0.154933	-0.890248	-0.395086	0.226639
42879	9.602085	-1.227169	2.206135	0.735725	-0.097522	0.403618	0.137392	0.239302	0.961175	-0.440490	0.883905	-0.157100	-0.887182	-0.401804	0.226852
42880	9.640749	-1.087778	1.899230	0.782316	-0.091601	0.405173	0.134813	0.242458	0.960749	-0.447931	0.879785	-0.159172	-0.883846	-0.408891	0.227211
42881	9.726752	-1.550000	1.766880	0.722318	-0.125820	0.413557	0.131869	0.245525	0.960379	-0.454819	0.875826	-0.161458	-0.880767	-0.415507	0.227163
42882	9.167134	-1.158625	2.125467	0.765597	-0.091478	0.429947	0.129126	0.248853	0.959895	-0.462073	0.871584	-0.163800	-0.877391	-0.422391	0.227532
42883	9.301323	-1.558666	1.972069	0.769446	-0.090575	0.444724	0.126295	0.252289	0.959375	-0.469342	0.867221	-0.166270	-0.873938	-0.429276	0.227935
42884	9.446023	-1.396157	2.156762	0.738927	-0.090709	0.452499	0.123397	0.255767	0.958831	-0.476316	0.862904	-0.168878	-0.870572	-0.435868	0.228305
42885	9.392494	-1.271518	2.090760	0.808433	-0.089363	0.453158	0.120479	0.259230	0.958272	-0.483856	0.858213	-0.171329	-0.866815	-0.443024	0.228826
42886	9.304480	-1.439095	2.274778	0.752988	-0.091504	0.463627	0.117462	0.262746	0.957689	-0.490885	0.853672	-0.174001	-0.863270	-0.449677	0.229252
42887	9.553940	-1.337900	2.204892	0.841049	-0.082806	0.457621	0.114519	0.266222	0.957085	-0.498624	0.848679	-0.176406	-0.859220	-0.457024	0.229934
42888	9.528341	-1.380511	1.979280	0.827871	-0.088358	0.463841	0.111466	0.269697	0.956472	-0.506209	0.843653	-0.178892	-0.855177	-0.464235	0.230561
