// General information: 
//  MT Manager version: 2019.2.0 
//  XDA version: 2019.2.0 build 3853 rev 94535 built on 2019-09-09
// Device information: 
//  DeviceId: 00B43FA9
//  ProductCode: MTW2-3A7G6
//  Firmware Version: 4.3.5
//  Hardware Version: 1.1.0
// Device settings: 
//  Filter Profile: human(46.1)
//  Option Flags: Orientation Smoother Disabled, AHS Disabled, ICC Disabled
// Coordinate system: ENU
PacketCounter	Acc_X	Acc_Y	Acc_Z	Gyr_X	Gyr_Y	Gyr_Z	Mat[1][1]	Mat[2][1]	Mat[3][1]	Mat[1][2]	Mat[2][2]	Mat[3][2]	Mat[1][3]	Mat[2][3]	Mat[3][3]
42075	9.464016	-0.207092	-2.404947	-0.000424	0.004107	0.001289	0.213259	0.124346	0.969050	0.570903	-0.820766	-0.020320	0.792837	0.557567	-0.246025
42076	9.409124	-0.185356	-2.395560	0.001255	0.001114	-0.001357	0.213271	0.124368	0.969045	0.570912	-0.820760	-0.020312	0.792827	0.557572	-0.246048
42077	9.423735	-0.196644	-2.411445	0.000130	0.001983	0.001765	0.213294	0.124360	0.969041	0.570906	-0.820764	-0.020330	0.792826	0.557567	-0.246061
42078	9.427181	-0.169787	-2.389784	0.000831	0.005221	-0.000068	0.213280	0.124348	0.969045	0.570910	-0.820761	-0.020333	0.792827	0.557574	-0.246044
42079	9.417181	-0.200130	-2.377197	-0.000804	-0.000150	-0.006045	0.213274	0.124417	0.969038	0.570914	-0.820760	-0.020273	0.792825	0.557561	-0.246078
42080	9.423925	-0.196303	-2.410732	0.002068	0.002954	0.002650	0.213294	0.124396	0.969036	0.570921	-0.820754	-0.020305	0.792814	0.557575	-0.246082
42081	9.419470	-0.154654	-2.406816	0.000130	0.001983	0.001765	0.213318	0.124387	0.969032	0.570914	-0.820758	-0.020324	0.792813	0.557570	-0.246097
42082	9.449831	-0.195831	-2.387376	-0.000554	0.002125	-0.000477	0.213327	0.124396	0.969029	0.570908	-0.820763	-0.020320	0.792815	0.557561	-0.246110
42083	9.424080	-0.196535	-2.410105	-0.000554	0.002125	-0.000477	0.213336	0.124407	0.969026	0.570901	-0.820767	-0.020314	0.792817	0.557552	-0.246123
42084	9.449963	-0.195797	-2.386855	0.002077	0.004645	0.000613	0.213331	0.124393	0.969028	0.570913	-0.820759	-0.020327	0.792810	0.557568	-0.246111
42085	9.427611	-0.169655	-2.388098	-0.002362	0.003136	0.000404	0.213338	0.124391	0.969027	0.570890	-0.820775	-0.020325	0.792825	0.557544	-0.246116
42086	9.409769	-0.185351	-2.393026	-0.001670	0.004684	0.000608	0.213332	0.124377	0.969030	0.570872	-0.820787	-0.020328	0.792839	0.557529	-0.246104
42087	9.446888	-0.222902	-2.407056	0.000822	0.003531	0.001970	0.213343	0.124358	0.969030	0.570871	-0.820787	-0.020350	0.792837	0.557533	-0.246102
42088	9.424511	-0.196608	-2.408415	-0.000674	0.001833	-0.004280	0.213333	0.124400	0.969027	0.570872	-0.820788	-0.020309	0.792840	0.557523	-0.246118
42089	9.450379	-0.195624	-2.385221	0.000139	0.003673	-0.000272	0.213331	0.124400	0.969028	0.570870	-0.820789	-0.020307	0.792841	0.557521	-0.246116
42090	9.410090	-0.185112	-2.391783	0.000139	0.003673	-0.000272	0.213329	0.124399	0.969028	0.570869	-0.820790	-0.020306	0.792843	0.557520	-0.246113
42091	9.424752	-0.196389	-2.407489	0.001385	0.003097	0.000409	0.213336	0.124395	0.969027	0.570875	-0.820785	-0.020316	0.792836	0.557528	-0.246118
42092	9.442756	-0.180833	-2.401906	-0.001679	0.002994	0.002646	0.213356	0.124374	0.969025	0.570853	-0.820800	-0.020339	0.792846	0.557511	-0.246122
42093	9.418179	-0.200305	-2.373224	0.000139	0.003673	-0.000272	0.213354	0.124373	0.969026	0.570852	-0.820801	-0.020338	0.792848	0.557510	-0.246119
42094	9.450815	-0.195852	-2.383475	0.005833	0.006297	-0.001419	0.213324	0.124366	0.969033	0.570898	-0.820769	-0.020340	0.792823	0.557559	-0.246090
42095	9.410526	-0.185430	-2.390041	0.001938	0.000972	0.000886	0.213351	0.124371	0.969027	0.570908	-0.820761	-0.020355	0.792808	0.557568	-0.246115
42096	9.428521	-0.169740	-2.384496	-0.001107	0.004250	-0.000953	0.213340	0.124372	0.969029	0.570898	-0.820769	-0.020345	0.792818	0.557558	-0.246107
42097	9.433128	-0.211554	-2.387801	0.000139	0.003673	-0.000272	0.213340	0.124372	0.969029	0.570897	-0.820770	-0.020344	0.792820	0.557556	-0.246107
42098	9.435443	-0.166033	-2.417394	0.002077	0.004645	0.000614	0.213335	0.124359	0.969032	0.570909	-0.820761	-0.020357	0.792812	0.557572	-0.246095
42099	9.425443	-0.196735	-2.404755	0.000692	0.001549	0.000205	0.213351	0.124366	0.969028	0.570911	-0.820760	-0.020361	0.792807	0.557572	-0.246112
42100	9.443452	-0.180996	-2.399154	0.001394	0.004788	-0.001628	0.213332	0.124370	0.969031	0.570922	-0.820752	-0.020350	0.792803	0.557583	-0.246098
42101	9.448038	-0.222771	-2.402548	0.001255	0.001114	-0.001356	0.213343	0.124393	0.969026	0.570932	-0.820745	-0.020339	0.792793	0.557587	-0.246121
42102	9.421166	-0.154792	-2.400159	-0.000295	0.006091	0.003055	0.213341	0.124352	0.969032	0.570920	-0.820753	-0.020369	0.792803	0.557585	-0.246095
42103	9.399973	-0.197646	-2.426446	0.001938	0.000972	0.000886	0.213367	0.124355	0.969025	0.570931	-0.820745	-0.020385	0.792788	0.557596	-0.246118
42104	9.443732	-0.181106	-2.398044	-0.001236	0.002267	-0.002719	0.213362	0.124382	0.969023	0.570924	-0.820750	-0.020357	0.792794	0.557582	-0.246130
42105	9.418020	-0.181717	-2.420712	0.000139	0.003674	-0.000272	0.213359	0.124379	0.969024	0.570924	-0.820751	-0.020358	0.792795	0.557582	-0.246125
42106	9.419214	-0.200174	-2.369125	-0.001236	0.002267	-0.002719	0.213354	0.124406	0.969022	0.570917	-0.820756	-0.020330	0.792802	0.557568	-0.246137
42107	9.443957	-0.180710	-2.397185	-0.000425	0.004108	0.001289	0.213356	0.124389	0.969024	0.570909	-0.820761	-0.020343	0.792807	0.557564	-0.246129
42108	9.411496	-0.185230	-2.386233	-0.001809	0.001011	0.000880	0.213381	0.124394	0.969017	0.570889	-0.820775	-0.020348	0.792814	0.557544	-0.246153
42109	9.451932	-0.195725	-2.379052	0.002640	0.004211	-0.000947	0.213370	0.124395	0.969020	0.570910	-0.820761	-0.020346	0.792802	0.557564	-0.246144
42110	9.393735	-0.200931	-2.390873	-0.001670	0.004685	0.000608	0.213364	0.124382	0.969023	0.570892	-0.820773	-0.020349	0.792816	0.557549	-0.246132
42111	9.452142	-0.195604	-2.378231	-0.000544	0.003816	-0.002514	0.213348	0.124399	0.969024	0.570890	-0.820775	-0.020325	0.792822	0.557542	-0.246129
42112	9.403965	-0.170239	-2.402623	0.000119	0.000292	0.003803	0.213396	0.124383	0.969015	0.570880	-0.820781	-0.020363	0.792817	0.557537	-0.246159
42113	9.458957	-0.192133	-2.411585	-0.000553	0.002125	-0.000476	0.213406	0.124393	0.969012	0.570872	-0.820786	-0.020358	0.792820	0.557527	-0.246173
42114	9.444438	-0.180906	-2.395277	-0.000425	0.004108	0.001289	0.213409	0.124377	0.969013	0.570863	-0.820792	-0.020371	0.792825	0.557521	-0.246167
42115	9.408679	-0.212344	-2.405498	0.002640	0.004212	-0.000946	0.213398	0.124378	0.969016	0.570884	-0.820778	-0.020370	0.792813	0.557542	-0.246158
42116	9.430046	-0.169624	-2.378468	-0.001107	0.004251	-0.000953	0.213387	0.124380	0.969018	0.570874	-0.820785	-0.020359	0.792823	0.557531	-0.246150
42117	9.418960	-0.181573	-2.417066	0.000139	0.003674	-0.000271	0.213386	0.124379	0.969018	0.570873	-0.820786	-0.020358	0.792825	0.557530	-0.246149
42118	9.452691	-0.195873	-2.376026	-0.002797	0.005554	0.003730	0.213391	0.124335	0.969023	0.570839	-0.820809	-0.020389	0.792847	0.557507	-0.246129
42119	9.394486	-0.201192	-2.387899	0.001948	0.002663	-0.001151	0.213392	0.124347	0.969021	0.570855	-0.820798	-0.020384	0.792836	0.557520	-0.246135
42120	9.459614	-0.192262	-2.408996	0.000139	0.003674	-0.000271	0.213390	0.124346	0.969022	0.570854	-0.820799	-0.020383	0.792837	0.557519	-0.246133
42121	9.412572	-0.185477	-2.381967	0.001384	0.003098	0.000410	0.213395	0.124345	0.969021	0.570859	-0.820795	-0.020389	0.792832	0.557525	-0.246137
42122	9.434004	-0.193077	-2.431316	0.000139	0.003674	-0.000271	0.213393	0.124344	0.969021	0.570858	-0.820796	-0.020388	0.792833	0.557524	-0.246134
42123	9.412730	-0.185415	-2.381348	-0.001799	0.002702	-0.001158	0.213393	0.124357	0.969019	0.570843	-0.820806	-0.020373	0.792844	0.557506	-0.246143
42124	9.453152	-0.195801	-2.374196	-0.003055	0.001588	0.000198	0.213410	0.124363	0.969015	0.570815	-0.820826	-0.020368	0.792859	0.557475	-0.246161
42125	9.409501	-0.212318	-2.402281	0.002630	0.002521	0.001092	0.213425	0.124358	0.969012	0.570832	-0.820814	-0.020387	0.792843	0.557494	-0.246170
42126	9.437575	-0.166043	-2.409054	0.001948	0.002663	-0.001150	0.213426	0.124370	0.969011	0.570847	-0.820804	-0.020382	0.792832	0.557507	-0.246177
42127	9.419760	-0.181622	-2.413942	-0.001660	0.006376	-0.001429	0.213395	0.124363	0.969018	0.570833	-0.820813	-0.020365	0.792850	0.557494	-0.246148
42128	9.432240	-0.238340	-2.399491	0.000139	0.003674	-0.000271	0.213393	0.124362	0.969019	0.570832	-0.820814	-0.020364	0.792852	0.557493	-0.246146
42129	9.419968	-0.181435	-2.413144	0.000703	0.003240	-0.001832	0.213385	0.124377	0.969019	0.570839	-0.820810	-0.020350	0.792849	0.557496	-0.246148
42130	9.435734	-0.211211	-2.377514	0.000139	0.003674	-0.000271	0.213383	0.124376	0.969019	0.570838	-0.820811	-0.020349	0.792850	0.557495	-0.246146
42131	9.427982	-0.196256	-2.394819	0.000139	0.003674	-0.000271	0.213381	0.124376	0.969020	0.570837	-0.820812	-0.020347	0.792852	0.557494	-0.246144
42132	9.445985	-0.180697	-2.389185	0.002066	0.002956	0.002653	0.213401	0.124355	0.969018	0.570844	-0.820805	-0.020379	0.792841	0.557507	-0.246148
42133	9.442770	-0.207825	-2.410073	-0.000978	0.006235	0.000814	0.213385	0.124331	0.969024	0.570831	-0.820815	-0.020385	0.792855	0.557499	-0.246122
42134	9.428317	-0.196511	-2.393478	-0.001660	0.006377	-0.001429	0.213355	0.124325	0.969032	0.570818	-0.820824	-0.020369	0.792873	0.557486	-0.246094
42135	9.421658	-0.200072	-2.359395	0.001948	0.002663	-0.001150	0.213356	0.124336	0.969030	0.570832	-0.820814	-0.020364	0.792862	0.557499	-0.246101
42136	9.428505	-0.196351	-2.392751	0.000139	0.003675	-0.000271	0.213354	0.124335	0.969031	0.570831	-0.820815	-0.020363	0.792863	0.557497	-0.246098
42137	9.446536	-0.180648	-2.387007	0.000831	0.005224	-0.000065	0.213338	0.124324	0.969036	0.570837	-0.820811	-0.020365	0.792863	0.557506	-0.246078
42138	9.425392	-0.223275	-2.413279	0.001949	0.002664	-0.001150	0.213338	0.124336	0.969034	0.570852	-0.820801	-0.020360	0.792853	0.557518	-0.246085
42139	9.428766	-0.196263	-2.391728	-0.000553	0.002126	-0.000476	0.213349	0.124346	0.969031	0.570845	-0.820806	-0.020355	0.792855	0.557509	-0.246100
42140	9.424306	-0.154319	-2.387834	0.001949	0.002664	-0.001149	0.213349	0.124358	0.969029	0.570860	-0.820795	-0.020350	0.792844	0.557521	-0.246107
42141	9.443564	-0.207356	-2.407000	-0.000967	0.007926	-0.001223	0.213310	0.124342	0.969040	0.570851	-0.820802	-0.020337	0.792861	0.557515	-0.246066
42142	9.439114	-0.165432	-2.403059	0.000553	-0.002126	0.000476	0.213358	0.124367	0.969026	0.570851	-0.820802	-0.020345	0.792848	0.557510	-0.246120
42143	9.422312	-0.199814	-2.356807	-0.000286	0.007784	0.001020	0.213327	0.124334	0.969037	0.570844	-0.820806	-0.020353	0.792861	0.557511	-0.246076
42144	9.443839	-0.207423	-2.405918	0.000139	0.003675	-0.000270	0.213325	0.124333	0.969037	0.570843	-0.820807	-0.020352	0.792862	0.557510	-0.246074
42145	9.414684	-0.184876	-2.373651	-0.000553	0.002126	-0.000476	0.213331	0.124343	0.969035	0.570838	-0.820811	-0.020345	0.792865	0.557502	-0.246084
42146	9.447278	-0.180370	-2.384093	0.001949	0.002664	-0.001149	0.213331	0.124355	0.969033	0.570853	-0.820801	-0.020340	0.792854	0.557514	-0.246091
42147	9.429429	-0.196141	-2.389126	0.000820	0.003533	0.001972	0.213341	0.124334	0.969034	0.570853	-0.820799	-0.020364	0.792850	0.557521	-0.246087
42148	9.421673	-0.181282	-2.406489	0.001949	0.002664	-0.001149	0.213342	0.124346	0.969032	0.570868	-0.820789	-0.020359	0.792840	0.557533	-0.246094
42149	9.437423	-0.211008	-2.370819	-0.002351	0.004828	-0.001634	0.213323	0.124351	0.969036	0.570850	-0.820803	-0.020338	0.792858	0.557512	-0.246082
42150	9.444309	-0.207328	-2.404079	0.000820	0.003533	0.001972	0.213335	0.124332	0.969036	0.570849	-0.820803	-0.020360	0.792856	0.557516	-0.246081
42151	9.421873	-0.181142	-2.405717	0.001682	-0.002995	-0.002645	0.213372	0.124388	0.969020	0.570864	-0.820793	-0.020340	0.792835	0.557518	-0.246142
42152	9.447651	-0.180275	-2.382620	0.000831	0.005224	-0.000064	0.213358	0.124376	0.969025	0.570867	-0.820790	-0.020342	0.792836	0.557525	-0.246125
42153	9.444457	-0.207292	-2.403502	-0.000425	0.004110	0.001290	0.213362	0.124360	0.969026	0.570858	-0.820796	-0.020356	0.792842	0.557519	-0.246119
42154	9.404186	-0.196852	-2.410134	0.000139	0.003675	-0.000270	0.213360	0.124359	0.969027	0.570857	-0.820797	-0.020355	0.792843	0.557518	-0.246116
42155	9.454726	-0.176686	-2.415143	-0.002363	0.003137	0.000402	0.213365	0.124356	0.969026	0.570834	-0.820813	-0.020354	0.792858	0.557496	-0.246120
42156	9.448030	-0.180429	-2.381105	-0.002235	0.005121	0.002169	0.213366	0.124327	0.969029	0.570809	-0.820830	-0.020371	0.792876	0.557477	-0.246104
42157	9.430161	-0.196251	-2.386225	0.001245	-0.000577	0.000682	0.213405	0.124344	0.969019	0.570813	-0.820827	-0.020381	0.792863	0.557478	-0.246146
42158	9.438010	-0.211198	-2.368463	0.001949	0.002664	-0.001149	0.213406	0.124356	0.969017	0.570828	-0.820817	-0.020376	0.792852	0.557490	-0.246153
42159	9.455012	-0.176773	-2.414014	-0.001659	0.006378	-0.001428	0.213375	0.124349	0.969024	0.570814	-0.820827	-0.020359	0.792870	0.557477	-0.246124
42160	9.404658	-0.196802	-2.408295	-0.000553	0.002126	-0.000476	0.213384	0.124359	0.969021	0.570807	-0.820832	-0.020354	0.792872	0.557468	-0.246137
42161	9.445064	-0.207276	-2.401114	0.000692	0.001549	0.000206	0.213400	0.124366	0.969017	0.570810	-0.820830	-0.020358	0.792866	0.557469	-0.246155
42162	9.445127	-0.207282	-2.400866	0.000139	0.003675	-0.000270	0.213398	0.124365	0.969017	0.570808	-0.820831	-0.020357	0.792868	0.557467	-0.246152
42163	9.422773	-0.181076	-2.402193	0.000139	0.003676	-0.000270	0.213397	0.124366	0.969018	0.570806	-0.820833	-0.020355	0.792870	0.557464	-0.246152
42164	9.445297	-0.207285	-2.400198	0.001384	0.003099	0.000412	0.213403	0.124363	0.969017	0.570813	-0.820828	-0.020364	0.792863	0.557473	-0.246155
42165	9.398208	-0.200504	-2.373268	-0.002363	0.003138	0.000402	0.213410	0.124358	0.969016	0.570790	-0.820843	-0.020365	0.792877	0.557451	-0.246159
42166	9.430863	-0.195962	-2.383472	-0.001659	0.006379	-0.001428	0.213380	0.124351	0.969023	0.570777	-0.820853	-0.020348	0.792895	0.557438	-0.246130
42167	9.460221	-0.218350	-2.415017	0.001949	0.002664	-0.001148	0.213382	0.124361	0.969021	0.570791	-0.820843	-0.020345	0.792884	0.557450	-0.246137
42168	9.390653	-0.185282	-2.389909	-0.001245	0.000577	-0.000682	0.213402	0.124381	0.969015	0.570780	-0.820851	-0.020337	0.792887	0.557434	-0.246165
42169	9.463634	-0.191232	-2.393237	-0.000414	0.005802	-0.000746	0.213379	0.124373	0.969021	0.570776	-0.820854	-0.020329	0.792897	0.557431	-0.246142
42170	9.431183	-0.195724	-2.382226	0.000127	0.001984	0.001767	0.213401	0.124364	0.969017	0.570770	-0.820858	-0.020348	0.792895	0.557428	-0.246156
42171	9.449192	-0.180069	-2.376517	-0.000414	0.005802	-0.000746	0.213379	0.124356	0.969023	0.570765	-0.820862	-0.020341	0.792904	0.557424	-0.246133
42172	9.420290	-0.207738	-2.420375	0.002641	0.004214	-0.000941	0.213369	0.124357	0.969025	0.570785	-0.820848	-0.020339	0.792892	0.557444	-0.246125
42173	9.441570	-0.165157	-2.393411	0.000127	0.001984	0.001767	0.213390	0.124348	0.969021	0.570779	-0.820851	-0.020358	0.792891	0.557441	-0.246137
42174	9.446196	-0.207038	-2.396679	-0.001659	0.006379	-0.001428	0.213360	0.124342	0.969029	0.570766	-0.820861	-0.020342	0.792908	0.557429	-0.246109
42175	9.423842	-0.180832	-2.398015	0.001937	0.000973	0.000889	0.213386	0.124346	0.969022	0.570776	-0.820853	-0.020356	0.792894	0.557439	-0.246133
42176	9.438534	-0.192093	-2.413749	-0.001106	0.004253	-0.000952	0.213375	0.124348	0.969025	0.570767	-0.820860	-0.020345	0.792904	0.557428	-0.246125
42177	9.457560	-0.194950	-2.356644	0.000831	0.005226	-0.000063	0.213362	0.124336	0.969029	0.570771	-0.820857	-0.020349	0.792905	0.557435	-0.246107
42178	9.425112	-0.199439	-2.345615	0.001384	0.003099	0.000413	0.213368	0.124333	0.969028	0.570778	-0.820852	-0.020358	0.792898	0.557443	-0.246110
42179	9.421889	-0.226399	-2.366694	-0.000553	0.002126	-0.000476	0.213379	0.124342	0.969024	0.570771	-0.820857	-0.020354	0.792900	0.557434	-0.246124
42180	9.438846	-0.192015	-2.412534	-0.001245	0.000577	-0.000682	0.213399	0.124362	0.969018	0.570760	-0.820865	-0.020346	0.792902	0.557418	-0.246152
42181	9.424274	-0.180702	-2.396327	0.002641	0.004214	-0.000941	0.213387	0.124364	0.969020	0.570780	-0.820851	-0.020343	0.792891	0.557438	-0.246144
42182	9.432146	-0.195685	-2.378411	0.001937	0.000973	0.000889	0.213413	0.124369	0.969014	0.570790	-0.820843	-0.020358	0.792877	0.557448	-0.246167
42183	9.406532	-0.196564	-2.400985	0.002216	0.008325	0.000351	0.213376	0.124336	0.969026	0.570806	-0.820832	-0.020369	0.792875	0.557472	-0.246118
42184	9.464924	-0.191474	-2.388108	0.000127	0.001984	0.001767	0.213399	0.124328	0.969022	0.570801	-0.820836	-0.020387	0.792873	0.557469	-0.246132
42185	9.429147	-0.222997	-2.398593	-0.001118	0.002561	0.001084	0.213413	0.124320	0.969020	0.570787	-0.820845	-0.020398	0.792879	0.557457	-0.246139
42186	9.439298	-0.192357	-2.410738	0.001257	0.001115	-0.001354	0.213425	0.124342	0.969014	0.570797	-0.820838	-0.020390	0.792869	0.557462	-0.246161
42187	9.413639	-0.193134	-2.433510	-0.000426	0.004111	0.001291	0.213163	0.124710	0.969025	0.571009	-0.820701	-0.019987	0.792787	0.557582	-0.246153
42188	9.439450	-0.192387	-2.410142	0.004452	0.003203	-0.001818	0.213155	0.124725	0.969025	0.571045	-0.820676	-0.019982	0.792763	0.557616	-0.246154
42189	9.424914	-0.180995	-2.393787	-0.002350	0.004830	-0.001635	0.213136	0.124729	0.969028	0.571026	-0.820689	-0.019961	0.792781	0.557595	-0.246142
42190	9.431860	-0.177224	-2.426986	-0.001671	0.004688	0.000609	0.213130	0.124715	0.969031	0.571009	-0.820701	-0.019963	0.792795	0.557580	-0.246130
42191	9.425118	-0.181012	-2.392983	-0.001684	0.002996	0.002645	0.213149	0.124695	0.969030	0.570986	-0.820717	-0.019985	0.792807	0.557562	-0.246134
42192	9.433010	-0.195919	-2.374965	0.001963	0.004357	-0.003183	0.213124	0.124714	0.969033	0.571005	-0.820704	-0.019960	0.792800	0.557577	-0.246124
42193	9.422020	-0.207788	-2.413628	0.001950	0.002665	-0.001147	0.213125	0.124725	0.969031	0.571020	-0.820694	-0.019956	0.792789	0.557589	-0.246131
42194	9.433156	-0.195702	-2.374403	-0.000553	0.002127	-0.000476	0.213134	0.124735	0.969028	0.571014	-0.820698	-0.019951	0.792791	0.557580	-0.246144
42195	9.399704	-0.181619	-2.414834	0.000819	0.003535	0.001974	0.213144	0.124715	0.969028	0.571012	-0.820699	-0.019973	0.792789	0.557584	-0.246140
42196	9.422210	-0.207763	-2.412889	-0.003734	0.001730	-0.002048	0.213146	0.124740	0.969025	0.570984	-0.820719	-0.019945	0.792809	0.557549	-0.246158
42197	9.433358	-0.195584	-2.373611	0.002642	0.004215	-0.000939	0.213135	0.124743	0.969027	0.571004	-0.820705	-0.019941	0.792798	0.557568	-0.246149
42198	9.430171	-0.222495	-2.394608	0.001950	0.002665	-0.001146	0.213135	0.124755	0.969025	0.571019	-0.820695	-0.019936	0.792787	0.557581	-0.246156
42199	9.425655	-0.180743	-2.390887	-0.000579	-0.001257	0.003596	0.213194	0.124750	0.969013	0.571002	-0.820706	-0.019970	0.792783	0.557566	-0.246202
42200	9.422428	-0.207868	-2.412026	0.000832	0.005227	-0.000062	0.213180	0.124739	0.969017	0.571006	-0.820703	-0.019972	0.792784	0.557572	-0.246184
42201	9.448226	-0.207007	-2.388668	0.000013	0.001692	-0.002036	0.213184	0.124765	0.969013	0.571009	-0.820701	-0.019954	0.792781	0.557569	-0.246203
42202	9.407942	-0.196485	-2.395458	-0.000426	0.004112	0.001291	0.213187	0.124749	0.969014	0.571000	-0.820707	-0.019966	0.792786	0.557564	-0.246196
42203	9.448402	-0.206963	-2.387973	0.001397	0.004792	-0.001622	0.213167	0.124751	0.969019	0.571011	-0.820700	-0.019956	0.792784	0.557574	-0.246181
42204	9.432901	-0.177082	-2.422946	0.001384	0.003100	0.000414	0.213173	0.124748	0.969018	0.571018	-0.820695	-0.019964	0.792777	0.557582	-0.246183
42205	9.419261	-0.184417	-2.355462	0.001258	0.001115	-0.001353	0.213186	0.124772	0.969012	0.571028	-0.820688	-0.019955	0.792766	0.557587	-0.246208
42206	9.440844	-0.191862	-2.404716	-0.001658	0.006380	-0.001427	0.213156	0.124766	0.969019	0.571015	-0.820697	-0.019938	0.792784	0.557575	-0.246179
42207	9.408377	-0.196287	-2.393765	0.001937	0.000973	0.000890	0.213181	0.124771	0.969013	0.571026	-0.820689	-0.019952	0.792769	0.557585	-0.246202
42208	9.463445	-0.218028	-2.402383	0.001397	0.004792	-0.001622	0.213162	0.124775	0.969017	0.571038	-0.820681	-0.019941	0.792766	0.557596	-0.246189
42209	9.426460	-0.180520	-2.387728	0.000139	0.003677	-0.000269	0.213160	0.124774	0.969017	0.571039	-0.820681	-0.019941	0.792766	0.557597	-0.246187
42210	9.437930	-0.218643	-2.424691	0.000705	0.003242	-0.001829	0.213152	0.124788	0.969017	0.571045	-0.820677	-0.019926	0.792763	0.557600	-0.246189
42211	9.416507	-0.211019	-2.374786	0.001384	0.003100	0.000414	0.213158	0.124788	0.969016	0.571053	-0.820671	-0.019932	0.792756	0.557608	-0.246193
42212	9.444606	-0.164645	-2.381437	0.000705	0.003242	-0.001829	0.213150	0.124802	0.969016	0.571059	-0.820667	-0.019917	0.792754	0.557611	-0.246195
42213	9.438226	-0.218413	-2.423561	-0.000966	0.007931	-0.001220	0.213107	0.124785	0.969027	0.571052	-0.820672	-0.019904	0.792770	0.557607	-0.246150
42214	9.449413	-0.206416	-2.384016	0.000818	0.003535	0.001975	0.213119	0.124767	0.969027	0.571051	-0.820672	-0.019926	0.792768	0.557611	-0.246149
42215	9.427043	-0.180307	-2.385438	0.001950	0.002665	-0.001145	0.213119	0.124778	0.969026	0.571066	-0.820663	-0.019921	0.792757	0.557623	-0.246155
42216	9.441754	-0.191502	-2.401171	-0.000553	0.002127	-0.000476	0.213128	0.124788	0.969022	0.571059	-0.820667	-0.019916	0.792760	0.557614	-0.246168
42217	9.417030	-0.210866	-2.372725	0.000692	0.001550	0.000207	0.213143	0.124794	0.969018	0.571060	-0.820667	-0.019920	0.792755	0.557613	-0.246184
42218	9.441872	-0.191563	-2.400702	0.002076	0.004651	0.000622	0.213137	0.124780	0.969021	0.571072	-0.820658	-0.019932	0.792748	0.557629	-0.246171
42219	9.416282	-0.192337	-2.423328	-0.001105	0.004254	-0.000952	0.213125	0.124782	0.969024	0.571062	-0.820665	-0.019921	0.792759	0.557618	-0.246162
42220	9.449875	-0.206481	-2.382179	0.002076	0.004651	0.000622	0.213120	0.124768	0.969027	0.571074	-0.820657	-0.019933	0.792751	0.557634	-0.246150
42221	9.409640	-0.195953	-2.388824	-0.002349	0.004831	-0.001635	0.213101	0.124773	0.969030	0.571057	-0.820669	-0.019913	0.792768	0.557615	-0.246137
42222	9.445522	-0.164506	-2.377813	0.001936	0.000974	0.000891	0.213126	0.124777	0.969024	0.571068	-0.820661	-0.019927	0.792754	0.557625	-0.246161
42223	9.409776	-0.195987	-2.388285	-0.001671	0.004689	0.000609	0.213120	0.124763	0.969027	0.571051	-0.820673	-0.019930	0.792768	0.557611	-0.246148
42224	9.442460	-0.191621	-2.398383	0.000265	0.005663	0.001499	0.213112	0.124737	0.969033	0.571047	-0.820675	-0.019946	0.792773	0.557614	-0.246126
42225	9.427888	-0.180458	-2.382087	0.000692	0.001550	0.000208	0.213128	0.124744	0.969028	0.571049	-0.820673	-0.019951	0.792767	0.557615	-0.246144
42226	9.434811	-0.176775	-2.415522	0.001950	0.002666	-0.001145	0.213129	0.124756	0.969026	0.571064	-0.820663	-0.019945	0.792756	0.557627	-0.246151
42227	9.424768	-0.207362	-2.402911	0.000140	0.003678	-0.000268	0.213128	0.124756	0.969027	0.571063	-0.820664	-0.019944	0.792757	0.557626	-0.246150
42228	9.442732	-0.191599	-2.397311	0.001258	0.001115	-0.001352	0.213139	0.124779	0.969021	0.571073	-0.820657	-0.019935	0.792747	0.557631	-0.246172
42229	9.457465	-0.202700	-2.412984	-0.002349	0.004831	-0.001635	0.213123	0.124782	0.969024	0.571057	-0.820669	-0.019917	0.792763	0.557613	-0.246161
42230	9.395683	-0.184636	-2.370107	0.000817	0.003536	0.001975	0.213134	0.124764	0.969024	0.571056	-0.820669	-0.019939	0.792760	0.557617	-0.246160
42231	9.435190	-0.176591	-2.414054	-0.000552	0.002127	-0.000476	0.213141	0.124775	0.969021	0.571048	-0.820675	-0.019932	0.792764	0.557606	-0.246172
42232	9.436176	-0.195212	-2.362414	0.002076	0.004651	0.000623	0.213136	0.124761	0.969024	0.571060	-0.820666	-0.019944	0.792757	0.557622	-0.246160
42233	9.417450	-0.192345	-2.418787	-0.000552	0.002127	-0.000476	0.213144	0.124770	0.969021	0.571054	-0.820670	-0.019939	0.792759	0.557613	-0.246171
42234	9.450067	-0.187839	-2.429162	-0.000552	0.002127	-0.000476	0.213152	0.124780	0.969018	0.571047	-0.820675	-0.019934	0.792762	0.557604	-0.246184
42235	9.421714	-0.183884	-2.345669	0.000140	0.003678	-0.000268	0.213149	0.124780	0.969019	0.571045	-0.820677	-0.019931	0.792764	0.557602	-0.246181
42236	9.450217	-0.187711	-2.428588	-0.001797	0.002704	-0.001159	0.213149	0.124792	0.969017	0.571030	-0.820687	-0.019917	0.792775	0.557584	-0.246189
42237	9.451200	-0.206218	-2.376941	0.002642	0.004216	-0.000936	0.213138	0.124794	0.969019	0.571048	-0.820675	-0.019914	0.792765	0.557601	-0.246180
42238	9.417792	-0.191992	-2.417480	0.003070	0.000104	-0.002229	0.213152	0.124829	0.969012	0.571075	-0.820657	-0.019900	0.792742	0.557620	-0.246212
42239	9.436649	-0.194821	-2.360555	-0.001671	0.004690	0.000609	0.213146	0.124817	0.969015	0.571055	-0.820670	-0.019902	0.792758	0.557603	-0.246200
42240	9.428987	-0.179913	-2.377774	0.000831	0.005228	-0.000060	0.213132	0.124806	0.969019	0.571059	-0.820668	-0.019904	0.792758	0.557610	-0.246182
42241	9.440508	-0.218037	-2.414692	0.002517	0.002231	-0.002704	0.213128	0.124836	0.969016	0.571082	-0.820652	-0.019883	0.792743	0.557626	-0.246196
42242	9.429162	-0.179734	-2.377093	-0.001671	0.004690	0.000609	0.213123	0.124822	0.969019	0.571065	-0.820664	-0.019886	0.792757	0.557611	-0.246184
42243	9.418220	-0.191730	-2.415832	0.001259	0.001116	-0.001352	0.213135	0.124844	0.969014	0.571075	-0.820657	-0.019878	0.792747	0.557616	-0.246206
42244	9.426064	-0.206547	-2.397892	-0.001105	0.004255	-0.000951	0.213124	0.124845	0.969016	0.571065	-0.820664	-0.019867	0.792756	0.557605	-0.246198
42245	9.429378	-0.179612	-2.376245	0.002628	0.002524	0.001100	0.213137	0.124840	0.969014	0.571079	-0.820654	-0.019884	0.792743	0.557621	-0.246205
42246	9.473445	-0.213430	-2.423828	0.001951	0.002666	-0.001144	0.213137	0.124852	0.969012	0.571094	-0.820644	-0.019879	0.792732	0.557634	-0.246212
42247	9.403860	-0.180558	-2.398680	-0.002805	0.005560	0.003728	0.213143	0.124807	0.969017	0.571060	-0.820667	-0.019909	0.792755	0.557610	-0.246191
42248	9.444308	-0.191096	-2.391139	0.000707	0.003243	-0.001827	0.213135	0.124822	0.969017	0.571066	-0.820663	-0.019894	0.792753	0.557613	-0.246193
42249	9.418730	-0.191854	-2.413836	0.002076	0.004652	0.000624	0.213131	0.124810	0.969019	0.571079	-0.820654	-0.019906	0.792745	0.557628	-0.246183
42250	9.444502	-0.191116	-2.390368	0.000140	0.003678	-0.000268	0.213129	0.124809	0.969019	0.571077	-0.820655	-0.019904	0.792746	0.557627	-0.246181
42251	9.429919	-0.179838	-2.374079	0.000140	0.003678	-0.000268	0.213126	0.124807	0.969020	0.571076	-0.820656	-0.019905	0.792748	0.557627	-0.246177
42252	9.441444	-0.218034	-2.411026	-0.002363	0.003139	0.000400	0.213132	0.124804	0.969020	0.571054	-0.820672	-0.019904	0.792763	0.557604	-0.246181
42253	9.436997	-0.175900	-2.407031	0.001289	0.004501	-0.005422	0.213090	0.124839	0.969024	0.571068	-0.820662	-0.019853	0.792763	0.557609	-0.246166
42254	9.444801	-0.190612	-2.389227	0.000552	-0.002128	0.000476	0.213137	0.124865	0.969010	0.571069	-0.820662	-0.019860	0.792750	0.557604	-0.246220
42255	9.426976	-0.206390	-2.394318	0.002215	0.008331	0.000357	0.213099	0.124832	0.969023	0.571083	-0.820652	-0.019869	0.792750	0.557626	-0.246170
42256	9.427105	-0.206471	-2.393803	-0.001119	0.002563	0.001084	0.213113	0.124827	0.969021	0.571069	-0.820662	-0.019878	0.792757	0.557614	-0.246178
42257	9.445081	-0.190678	-2.388116	-0.000537	0.003820	-0.002511	0.213096	0.124842	0.969022	0.571067	-0.820663	-0.019854	0.792763	0.557607	-0.246174
42258	9.445162	-0.190658	-2.387796	-0.001687	0.002998	0.002644	0.213116	0.124822	0.969021	0.571045	-0.820678	-0.019876	0.792773	0.557590	-0.246178
42259	9.419567	-0.191582	-2.410590	0.001384	0.003102	0.000417	0.213122	0.124820	0.969020	0.571052	-0.820673	-0.019883	0.792766	0.557598	-0.246182
42260	9.445298	-0.190919	-2.387239	0.002628	0.002525	0.001101	0.213136	0.124814	0.969017	0.571068	-0.820662	-0.019901	0.792751	0.557616	-0.246190
42261	9.460063	-0.202152	-2.402827	-0.002348	0.004832	-0.001635	0.213117	0.124818	0.969021	0.571049	-0.820675	-0.019881	0.792770	0.557595	-0.246177
42262	9.409662	-0.222268	-2.397399	0.001936	0.000974	0.000892	0.213142	0.124823	0.969015	0.571059	-0.820668	-0.019895	0.792756	0.557606	-0.246200
42263	9.452427	-0.187130	-2.420018	-0.000537	0.003820	-0.002511	0.213124	0.124839	0.969017	0.571055	-0.820671	-0.019870	0.792763	0.557597	-0.246195
42264	9.398386	-0.183826	-2.359431	0.002091	0.006345	-0.001410	0.213094	0.124833	0.969024	0.571072	-0.820660	-0.019862	0.792759	0.557615	-0.246166
42265	9.460444	-0.201900	-2.401345	-0.000428	0.004114	0.001293	0.213096	0.124817	0.969026	0.571063	-0.820665	-0.019874	0.792765	0.557610	-0.246158
42266	9.420186	-0.191454	-2.408179	0.001951	0.002667	-0.001143	0.213096	0.124829	0.969024	0.571078	-0.820655	-0.019869	0.792755	0.557623	-0.246165
42267	9.410113	-0.222023	-2.395650	-0.000552	0.002128	-0.000476	0.213105	0.124838	0.969021	0.571071	-0.820660	-0.019864	0.792757	0.557613	-0.246178
42268	9.456092	-0.159809	-2.396957	-0.001228	0.002270	-0.002719	0.213100	0.124865	0.969019	0.571064	-0.820666	-0.019836	0.792764	0.557599	-0.246190
42269	9.410235	-0.221925	-2.395178	0.001492	0.003395	0.004221	0.213128	0.124830	0.969017	0.571065	-0.820664	-0.019882	0.792756	0.557609	-0.246192
42270	9.435128	-0.202511	-2.423109	0.000599	0.002950	-0.005630	0.213101	0.124877	0.969017	0.571079	-0.820656	-0.019830	0.792753	0.557611	-0.246197
42271	9.446206	-0.190219	-2.383699	0.000831	0.005230	-0.000058	0.213085	0.124867	0.969022	0.571081	-0.820654	-0.019831	0.792755	0.557615	-0.246178
42272	9.446305	-0.190262	-2.383304	0.001384	0.003102	0.000417	0.213091	0.124863	0.969021	0.571088	-0.820649	-0.019840	0.792749	0.557624	-0.246181
42273	9.427632	-0.187504	-2.439782	0.000124	0.001986	0.001768	0.213114	0.124856	0.969017	0.571083	-0.820652	-0.019858	0.792746	0.557621	-0.246196
42274	9.410641	-0.221872	-2.393589	0.000140	0.003679	-0.000267	0.213112	0.124856	0.969017	0.571081	-0.820653	-0.019856	0.792748	0.557619	-0.246194
42275	9.446510	-0.190483	-2.382472	0.001384	0.003102	0.000417	0.213117	0.124853	0.969016	0.571087	-0.820649	-0.019864	0.792742	0.557626	-0.246196
42276	9.435624	-0.202550	-2.421174	0.000140	0.003679	-0.000267	0.213115	0.124852	0.969017	0.571086	-0.820650	-0.019862	0.792744	0.557625	-0.246194
42277	9.435699	-0.202396	-2.420895	-0.001228	0.002270	-0.002719	0.213109	0.124879	0.969015	0.571079	-0.820656	-0.019834	0.792751	0.557610	-0.246205
42278	9.428012	-0.187435	-2.438320	0.000816	0.003537	0.001977	0.213121	0.124861	0.969015	0.571078	-0.820656	-0.019856	0.792748	0.557615	-0.246204
42279	9.464723	-0.174719	-2.375809	-0.001672	0.004691	0.000609	0.213115	0.124846	0.969018	0.571061	-0.820668	-0.019860	0.792762	0.557600	-0.246191
42280	9.443690	-0.217417	-2.402270	-0.001812	0.001012	0.000875	0.213140	0.124851	0.969012	0.571042	-0.820681	-0.019865	0.792769	0.557580	-0.246215
42281	9.439192	-0.175475	-2.398442	0.000708	0.003244	-0.001826	0.213133	0.124865	0.969011	0.571048	-0.820677	-0.019851	0.792767	0.557582	-0.246217
42282	9.443846	-0.217288	-2.401668	0.000832	0.005230	-0.000058	0.213119	0.124854	0.969016	0.571051	-0.820674	-0.019853	0.792768	0.557589	-0.246199
42283	9.406806	-0.179901	-2.387151	-0.001120	0.002563	0.001084	0.213134	0.124846	0.969014	0.571037	-0.820684	-0.019863	0.792774	0.557576	-0.246207
42284	9.451756	-0.232216	-2.383356	-0.001796	0.002705	-0.001160	0.213134	0.124858	0.969012	0.571022	-0.820695	-0.019849	0.792785	0.557558	-0.246215
42285	9.406953	-0.179775	-2.386579	0.002643	0.004218	-0.000933	0.213124	0.124859	0.969014	0.571043	-0.820680	-0.019848	0.792772	0.557579	-0.246207
42286	9.454341	-0.186707	-2.412561	-0.002808	0.005562	0.003728	0.213130	0.124815	0.969019	0.571010	-0.820703	-0.019879	0.792795	0.557556	-0.246187
42287	9.429584	-0.206288	-2.384035	0.001935	0.000974	0.000893	0.213153	0.124821	0.969013	0.571018	-0.820696	-0.019891	0.792783	0.557564	-0.246208
42288	9.421877	-0.191221	-2.401574	0.001844	0.002374	-0.004945	0.213134	0.124866	0.969011	0.571040	-0.820682	-0.019848	0.792772	0.557575	-0.246218
42289	9.436665	-0.202273	-2.417135	0.000832	0.005231	-0.000057	0.213121	0.124855	0.969015	0.571045	-0.820679	-0.019851	0.792772	0.557582	-0.246201
42290	9.404181	-0.206769	-2.406225	0.001383	0.003103	0.000418	0.213127	0.124852	0.969014	0.571052	-0.820674	-0.019859	0.792765	0.557590	-0.246204
42291	9.454716	-0.186549	-2.411105	0.000016	0.001693	-0.002035	0.213129	0.124877	0.969011	0.571051	-0.820675	-0.019839	0.792765	0.557583	-0.246221
42292	9.404323	-0.206555	-2.405692	0.001400	0.004796	-0.001617	0.213110	0.124881	0.969014	0.571063	-0.820667	-0.019828	0.792762	0.557593	-0.246208
42293	9.436967	-0.201997	-2.415978	-0.003747	0.000038	-0.000019	0.213139	0.124899	0.969006	0.571031	-0.820690	-0.019819	0.792777	0.557556	-0.246242
42294	9.440225	-0.174995	-2.394405	0.000832	0.005231	-0.000057	0.213125	0.124888	0.969010	0.571034	-0.820687	-0.019822	0.792778	0.557563	-0.246224
42295	9.430188	-0.205373	-2.381724	0.000601	0.002951	-0.005629	0.213100	0.124936	0.969010	0.571050	-0.820677	-0.019772	0.792774	0.557566	-0.246231
42296	9.448184	-0.189479	-2.375907	0.000263	0.005666	0.001503	0.213092	0.124909	0.969015	0.571046	-0.820680	-0.019788	0.792779	0.557568	-0.246209
42297	9.419437	-0.217438	-2.420013	0.001367	0.001410	0.002453	0.213123	0.124898	0.969009	0.571048	-0.820678	-0.019817	0.792769	0.557574	-0.246228
42298	9.455269	-0.186075	-2.408970	0.000708	0.003245	-0.001826	0.213115	0.124913	0.969009	0.571054	-0.820673	-0.019802	0.792767	0.557577	-0.246230
42299	9.422764	-0.190374	-2.398156	0.000708	0.003245	-0.001826	0.213107	0.124928	0.969009	0.571060	-0.820670	-0.019785	0.792765	0.557578	-0.246232
42300	9.433784	-0.178241	-2.358797	0.000140	0.003680	-0.000266	0.213105	0.124928	0.969010	0.571058	-0.820671	-0.019784	0.792766	0.557577	-0.246230
42301	9.455503	-0.185905	-2.408065	0.000123	0.001987	0.001769	0.213127	0.124921	0.969005	0.571053	-0.820674	-0.019801	0.792764	0.557574	-0.246245
42302	9.408271	-0.179159	-2.381426	0.001952	0.002668	-0.001141	0.213128	0.124933	0.969004	0.571068	-0.820664	-0.019796	0.792753	0.557586	-0.246252
42303	9.437812	-0.201454	-2.412720	0.000865	0.008618	-0.004126	0.213064	0.124937	0.969017	0.571078	-0.820658	-0.019757	0.792764	0.557594	-0.246202
42304	9.437935	-0.201402	-2.412245	0.001367	0.001410	0.002453	0.213095	0.124927	0.969012	0.571080	-0.820656	-0.019785	0.792753	0.557600	-0.246221
42305	9.437991	-0.201457	-2.412023	0.000708	0.003245	-0.001825	0.213088	0.124942	0.969011	0.571086	-0.820652	-0.019770	0.792751	0.557602	-0.246224
42306	9.448988	-0.189370	-2.372716	-0.001120	0.002564	0.001084	0.213102	0.124937	0.969009	0.571072	-0.820662	-0.019779	0.792757	0.557589	-0.246232
42307	9.390843	-0.194644	-2.385048	0.000140	0.003680	-0.000266	0.213099	0.124935	0.969010	0.571073	-0.820661	-0.019779	0.792758	0.557590	-0.246229
42308	9.456108	-0.185780	-2.405700	-0.002932	0.003576	0.001959	0.213110	0.124917	0.969010	0.571042	-0.820682	-0.019792	0.792776	0.557563	-0.246228
42309	9.449273	-0.189525	-2.371566	0.004027	0.007323	-0.000512	0.213077	0.124896	0.969020	0.571072	-0.820661	-0.019799	0.792764	0.557599	-0.246189
42310	9.438466	-0.201567	-2.410151	-0.000552	0.002129	-0.000475	0.213086	0.124906	0.969017	0.571066	-0.820666	-0.019794	0.792766	0.557590	-0.246202
42311	9.423827	-0.190385	-2.393974	0.000815	0.003539	0.001978	0.213096	0.124886	0.969017	0.571065	-0.820666	-0.019816	0.792764	0.557594	-0.246199
42312	9.478949	-0.212016	-2.402337	0.000034	0.003387	-0.004069	0.213074	0.124918	0.969017	0.571071	-0.820662	-0.019778	0.792766	0.557592	-0.246199
42313	9.424001	-0.190095	-2.393314	0.000140	0.003680	-0.000266	0.213072	0.124915	0.969018	0.571069	-0.820664	-0.019778	0.792768	0.557590	-0.246196
42314	9.431045	-0.186458	-2.426638	-0.001121	0.002564	0.001084	0.213086	0.124910	0.969016	0.571055	-0.820673	-0.019786	0.792774	0.557577	-0.246204
42315	9.438846	-0.201384	-2.408681	0.001952	0.002668	-0.001140	0.213086	0.124922	0.969014	0.571071	-0.820662	-0.019782	0.792763	0.557591	-0.246211
42316	9.424226	-0.190107	-2.392426	-0.001672	0.004693	0.000609	0.213081	0.124908	0.969017	0.571053	-0.820675	-0.019784	0.792777	0.557576	-0.246199
42317	9.471621	-0.196771	-2.418464	0.001278	0.002810	-0.003384	0.213066	0.124939	0.969017	0.571067	-0.820666	-0.019754	0.792771	0.557582	-0.246205
42318	9.424359	-0.189894	-2.391920	-0.000569	0.000435	0.001559	0.213100	0.124942	0.969009	0.571056	-0.820673	-0.019768	0.792769	0.557571	-0.246234
42319	9.442331	-0.174162	-2.386150	0.000849	0.006926	-0.002090	0.213060	0.124936	0.969018	0.571063	-0.820669	-0.019751	0.792775	0.557579	-0.246198
42320	9.439258	-0.200990	-2.407096	0.001261	0.001117	-0.001350	0.213071	0.124959	0.969013	0.571073	-0.820662	-0.019742	0.792765	0.557584	-0.246220
42321	9.439347	-0.200969	-2.406749	-0.000981	0.006244	0.000819	0.213051	0.124932	0.969021	0.571060	-0.820671	-0.019749	0.792780	0.557576	-0.246189
42322	9.439444	-0.200900	-2.406375	0.000017	0.001693	-0.002034	0.213055	0.124957	0.969017	0.571061	-0.820670	-0.019730	0.792778	0.557571	-0.246206
42323	9.410077	-0.178331	-2.374341	0.001383	0.003104	0.000420	0.213059	0.124953	0.969016	0.571068	-0.820666	-0.019738	0.792772	0.557579	-0.246207
42324	9.421710	-0.216576	-2.411223	0.002644	0.004220	-0.000930	0.213049	0.124955	0.969018	0.571088	-0.820652	-0.019737	0.792760	0.557599	-0.246199
42325	9.424974	-0.189587	-2.389520	0.000140	0.003681	-0.000265	0.213045	0.124954	0.969019	0.571086	-0.820653	-0.019734	0.792762	0.557598	-0.246196
42326	9.450635	-0.188848	-2.366187	-0.000569	0.000435	0.001559	0.213079	0.124957	0.969012	0.571076	-0.820660	-0.019749	0.792761	0.557587	-0.246225
42327	9.417320	-0.174763	-2.406920	-0.000552	0.002129	-0.000475	0.213086	0.124966	0.969009	0.571068	-0.820665	-0.019743	0.792765	0.557577	-0.246237
42328	9.417391	-0.174723	-2.406647	0.000140	0.003681	-0.000265	0.213084	0.124965	0.969009	0.571067	-0.820666	-0.019742	0.792766	0.557576	-0.246234
42329	9.469369	-0.223449	-2.436238	0.002075	0.004656	0.000630	0.213079	0.124950	0.969012	0.571079	-0.820657	-0.019756	0.792758	0.557592	-0.246221
42330	9.417591	-0.174765	-2.405859	-0.003607	0.003718	-0.000286	0.213076	0.124950	0.969013	0.571048	-0.820679	-0.019745	0.792782	0.557560	-0.246219
42331	9.447855	-0.215787	-2.385985	0.000140	0.003681	-0.000265	0.213075	0.124949	0.969013	0.571047	-0.820680	-0.019744	0.792783	0.557559	-0.246218
42332	9.447940	-0.215879	-2.385643	0.000814	0.003539	0.001979	0.213086	0.124931	0.969013	0.571046	-0.820680	-0.019766	0.792780	0.557563	-0.246217
42333	9.433299	-0.204583	-2.369443	0.001278	0.002810	-0.003383	0.213072	0.124962	0.969012	0.571058	-0.820673	-0.019735	0.792776	0.557567	-0.246223
42334	9.440389	-0.200784	-2.402674	0.000831	0.005233	-0.000055	0.213059	0.124951	0.969017	0.571061	-0.820670	-0.019738	0.792777	0.557573	-0.246206
42335	9.435933	-0.158783	-2.398633	-0.000534	0.003823	-0.002509	0.213041	0.124970	0.969018	0.571055	-0.820675	-0.019709	0.792786	0.557561	-0.246203
42336	9.448308	-0.215562	-2.384210	-0.001690	0.003000	0.002643	0.213061	0.124949	0.969016	0.571033	-0.820690	-0.019731	0.792797	0.557544	-0.246207
42337	9.458528	-0.185008	-2.396225	0.001952	0.002669	-0.001139	0.213059	0.124960	0.969015	0.571047	-0.820680	-0.019726	0.792787	0.557556	-0.246212
42338	9.455448	-0.211933	-2.417252	0.000140	0.003681	-0.000265	0.213057	0.124959	0.969016	0.571046	-0.820681	-0.019725	0.792788	0.557555	-0.246209
42339	9.403640	-0.163232	-2.386964	-0.002364	0.003141	0.000399	0.213062	0.124955	0.969015	0.571021	-0.820699	-0.019724	0.792805	0.557530	-0.246212
42340	9.440883	-0.200639	-2.400745	-0.002364	0.003141	0.000399	0.213068	0.124952	0.969015	0.570998	-0.820714	-0.019723	0.792820	0.557508	-0.246215
42341	9.433271	-0.185605	-2.418034	0.002662	0.005915	-0.002962	0.213034	0.124962	0.969021	0.571022	-0.820698	-0.019701	0.792812	0.557529	-0.246192
42342	9.411654	-0.178010	-2.368109	-0.001691	0.003000	0.002643	0.213053	0.124941	0.969019	0.571000	-0.820713	-0.019724	0.792822	0.557512	-0.246197
42343	9.473748	-0.196231	-2.410163	0.001935	0.000975	0.000896	0.213077	0.124946	0.969013	0.571009	-0.820706	-0.019737	0.792809	0.557521	-0.246219
42344	9.418755	-0.174571	-2.401311	0.000140	0.003681	-0.000265	0.213075	0.124945	0.969014	0.571008	-0.820707	-0.019736	0.792811	0.557520	-0.246216
42345	9.441275	-0.200589	-2.399206	-0.001225	0.002271	-0.002719	0.213068	0.124971	0.969012	0.571001	-0.820713	-0.019707	0.792818	0.557505	-0.246226
42346	9.434355	-0.204163	-2.365268	0.002075	0.004656	0.000631	0.213063	0.124958	0.969015	0.571013	-0.820704	-0.019719	0.792811	0.557521	-0.246214
42347	9.441449	-0.200479	-2.398530	-0.001794	0.002706	-0.001160	0.213061	0.124970	0.969014	0.570998	-0.820715	-0.019703	0.792822	0.557503	-0.246219
42348	9.433801	-0.185342	-2.415989	0.001279	0.002811	-0.003383	0.213047	0.124999	0.969013	0.571012	-0.820706	-0.019674	0.792815	0.557510	-0.246225
42349	9.423726	-0.215816	-2.403402	0.000140	0.003681	-0.000265	0.213043	0.124997	0.969014	0.571012	-0.820706	-0.019674	0.792816	0.557510	-0.246220
42350	9.433916	-0.185111	-2.415555	-0.001934	-0.000975	-0.000896	0.213073	0.125027	0.969004	0.570996	-0.820718	-0.019661	0.792820	0.557486	-0.246263
42351	9.426944	-0.188945	-2.381786	-0.000326	0.004410	0.005098	0.213094	0.124978	0.969005	0.570977	-0.820730	-0.019710	0.792828	0.557479	-0.246253
42352	9.416197	-0.201191	-2.420356	-0.000411	0.005811	-0.000739	0.213072	0.124969	0.969011	0.570972	-0.820733	-0.019702	0.792837	0.557476	-0.246230
42353	9.452064	-0.169715	-2.409023	0.000140	0.003681	-0.000264	0.213070	0.124968	0.969012	0.570970	-0.820735	-0.019701	0.792839	0.557474	-0.246227
42354	9.434297	-0.185424	-2.414045	0.000832	0.005234	-0.000054	0.213057	0.124957	0.969016	0.570974	-0.820732	-0.019704	0.792840	0.557481	-0.246210
42355	9.442116	-0.200271	-2.395923	0.000710	0.003246	-0.001823	0.213049	0.124972	0.969016	0.570980	-0.820728	-0.019689	0.792838	0.557483	-0.246212
42356	9.409590	-0.204756	-2.385159	0.000813	0.003540	0.001980	0.213060	0.124953	0.969016	0.570979	-0.820728	-0.019711	0.792836	0.557487	-0.246211
42357	9.445446	-0.173327	-2.373848	0.000159	0.005376	-0.002298	0.213036	0.124960	0.969020	0.570985	-0.820725	-0.019692	0.792838	0.557491	-0.246194
42358	9.427642	-0.189000	-2.379020	-0.000570	0.000435	0.001559	0.213070	0.124963	0.969013	0.570974	-0.820732	-0.019707	0.792837	0.557480	-0.246223
42359	9.402068	-0.189928	-2.402120	0.001934	0.000975	0.000896	0.213095	0.124967	0.969007	0.570984	-0.820724	-0.019722	0.792822	0.557490	-0.246246
42360	9.449487	-0.196683	-2.428142	0.000159	0.005376	-0.002298	0.213067	0.124973	0.969012	0.570988	-0.820722	-0.019701	0.792827	0.557492	-0.246227
42361	9.409954	-0.204735	-2.383724	-0.001121	0.002565	0.001084	0.213081	0.124968	0.969010	0.570972	-0.820733	-0.019709	0.792835	0.557477	-0.246236
42362	9.449671	-0.196525	-2.427439	0.001972	0.004363	-0.003171	0.213056	0.124987	0.969012	0.570991	-0.820720	-0.019684	0.792828	0.557491	-0.246226
42363	9.420297	-0.173995	-2.395298	0.000813	0.003540	0.001980	0.213067	0.124968	0.969013	0.570990	-0.820720	-0.019706	0.792826	0.557495	-0.246224
42364	9.417914	-0.219680	-2.365013	-0.001121	0.002565	0.001084	0.213081	0.124962	0.969010	0.570976	-0.820730	-0.019715	0.792832	0.557482	-0.246233
42365	9.409595	-0.186213	-2.433772	0.000140	0.003682	-0.000264	0.213079	0.124961	0.969011	0.570974	-0.820731	-0.019714	0.792834	0.557481	-0.246230
42366	9.428257	-0.189075	-2.376572	0.000832	0.005234	-0.000053	0.213065	0.124950	0.969015	0.570978	-0.820728	-0.019716	0.792835	0.557487	-0.246212
42367	9.435375	-0.185392	-2.409830	-0.000551	0.002130	-0.000475	0.213072	0.124958	0.969013	0.570971	-0.820733	-0.019711	0.792838	0.557479	-0.246222
42368	9.443168	-0.200219	-2.391778	0.001402	0.004799	-0.001612	0.213053	0.124962	0.969017	0.570983	-0.820725	-0.019700	0.792835	0.557489	-0.246209
42369	9.428540	-0.188848	-2.375470	-0.001103	0.004259	-0.000950	0.213043	0.124963	0.969019	0.570976	-0.820731	-0.019692	0.792843	0.557481	-0.246202
42370	9.450401	-0.196372	-2.424607	-0.002364	0.003142	0.000398	0.213049	0.124960	0.969018	0.570953	-0.820747	-0.019691	0.792857	0.557459	-0.246205
42371	9.428727	-0.188779	-2.374731	0.000832	0.005235	-0.000053	0.213034	0.124946	0.969023	0.570955	-0.820745	-0.019694	0.792860	0.557464	-0.246185
42372	9.476183	-0.195684	-2.400617	0.000813	0.003540	0.001981	0.213045	0.124928	0.969023	0.570955	-0.820745	-0.019716	0.792857	0.557468	-0.246184
42373	9.436618	-0.203897	-2.356249	0.000140	0.003682	-0.000264	0.213041	0.124925	0.969024	0.570953	-0.820746	-0.019716	0.792859	0.557468	-0.246179
42374	9.395712	-0.174822	-2.414581	0.001953	0.002670	-0.001137	0.213041	0.124937	0.969022	0.570968	-0.820736	-0.019710	0.792848	0.557480	-0.246186
42375	9.458556	-0.211293	-2.405118	-0.000532	0.003824	-0.002508	0.213026	0.124954	0.969023	0.570966	-0.820737	-0.019686	0.792854	0.557473	-0.246183
42376	9.436170	-0.185065	-2.406741	0.001934	0.000975	0.000897	0.213051	0.124959	0.969017	0.570977	-0.820730	-0.019700	0.792840	0.557483	-0.246206
42377	9.429195	-0.188846	-2.372869	0.002074	0.004658	0.000633	0.213046	0.124944	0.969020	0.570989	-0.820721	-0.019713	0.792832	0.557500	-0.246193
42378	9.418458	-0.200990	-2.411558	0.001383	0.003105	0.000422	0.213052	0.124941	0.969019	0.570996	-0.820716	-0.019722	0.792826	0.557508	-0.246196
42379	9.421661	-0.173981	-2.389926	0.000711	0.003247	-0.001822	0.213044	0.124956	0.969019	0.571002	-0.820712	-0.019706	0.792823	0.557510	-0.246198
42380	9.436465	-0.185176	-2.405572	0.000691	0.001553	0.000211	0.213062	0.124963	0.969014	0.571004	-0.820710	-0.019711	0.792817	0.557511	-0.246216
42381	9.444229	-0.200098	-2.387595	0.000140	0.003682	-0.000264	0.213058	0.124964	0.969015	0.571003	-0.820711	-0.019708	0.792819	0.557509	-0.246213
42382	9.400897	-0.216609	-2.415820	0.000832	0.005235	-0.000052	0.213044	0.124953	0.969020	0.571007	-0.820709	-0.019710	0.792820	0.557516	-0.246196
42383	9.429706	-0.188856	-2.370834	-0.001673	0.004695	0.000609	0.213037	0.124940	0.969023	0.570989	-0.820721	-0.019712	0.792834	0.557501	-0.246183
42384	9.443878	-0.181564	-2.437742	0.000691	0.001553	0.000211	0.213054	0.124947	0.969018	0.570991	-0.820719	-0.019717	0.792828	0.557502	-0.246201
42385	9.419016	-0.200993	-2.409380	0.001383	0.003105	0.000423	0.213063	0.124943	0.969017	0.570999	-0.820714	-0.019727	0.792821	0.557511	-0.246206
42386	9.429915	-0.188963	-2.369997	0.000140	0.003683	-0.000263	0.213060	0.124942	0.969017	0.570998	-0.820715	-0.019726	0.792822	0.557510	-0.246203
42387	9.444740	-0.200177	-2.385565	0.001954	0.002670	-0.001136	0.213107	0.124720	0.969036	0.571004	-0.820705	-0.019944	0.792805	0.557574	-0.246114
42388	9.444810	-0.200138	-2.385291	-0.002364	0.003142	0.000398	0.213113	0.124717	0.969035	0.570982	-0.820721	-0.019943	0.792820	0.557551	-0.246117
42389	9.404571	-0.189530	-2.392336	0.001282	0.002812	-0.003381	0.213099	0.124747	0.969034	0.570996	-0.820711	-0.019914	0.792813	0.557558	-0.246123
42390	9.444983	-0.199847	-2.384629	0.000832	0.005235	-0.000052	0.213086	0.124736	0.969038	0.571000	-0.820709	-0.019917	0.792814	0.557565	-0.246105
42391	9.437429	-0.184854	-2.401813	-0.001653	0.006390	-0.001424	0.213057	0.124729	0.969046	0.570987	-0.820718	-0.019901	0.792831	0.557552	-0.246078
42392	9.422788	-0.173663	-2.385505	0.002054	0.002964	0.002668	0.213077	0.124708	0.969044	0.570994	-0.820712	-0.019934	0.792820	0.557566	-0.246082
42393	9.419726	-0.200755	-2.406623	-0.003056	0.001590	0.000186	0.213092	0.124715	0.969040	0.570966	-0.820732	-0.019927	0.792836	0.557535	-0.246099
42394	9.405054	-0.189480	-2.390438	0.000832	0.005236	-0.000052	0.213078	0.124704	0.969044	0.570970	-0.820729	-0.019930	0.792837	0.557542	-0.246082
42395	9.452517	-0.196253	-2.416354	-0.000551	0.002130	-0.000475	0.213087	0.124714	0.969041	0.570963	-0.820734	-0.019924	0.792840	0.557532	-0.246095
42396	9.437848	-0.184910	-2.400161	0.001403	0.004800	-0.001610	0.213068	0.124718	0.969045	0.570975	-0.820726	-0.019913	0.792837	0.557543	-0.246081
42397	9.420093	-0.200554	-2.405200	0.002645	0.004223	-0.000924	0.213058	0.124721	0.969046	0.570994	-0.820713	-0.019911	0.792825	0.557562	-0.246074
42398	9.452822	-0.196091	-2.415173	-0.001673	0.004696	0.000609	0.213052	0.124707	0.969049	0.570977	-0.820725	-0.019914	0.792840	0.557547	-0.246062
42399	9.405548	-0.189181	-2.388517	-0.000531	0.003825	-0.002508	0.213035	0.124725	0.969051	0.570974	-0.820727	-0.019888	0.792846	0.557540	-0.246058
42400	9.445947	-0.199612	-2.380827	0.000812	0.003541	0.001982	0.213047	0.124706	0.969051	0.570973	-0.820727	-0.019911	0.792843	0.557544	-0.246057
42401	9.438344	-0.184791	-2.398220	0.000140	0.003683	-0.000263	0.213041	0.124704	0.969052	0.570972	-0.820728	-0.019908	0.792846	0.557543	-0.246051
42402	9.420550	-0.200467	-2.403418	-0.000551	0.002130	-0.000475	0.213050	0.124714	0.969049	0.570966	-0.820732	-0.019904	0.792848	0.557534	-0.246064
42403	9.430805	-0.169751	-2.415382	-0.001102	0.004260	-0.000949	0.213041	0.124713	0.969051	0.570958	-0.820738	-0.019897	0.792856	0.557526	-0.246056
42404	9.446267	-0.199556	-2.379562	0.001383	0.003106	0.000424	0.213047	0.124709	0.969050	0.570965	-0.820733	-0.019905	0.792849	0.557534	-0.246059
42405	9.420799	-0.200384	-2.402450	0.000140	0.003683	-0.000263	0.213044	0.124708	0.969051	0.570964	-0.820734	-0.019905	0.792851	0.557534	-0.246056
42406	9.461208	-0.210699	-2.394717	0.001974	0.004365	-0.003168	0.213020	0.124727	0.969054	0.570983	-0.820721	-0.019880	0.792843	0.557548	-0.246047
42407	9.446550	-0.199194	-2.378470	-0.000531	0.003825	-0.002508	0.213004	0.124745	0.969055	0.570981	-0.820723	-0.019855	0.792849	0.557541	-0.246045
42408	9.438939	-0.184309	-2.395913	-0.000451	0.002424	0.003329	0.213032	0.124721	0.969052	0.570967	-0.820732	-0.019887	0.792851	0.557534	-0.246054
42409	9.435902	-0.211467	-2.416983	0.001383	0.003106	0.000424	0.213038	0.124718	0.969051	0.570974	-0.820727	-0.019896	0.792845	0.557542	-0.246057
42410	9.406447	-0.188919	-2.384996	-0.001793	0.002707	-0.001161	0.213038	0.124729	0.969050	0.570960	-0.820737	-0.019881	0.792855	0.557524	-0.246064
42411	9.453926	-0.195644	-2.410887	-0.001673	0.004696	0.000610	0.213033	0.124715	0.969053	0.570943	-0.820749	-0.019885	0.792869	0.557510	-0.246051
42412	9.406609	-0.188878	-2.384359	0.000691	0.001553	0.000212	0.213050	0.124722	0.969048	0.570945	-0.820747	-0.019890	0.792863	0.557511	-0.246069
42413	9.439306	-0.184558	-2.394449	-0.001002	0.004555	0.002855	0.213056	0.124690	0.969051	0.570928	-0.820759	-0.019916	0.792874	0.557501	-0.246056
42414	9.461874	-0.210627	-2.392091	-0.000510	0.005520	-0.004541	0.213014	0.124714	0.969057	0.570930	-0.820758	-0.019871	0.792883	0.557497	-0.246036
42415	9.424743	-0.173051	-2.377813	0.001933	0.000976	0.000899	0.213039	0.124718	0.969051	0.570941	-0.820750	-0.019886	0.792869	0.557508	-0.246058
42416	9.439590	-0.184331	-2.393345	-0.000410	0.005814	-0.000737	0.213017	0.124709	0.969057	0.570936	-0.820754	-0.019879	0.792878	0.557505	-0.246035
42417	9.421848	-0.200063	-2.398358	-0.000431	0.004119	0.001296	0.213019	0.124693	0.969059	0.570927	-0.820759	-0.019891	0.792884	0.557499	-0.246028
42418	9.425037	-0.173205	-2.376636	-0.000431	0.004119	0.001296	0.213022	0.124676	0.969060	0.570918	-0.820766	-0.019904	0.792889	0.557494	-0.246022
42419	9.436805	-0.211475	-2.413455	0.000141	0.003684	-0.000262	0.213022	0.124675	0.969060	0.570918	-0.820766	-0.019905	0.792890	0.557494	-0.246020
42420	9.440012	-0.184454	-2.391673	-0.000410	0.005814	-0.000737	0.213000	0.124666	0.969066	0.570913	-0.820769	-0.019898	0.792899	0.557491	-0.245997
42421	9.414576	-0.185301	-2.414502	0.002625	0.002529	0.001111	0.213015	0.124661	0.969064	0.570928	-0.820759	-0.019916	0.792885	0.557508	-0.246006
42422	9.422321	-0.200401	-2.396471	0.000811	0.003542	0.001983	0.213026	0.124642	0.969064	0.570927	-0.820759	-0.019938	0.792882	0.557512	-0.246005
42423	9.422417	-0.200513	-2.396084	-0.001673	0.004697	0.000610	0.213020	0.124628	0.969067	0.570910	-0.820771	-0.019941	0.792897	0.557497	-0.245992
42424	9.465343	-0.165374	-2.418283	-0.001101	0.004261	-0.000949	0.213009	0.124629	0.969069	0.570900	-0.820778	-0.019930	0.792906	0.557487	-0.245984
42425	9.414945	-0.185596	-2.413040	0.000811	0.003542	0.001983	0.213020	0.124611	0.969069	0.570899	-0.820778	-0.019952	0.792904	0.557490	-0.245983
42426	9.455308	-0.196170	-2.405416	0.000691	0.001553	0.000212	0.213037	0.124618	0.969064	0.570901	-0.820776	-0.019957	0.792898	0.557491	-0.246001
42427	9.390106	-0.205098	-2.384449	0.000141	0.003684	-0.000262	0.213035	0.124617	0.969065	0.570899	-0.820778	-0.019955	0.792900	0.557490	-0.245998
42428	9.458546	-0.169186	-2.383484	0.000141	0.003684	-0.000262	0.213032	0.124616	0.969066	0.570898	-0.820779	-0.019954	0.792902	0.557488	-0.245995
42429	9.422894	-0.200691	-2.394193	0.000119	0.001989	0.001771	0.213053	0.124607	0.969062	0.570893	-0.820781	-0.019974	0.792899	0.557486	-0.246007
42430	9.422994	-0.200689	-2.393800	-0.001652	0.006392	-0.001423	0.213023	0.124600	0.969070	0.570880	-0.820791	-0.019957	0.792917	0.557474	-0.245979
42431	9.437880	-0.211827	-2.409218	0.001955	0.002671	-0.001133	0.213023	0.124613	0.969068	0.570895	-0.820781	-0.019951	0.792906	0.557486	-0.245986
42432	9.433369	-0.170017	-2.405331	0.000811	0.003543	0.001984	0.213035	0.124594	0.969068	0.570894	-0.820781	-0.019974	0.792904	0.557490	-0.245985
42433	9.455887	-0.196212	-2.403136	-0.001792	0.002708	-0.001161	0.213034	0.124604	0.969067	0.570880	-0.820791	-0.019960	0.792914	0.557473	-0.245991
42434	9.423315	-0.200680	-2.392536	0.002625	0.002530	0.001112	0.213048	0.124599	0.969064	0.570895	-0.820780	-0.019978	0.792899	0.557491	-0.245999
42435	9.430526	-0.197067	-2.425729	-0.000410	0.005815	-0.000736	0.213028	0.124591	0.969070	0.570890	-0.820784	-0.019971	0.792908	0.557487	-0.245977
42436	9.408747	-0.189532	-2.375857	0.000811	0.003543	0.001984	0.213039	0.124573	0.969070	0.570889	-0.820784	-0.019993	0.792906	0.557491	-0.245976
42437	9.463881	-0.211296	-2.384080	0.001263	0.001118	-0.001346	0.213053	0.124596	0.969064	0.570899	-0.820777	-0.019984	0.792895	0.557495	-0.246001
42438	9.423628	-0.200764	-2.391296	0.001955	0.002671	-0.001133	0.213054	0.124608	0.969062	0.570914	-0.820767	-0.019979	0.792884	0.557507	-0.246008
42439	9.441581	-0.185026	-2.385426	0.000832	0.005238	-0.000049	0.213041	0.124598	0.969066	0.570916	-0.820765	-0.019981	0.792886	0.557513	-0.245991
42440	9.441680	-0.185071	-2.385030	0.001383	0.003107	0.000425	0.213047	0.124594	0.969065	0.570924	-0.820760	-0.019990	0.792879	0.557521	-0.245994
42441	9.423900	-0.200926	-2.390210	0.000810	0.003543	0.001984	0.213060	0.124575	0.969065	0.570924	-0.820759	-0.020015	0.792875	0.557526	-0.245994
42442	9.416316	-0.186108	-2.407644	-0.002364	0.003144	0.000397	0.213066	0.124571	0.969064	0.570901	-0.820775	-0.020014	0.792890	0.557504	-0.245997
42443	9.449569	-0.200244	-2.366358	0.001383	0.003107	0.000426	0.213073	0.124567	0.969063	0.570908	-0.820769	-0.020023	0.792883	0.557513	-0.246000
42444	9.409354	-0.189928	-2.373421	0.003316	0.004084	0.001326	0.213076	0.124551	0.969064	0.570929	-0.820755	-0.020046	0.792867	0.557538	-0.245993
42445	9.456859	-0.196820	-2.399257	-0.002364	0.003144	0.000397	0.213082	0.124547	0.969064	0.570906	-0.820770	-0.020045	0.792882	0.557516	-0.245996
42446	9.384015	-0.190689	-2.395975	0.001977	0.004367	-0.003165	0.213057	0.124566	0.969067	0.570926	-0.820758	-0.020021	0.792875	0.557531	-0.245986
42447	9.457048	-0.196662	-2.398525	0.000810	0.003543	0.001984	0.213068	0.124546	0.969067	0.570926	-0.820757	-0.020044	0.792872	0.557536	-0.245984
42448	9.406629	-0.216975	-2.393371	0.001383	0.003107	0.000426	0.213074	0.124543	0.969066	0.570933	-0.820752	-0.020053	0.792865	0.557544	-0.245987
42449	9.450086	-0.200435	-2.364275	-0.001101	0.004262	-0.000949	0.213064	0.124546	0.969068	0.570922	-0.820760	-0.020040	0.792876	0.557532	-0.245980
42450	9.431795	-0.197450	-2.420756	0.000713	0.003249	-0.001820	0.213056	0.124560	0.969068	0.570929	-0.820755	-0.020026	0.792873	0.557535	-0.245981
42451	9.427835	-0.174175	-2.365442	0.001501	0.005097	0.002197	0.213055	0.124531	0.969071	0.570932	-0.820753	-0.020051	0.792871	0.557546	-0.245964
42452	9.450389	-0.200520	-2.363060	0.002074	0.004661	0.000639	0.213050	0.124518	0.969074	0.570944	-0.820744	-0.020063	0.792864	0.557562	-0.245952
42453	9.410206	-0.190016	-2.370034	-0.002342	0.004840	-0.001636	0.213030	0.124522	0.969078	0.570926	-0.820757	-0.020042	0.792882	0.557541	-0.245939
42454	9.435265	-0.170608	-2.397841	0.001933	0.000976	0.000900	0.213056	0.124526	0.969072	0.570936	-0.820749	-0.020057	0.792868	0.557551	-0.245962
42455	9.439918	-0.212567	-2.401154	-0.001673	0.004698	0.000610	0.213050	0.124511	0.969075	0.570919	-0.820761	-0.020061	0.792881	0.557537	-0.245949
42456	9.428265	-0.174296	-2.363716	0.001264	0.001118	-0.001345	0.213062	0.124533	0.969070	0.570929	-0.820755	-0.020052	0.792871	0.557542	-0.245971
42457	9.432415	-0.197576	-2.418331	0.000832	0.005239	-0.000048	0.213047	0.124521	0.969075	0.570933	-0.820752	-0.020055	0.792873	0.557549	-0.245952
42458	9.443212	-0.185539	-2.378922	0.000691	0.001554	0.000213	0.213064	0.124528	0.969070	0.570935	-0.820750	-0.020060	0.792867	0.557550	-0.245970
42459	9.440185	-0.212549	-2.400108	0.000691	0.001554	0.000213	0.213081	0.124535	0.969065	0.570937	-0.820749	-0.020065	0.792860	0.557551	-0.245988
42460	9.435679	-0.170691	-2.396206	0.000832	0.005239	-0.000048	0.213067	0.124523	0.969070	0.570941	-0.820746	-0.020068	0.792861	0.557557	-0.245970
42461	9.415334	-0.231905	-2.371464	-0.003747	0.000037	-0.000030	0.213097	0.124542	0.969061	0.570907	-0.820770	-0.020058	0.792878	0.557518	-0.246006
42462	9.443470	-0.185430	-2.377907	-0.001651	0.006394	-0.001423	0.213066	0.124536	0.969068	0.570894	-0.820779	-0.020042	0.792895	0.557505	-0.245977
42463	9.425727	-0.201029	-2.382986	0.001955	0.002672	-0.001132	0.213067	0.124548	0.969067	0.570909	-0.820769	-0.020036	0.792884	0.557518	-0.245985
42464	9.400300	-0.201681	-2.405970	-0.003033	0.003286	-0.001849	0.213059	0.124562	0.969067	0.570886	-0.820786	-0.020012	0.792903	0.557490	-0.245986
42465	9.450884	-0.181372	-2.410453	0.000141	0.003685	-0.000261	0.213057	0.124564	0.969067	0.570883	-0.820788	-0.020009	0.792906	0.557487	-0.245986
42466	9.433603	-0.215613	-2.364353	-0.000550	0.002131	-0.000474	0.213065	0.124573	0.969064	0.570877	-0.820792	-0.020004	0.792908	0.557478	-0.245998
42467	9.451041	-0.181244	-2.409850	0.001405	0.004803	-0.001606	0.213047	0.124578	0.969067	0.570888	-0.820785	-0.019993	0.792905	0.557488	-0.245986
42468	9.403709	-0.174557	-2.383267	0.002742	0.004520	0.002886	0.213056	0.124546	0.969069	0.570900	-0.820775	-0.020029	0.792893	0.557509	-0.245975
42469	9.433368	-0.196965	-2.414662	-0.002578	0.000860	-0.005179	0.213047	0.124602	0.969064	0.570888	-0.820785	-0.019972	0.792905	0.557482	-0.245999
42470	9.429326	-0.173473	-2.359541	0.000809	0.003544	0.001985	0.213058	0.124583	0.969064	0.570887	-0.820785	-0.019994	0.792903	0.557486	-0.245998
42471	9.418701	-0.185743	-2.398325	-0.001696	0.003003	0.002642	0.213077	0.124560	0.969063	0.570866	-0.820799	-0.020019	0.792912	0.557471	-0.246001
42472	9.433592	-0.197046	-2.413780	0.001405	0.004804	-0.001605	0.213058	0.124564	0.969067	0.570878	-0.820791	-0.020008	0.792909	0.557481	-0.245987
42473	9.408701	-0.216366	-2.385268	-0.001673	0.004699	0.000610	0.213052	0.124550	0.969070	0.570860	-0.820803	-0.020011	0.792923	0.557467	-0.245974
42474	9.444516	-0.184883	-2.373791	0.001405	0.004804	-0.001605	0.213033	0.124553	0.969074	0.570872	-0.820795	-0.020000	0.792920	0.557478	-0.245960
42475	9.459411	-0.196117	-2.389236	0.001382	0.003108	0.000427	0.213041	0.124551	0.969072	0.570879	-0.820791	-0.020009	0.792913	0.557485	-0.245965
42476	9.441616	-0.211889	-2.394529	0.000691	0.001554	0.000214	0.213058	0.124558	0.969067	0.570881	-0.820789	-0.020014	0.792907	0.557486	-0.245983
42477	9.437102	-0.169918	-2.390650	-0.002342	0.004840	-0.001636	0.213039	0.124561	0.969071	0.570863	-0.820802	-0.019994	0.792925	0.557466	-0.245970
42478	9.409114	-0.216223	-2.383652	0.001933	0.000977	0.000901	0.213064	0.124566	0.969065	0.570873	-0.820794	-0.020009	0.792911	0.557476	-0.245993
42479	9.459724	-0.196156	-2.387992	0.002215	0.008348	0.000381	0.213028	0.124534	0.969077	0.570886	-0.820785	-0.020018	0.792911	0.557497	-0.245945
42480	9.445046	-0.184914	-2.371677	-0.000550	0.002132	-0.000474	0.213037	0.124543	0.969074	0.570880	-0.820789	-0.020014	0.792913	0.557489	-0.245958
42481	9.434455	-0.196843	-2.410419	0.000164	0.005381	-0.002292	0.213009	0.124549	0.969079	0.570883	-0.820788	-0.019993	0.792918	0.557490	-0.245938
42482	9.445222	-0.184691	-2.370995	0.000691	0.001554	0.000214	0.213026	0.124556	0.969075	0.570885	-0.820786	-0.019998	0.792912	0.557491	-0.245956
42483	9.434604	-0.196810	-2.409841	0.003888	0.003649	-0.000229	0.213024	0.124555	0.969075	0.570913	-0.820766	-0.020006	0.792893	0.557520	-0.245953
42484	9.434202	-0.178237	-2.460920	0.003770	0.001659	-0.002001	0.213027	0.124580	0.969071	0.570945	-0.820745	-0.019997	0.792869	0.557546	-0.245969
42485	9.434789	-0.196679	-2.409127	-0.000959	0.007949	-0.001209	0.212982	0.124560	0.969084	0.570938	-0.820750	-0.019985	0.792886	0.557543	-0.245921
42486	9.420119	-0.185456	-2.392771	0.000809	0.003545	0.001986	0.212993	0.124541	0.969084	0.570937	-0.820750	-0.020007	0.792884	0.557547	-0.245919
42487	9.445652	-0.184815	-2.369272	0.001932	0.000977	0.000902	0.213018	0.124545	0.969078	0.570948	-0.820742	-0.020022	0.792869	0.557558	-0.245942
42488	9.435044	-0.197004	-2.408099	0.002074	0.004663	0.000642	0.213013	0.124532	0.969081	0.570960	-0.820733	-0.020034	0.792862	0.557574	-0.245929
42489	9.438153	-0.170035	-2.386489	0.001265	0.001118	-0.001344	0.213025	0.124553	0.969075	0.570970	-0.820727	-0.020026	0.792851	0.557579	-0.245951
42490	9.438212	-0.169976	-2.386261	0.000141	0.003686	-0.000260	0.213023	0.124552	0.969076	0.570969	-0.820727	-0.020025	0.792853	0.557578	-0.245949
42491	9.410233	-0.216345	-2.379220	0.001382	0.003109	0.000428	0.213029	0.124549	0.969075	0.570975	-0.820723	-0.020033	0.792847	0.557585	-0.245952
42492	9.450121	-0.208246	-2.422863	-0.003056	0.001591	0.000182	0.213045	0.124556	0.969070	0.570948	-0.820742	-0.020029	0.792862	0.557555	-0.245970
42493	9.420572	-0.185689	-2.390968	0.002647	0.004227	-0.000916	0.213036	0.124558	0.969072	0.570967	-0.820729	-0.020027	0.792851	0.557575	-0.245963
42494	9.435452	-0.197136	-2.406488	0.000785	0.001849	0.004018	0.213072	0.124532	0.969068	0.570962	-0.820731	-0.020069	0.792845	0.557577	-0.245978
42495	9.420723	-0.186083	-2.390344	0.000833	0.005241	-0.000046	0.213060	0.124521	0.969072	0.570965	-0.820729	-0.020072	0.792846	0.557583	-0.245962
42496	9.410167	-0.198150	-2.429021	0.000141	0.003686	-0.000260	0.213058	0.124520	0.969072	0.570964	-0.820730	-0.020071	0.792847	0.557581	-0.245959
42497	9.443333	-0.212254	-2.387716	0.000691	0.001554	0.000214	0.213074	0.124526	0.969068	0.570966	-0.820728	-0.020077	0.792841	0.557583	-0.245976
42498	9.428129	-0.182383	-2.423048	-0.001791	0.002709	-0.001162	0.213074	0.124538	0.969066	0.570952	-0.820739	-0.020062	0.792852	0.557565	-0.245983
42499	9.428650	-0.200850	-2.371409	0.000141	0.003686	-0.000260	0.213073	0.124536	0.969067	0.570951	-0.820739	-0.020063	0.792852	0.557565	-0.245981
42500	9.428282	-0.182369	-2.422453	0.002623	0.002532	0.001116	0.213087	0.124530	0.969065	0.570967	-0.820728	-0.020082	0.792837	0.557583	-0.245989
42501	9.453806	-0.181728	-2.398943	0.000117	0.001991	0.001772	0.213110	0.124521	0.969061	0.570962	-0.820731	-0.020101	0.792835	0.557580	-0.246002
42502	9.411028	-0.216808	-2.376031	-0.001650	0.006396	-0.001422	0.213079	0.124514	0.969068	0.570949	-0.820740	-0.020084	0.792853	0.557568	-0.245974
42503	9.421358	-0.186067	-2.387843	0.001956	0.002673	-0.001130	0.213081	0.124527	0.969066	0.570963	-0.820730	-0.020079	0.792842	0.557580	-0.245982
42504	9.443430	-0.193754	-2.436952	-0.001698	0.003004	0.002642	0.213100	0.124506	0.969065	0.570941	-0.820745	-0.020102	0.792852	0.557562	-0.245986
42505	9.429118	-0.201189	-2.369519	0.001382	0.003109	0.000428	0.213105	0.124503	0.969064	0.570948	-0.820740	-0.020110	0.792846	0.557571	-0.245989
42506	9.388915	-0.190766	-2.376693	0.000141	0.003687	-0.000260	0.213103	0.124502	0.969065	0.570947	-0.820741	-0.020109	0.792847	0.557570	-0.245986
42507	9.461965	-0.196755	-2.379047	0.000833	0.005241	-0.000046	0.213091	0.124491	0.969069	0.570951	-0.820738	-0.020112	0.792848	0.557576	-0.245970
42508	9.421774	-0.186351	-2.386177	-0.001124	0.002568	0.001084	0.213105	0.124485	0.969066	0.570936	-0.820748	-0.020121	0.792854	0.557563	-0.245978
42509	9.469350	-0.193085	-2.411873	0.000166	0.005382	-0.002292	0.213078	0.124493	0.969071	0.570939	-0.820747	-0.020099	0.792860	0.557563	-0.245961
42510	9.396884	-0.205568	-2.357556	0.005562	-0.001050	-0.000836	0.213110	0.124523	0.969060	0.570982	-0.820717	-0.020106	0.792820	0.557600	-0.246003
42511	9.436780	-0.197501	-2.401246	-0.004180	0.004159	0.001265	0.213113	0.124507	0.969062	0.570943	-0.820744	-0.020109	0.792848	0.557564	-0.245997
42512	9.436859	-0.197548	-2.400934	-0.001124	0.002568	0.001084	0.213127	0.124501	0.969060	0.570928	-0.820753	-0.020118	0.792854	0.557551	-0.246006
42513	9.429751	-0.201240	-2.366996	0.000833	0.005241	-0.000045	0.213113	0.124489	0.969064	0.570933	-0.820750	-0.020121	0.792855	0.557558	-0.245988
42514	9.440077	-0.170546	-2.378830	0.000716	0.003251	-0.001817	0.213105	0.124503	0.969064	0.570939	-0.820746	-0.020107	0.792852	0.557561	-0.245989
42515	9.404481	-0.201961	-2.389553	-0.000433	0.004123	0.001298	0.213108	0.124487	0.969066	0.570930	-0.820752	-0.020119	0.792858	0.557556	-0.245982
42516	9.430065	-0.201165	-2.365750	0.002098	0.006360	-0.001388	0.213078	0.124480	0.969073	0.570947	-0.820741	-0.020112	0.792854	0.557574	-0.245953
42517	9.407761	-0.174853	-2.367198	-0.002340	0.004842	-0.001636	0.213058	0.124484	0.969077	0.570929	-0.820754	-0.020092	0.792872	0.557555	-0.245939
42518	9.437470	-0.197201	-2.398557	0.003081	0.000105	-0.002212	0.213072	0.124519	0.969069	0.570955	-0.820736	-0.020079	0.792850	0.557573	-0.245971
42519	9.419689	-0.212860	-2.403867	-0.001674	0.004701	0.000610	0.213066	0.124505	0.969072	0.570937	-0.820748	-0.020081	0.792864	0.557558	-0.245959
42520	9.422820	-0.186012	-2.382071	0.001499	0.005101	0.002202	0.213067	0.124476	0.969076	0.570942	-0.820744	-0.020107	0.792861	0.557570	-0.245942
42521	9.437726	-0.197299	-2.397544	0.000025	0.001696	-0.002032	0.213069	0.124502	0.969072	0.570942	-0.820744	-0.020087	0.792860	0.557564	-0.245959
42522	9.445410	-0.212165	-2.379496	-0.000433	0.004123	0.001298	0.213072	0.124486	0.969074	0.570933	-0.820751	-0.020100	0.792865	0.557559	-0.245952
42523	9.423040	-0.185960	-2.381202	0.000025	0.001696	-0.002032	0.213077	0.124511	0.969069	0.570934	-0.820750	-0.020082	0.792863	0.557554	-0.245971
42524	9.427696	-0.227672	-2.384557	-0.001790	0.002710	-0.001162	0.213077	0.124523	0.969068	0.570920	-0.820761	-0.020067	0.792874	0.557536	-0.245978
42525	9.430395	-0.182054	-2.414235	0.002648	0.004228	-0.000914	0.213067	0.124525	0.969070	0.570939	-0.820747	-0.020065	0.792863	0.557555	-0.245970
42526	9.405410	-0.201606	-2.385921	0.000783	0.001850	0.004019	0.213103	0.124499	0.969065	0.570934	-0.820750	-0.020107	0.792857	0.557557	-0.245985
42527	9.445361	-0.193577	-2.429470	-0.000525	0.003828	-0.002506	0.213087	0.124516	0.969066	0.570932	-0.820752	-0.020082	0.792863	0.557550	-0.245981
42528	9.423415	-0.185826	-2.379729	0.002648	0.004228	-0.000913	0.213076	0.124517	0.969069	0.570952	-0.820738	-0.020081	0.792851	0.557570	-0.245973
42529	9.431113	-0.200756	-2.361604	0.001382	0.003110	0.000430	0.213081	0.124514	0.969068	0.570958	-0.820733	-0.020089	0.792845	0.557578	-0.245974
42530	9.430804	-0.182233	-2.412624	0.000142	0.003687	-0.000259	0.213078	0.124513	0.969069	0.570957	-0.820734	-0.020088	0.792847	0.557577	-0.245972
42531	9.438492	-0.197051	-2.394548	-0.001790	0.002710	-0.001163	0.213079	0.124524	0.969067	0.570943	-0.820744	-0.020074	0.792857	0.557559	-0.245979
42532	9.423742	-0.185591	-2.378452	-0.000525	0.003829	-0.002505	0.213062	0.124541	0.969069	0.570941	-0.820746	-0.020050	0.792862	0.557553	-0.245976
42533	9.406004	-0.201175	-2.383617	0.002648	0.004229	-0.000913	0.213053	0.124543	0.969071	0.570961	-0.820733	-0.020048	0.792851	0.557573	-0.245968
42534	9.456573	-0.181049	-2.388063	0.001932	0.000978	0.000904	0.213078	0.124547	0.969064	0.570971	-0.820725	-0.020063	0.792836	0.557583	-0.245992
42535	9.420995	-0.212601	-2.398768	-0.002798	0.007270	0.001694	0.213059	0.124510	0.969073	0.570942	-0.820745	-0.020074	0.792862	0.557562	-0.245955
42536	9.431337	-0.181994	-2.410558	-0.000550	0.002133	-0.000474	0.213068	0.124520	0.969070	0.570936	-0.820749	-0.020069	0.792865	0.557553	-0.245968
42537	9.439013	-0.196859	-2.392506	0.000142	0.003688	-0.000259	0.213066	0.124519	0.969071	0.570935	-0.820750	-0.020068	0.792866	0.557552	-0.245966
42538	9.446703	-0.211857	-2.374385	0.000807	0.003546	0.001988	0.213077	0.124500	0.969071	0.570934	-0.820750	-0.020091	0.792864	0.557556	-0.245965
42539	9.439172	-0.196979	-2.391869	-0.001790	0.002710	-0.001163	0.213078	0.124512	0.969069	0.570919	-0.820761	-0.020077	0.792874	0.557538	-0.245972
42540	9.413800	-0.197641	-2.414946	-0.001790	0.002710	-0.001163	0.213078	0.124523	0.969067	0.570904	-0.820771	-0.020063	0.792884	0.557520	-0.245980
42541	9.421466	-0.212554	-2.396920	0.002623	0.002533	0.001119	0.213092	0.124517	0.969065	0.570920	-0.820760	-0.020081	0.792869	0.557538	-0.245987
42542	9.424572	-0.185572	-2.375162	-0.001648	0.006398	-0.001421	0.213061	0.124511	0.969073	0.570907	-0.820769	-0.020064	0.792887	0.557526	-0.245958
42543	9.432262	-0.200456	-2.357035	0.001932	0.000978	0.000904	0.213089	0.124516	0.969066	0.570918	-0.820762	-0.020079	0.792872	0.557536	-0.245984
42544	9.421349	-0.193970	-2.447290	0.000717	0.003251	-0.001816	0.213081	0.124530	0.969066	0.570924	-0.820758	-0.020065	0.792869	0.557539	-0.245985
42545	9.447231	-0.211730	-2.372293	0.000807	0.003547	0.001988	0.213092	0.124511	0.969066	0.570924	-0.820757	-0.020087	0.792867	0.557543	-0.245984
42546	9.417258	-0.170736	-2.391804	-0.000549	0.002133	-0.000474	0.213101	0.124521	0.969063	0.570917	-0.820762	-0.020082	0.792869	0.557534	-0.245996
42547	9.432167	-0.181957	-2.407311	0.000142	0.003688	-0.000259	0.213099	0.124521	0.969063	0.570915	-0.820764	-0.020080	0.792872	0.557531	-0.245995
42548	9.429288	-0.208887	-2.428199	-0.000408	0.005821	-0.000732	0.213077	0.124512	0.969069	0.570910	-0.820767	-0.020073	0.792881	0.557528	-0.245972
42549	9.440003	-0.196760	-2.388606	0.002648	0.004229	-0.000912	0.213067	0.124514	0.969071	0.570930	-0.820754	-0.020071	0.792869	0.557548	-0.245964
42550	9.417626	-0.170650	-2.390358	0.001932	0.000978	0.000904	0.213092	0.124519	0.969065	0.570940	-0.820746	-0.020086	0.792855	0.557558	-0.245987
42551	9.450391	-0.166170	-2.400233	-0.001648	0.006398	-0.001421	0.213061	0.124511	0.969073	0.570927	-0.820755	-0.020070	0.792873	0.557546	-0.245958
42552	9.433019	-0.200455	-2.354006	-0.001700	0.003005	0.002641	0.213080	0.124490	0.969071	0.570905	-0.820770	-0.020092	0.792883	0.557529	-0.245962
42553	9.440313	-0.196867	-2.387372	0.001266	0.001119	-0.001342	0.213092	0.124512	0.969066	0.570916	-0.820763	-0.020084	0.792873	0.557535	-0.245984
42554	9.432803	-0.181876	-2.404826	-0.000408	0.005821	-0.000732	0.213070	0.124503	0.969072	0.570911	-0.820767	-0.020077	0.792882	0.557532	-0.245960
42555	9.415070	-0.197594	-2.409991	-0.001125	0.002569	0.001084	0.213084	0.124496	0.969070	0.570898	-0.820775	-0.020088	0.792888	0.557520	-0.245969
42556	9.422768	-0.212563	-2.391795	-0.000983	0.006257	0.000826	0.213068	0.124471	0.969076	0.570885	-0.820784	-0.020094	0.792901	0.557513	-0.245941
42557	9.415279	-0.197770	-2.409163	0.002623	0.002533	0.001120	0.213080	0.124465	0.969074	0.570900	-0.820773	-0.020112	0.792887	0.557531	-0.245947
42558	9.455620	-0.208041	-2.401330	0.000627	0.002957	-0.005620	0.213053	0.124512	0.969074	0.570914	-0.820764	-0.020060	0.792884	0.557532	-0.245952
42559	9.415461	-0.197481	-2.408473	-0.000318	0.006116	0.003072	0.213049	0.124471	0.969081	0.570902	-0.820773	-0.020089	0.792894	0.557530	-0.245926
42560	9.455828	-0.208037	-2.400512	-0.000549	0.002133	-0.000474	0.213058	0.124480	0.969077	0.570896	-0.820777	-0.020085	0.792896	0.557521	-0.245938
42561	9.415617	-0.197534	-2.407858	0.001958	0.002674	-0.001126	0.213058	0.124491	0.969076	0.570911	-0.820766	-0.020080	0.792885	0.557534	-0.245944
42562	9.458956	-0.180909	-2.378618	-0.001099	0.004266	-0.000947	0.213047	0.124492	0.969078	0.570901	-0.820773	-0.020070	0.792895	0.557524	-0.245936
42563	9.415800	-0.197379	-2.407157	0.000142	0.003688	-0.000258	0.213046	0.124491	0.969079	0.570900	-0.820774	-0.020069	0.792896	0.557523	-0.245934
42564	9.430754	-0.208703	-2.422515	-0.002249	0.005139	0.002168	0.213045	0.124462	0.969082	0.570875	-0.820792	-0.020086	0.792915	0.557504	-0.245918
42565	9.401143	-0.186342	-2.390611	0.002622	0.002533	0.001121	0.213060	0.124457	0.969080	0.570890	-0.820781	-0.020103	0.792900	0.557521	-0.245927
42566	9.434290	-0.200464	-2.348903	-0.000265	0.009510	-0.000989	0.213007	0.124430	0.969095	0.570887	-0.820783	-0.020094	0.792916	0.557524	-0.245868
42567	9.434117	-0.181838	-2.399670	0.001958	0.002675	-0.001126	0.213007	0.124440	0.969094	0.570902	-0.820772	-0.020090	0.792905	0.557537	-0.245874
42568	9.434198	-0.181864	-2.399347	-0.000434	0.004125	0.001300	0.213010	0.124424	0.969095	0.570893	-0.820778	-0.020103	0.792911	0.557532	-0.245867
42569	9.431333	-0.208909	-2.420242	0.000833	0.005244	-0.000042	0.212997	0.124411	0.969100	0.570898	-0.820775	-0.020107	0.792911	0.557540	-0.245849
42570	9.416595	-0.197599	-2.404027	-0.001098	0.004266	-0.000947	0.212986	0.124413	0.969102	0.570888	-0.820782	-0.020096	0.792921	0.557529	-0.245841
42571	9.416676	-0.197625	-2.403705	0.002622	0.002533	0.001121	0.213002	0.124407	0.969099	0.570904	-0.820770	-0.020116	0.792905	0.557547	-0.245850
42572	9.456987	-0.208105	-2.395935	0.001267	0.001119	-0.001341	0.213013	0.124429	0.969094	0.570914	-0.820764	-0.020107	0.792895	0.557552	-0.245872
42573	9.412209	-0.155889	-2.399595	-0.002135	0.007131	0.003941	0.213009	0.124374	0.969102	0.570886	-0.820782	-0.020142	0.792917	0.557537	-0.245838
42574	9.442327	-0.196955	-2.379386	0.000603	0.001260	-0.003588	0.213007	0.124414	0.969097	0.570895	-0.820777	-0.020110	0.792910	0.557536	-0.245859
42575	9.409686	-0.201224	-2.369034	-0.000549	0.002133	-0.000474	0.213016	0.124424	0.969094	0.570889	-0.820781	-0.020105	0.792913	0.557527	-0.245871
42576	9.431902	-0.208822	-2.418033	-0.001674	0.004703	0.000610	0.213010	0.124410	0.969097	0.570871	-0.820793	-0.020108	0.792927	0.557513	-0.245859
42577	9.424761	-0.212499	-2.383937	0.001524	0.006800	0.000175	0.212986	0.124388	0.969105	0.570880	-0.820787	-0.020115	0.792927	0.557527	-0.245827
42578	9.435117	-0.181873	-2.395730	-0.000549	0.002133	-0.000473	0.212995	0.124397	0.969102	0.570874	-0.820792	-0.020110	0.792929	0.557518	-0.245839
42579	9.457625	-0.207998	-2.393427	0.000142	0.003689	-0.000257	0.212993	0.124396	0.969102	0.570873	-0.820792	-0.020110	0.792930	0.557517	-0.245838
42580	9.417486	-0.197571	-2.400536	0.001524	0.006800	0.000175	0.212969	0.124374	0.969111	0.570881	-0.820786	-0.020117	0.792931	0.557531	-0.245804
42581	9.442724	-0.178224	-2.428016	0.000142	0.003689	-0.000257	0.212964	0.124372	0.969112	0.570880	-0.820787	-0.020115	0.792933	0.557530	-0.245799
42582	9.417682	-0.197547	-2.399767	-0.000549	0.002133	-0.000473	0.212972	0.124381	0.969109	0.570874	-0.820792	-0.020110	0.792935	0.557522	-0.245812
42583	9.450430	-0.193029	-2.409720	0.001958	0.002675	-0.001125	0.212972	0.124392	0.969108	0.570889	-0.820781	-0.020106	0.792924	0.557535	-0.245818
42584	9.435661	-0.181633	-2.393606	-0.002338	0.004845	-0.001637	0.212953	0.124396	0.969111	0.570871	-0.820794	-0.020085	0.792942	0.557515	-0.245804
42585	9.450620	-0.192825	-2.408990	0.001382	0.003112	0.000433	0.212957	0.124394	0.969111	0.570877	-0.820790	-0.020091	0.792937	0.557521	-0.245807
42586	9.432887	-0.208639	-2.414199	0.002073	0.004667	0.000649	0.212952	0.124380	0.969114	0.570889	-0.820781	-0.020104	0.792930	0.557537	-0.245794
42587	9.453756	-0.165963	-2.386959	-0.000549	0.002134	-0.000473	0.213103	0.124565	0.969057	0.570877	-0.820791	-0.020033	0.792898	0.557481	-0.246024
42588	9.418183	-0.197365	-2.397818	0.002649	0.004231	-0.000908	0.213092	0.124566	0.969059	0.570897	-0.820777	-0.020032	0.792886	0.557501	-0.246016
42589	9.433122	-0.208700	-2.413278	0.000115	0.001992	0.001774	0.213114	0.124558	0.969055	0.570891	-0.820781	-0.020050	0.792885	0.557498	-0.246029
42590	9.421293	-0.170416	-2.375884	0.001986	0.004372	-0.003155	0.213090	0.124577	0.969058	0.570910	-0.820768	-0.020026	0.792877	0.557512	-0.246020
42591	9.451129	-0.192689	-2.407005	-0.000522	0.003831	-0.002504	0.213072	0.124595	0.969060	0.570907	-0.820771	-0.020000	0.792884	0.557504	-0.246016
42592	9.426071	-0.212060	-2.378789	0.001355	0.001415	0.002463	0.213104	0.124584	0.969054	0.570910	-0.820768	-0.020028	0.792874	0.557510	-0.246035
42593	9.436384	-0.181558	-2.390760	0.000142	0.003689	-0.000257	0.213100	0.124583	0.969055	0.570908	-0.820770	-0.020026	0.792876	0.557509	-0.246032
42594	9.428903	-0.166636	-2.408208	0.000142	0.003690	-0.000257	0.213098	0.124583	0.969055	0.570907	-0.820770	-0.020025	0.792877	0.557508	-0.246030
42595	9.441179	-0.223468	-2.393584	-0.000434	0.004126	0.001300	0.213103	0.124568	0.969056	0.570897	-0.820777	-0.020037	0.792884	0.557501	-0.246025
42596	9.443978	-0.178008	-2.423150	0.000833	0.005246	-0.000040	0.213089	0.124557	0.969061	0.570900	-0.820775	-0.020040	0.792884	0.557507	-0.246008
42597	9.418960	-0.197367	-2.394764	0.000142	0.003690	-0.000257	0.213087	0.124557	0.969061	0.570898	-0.820776	-0.020038	0.792887	0.557505	-0.246006
42598	9.436868	-0.181738	-2.388836	0.000805	0.003549	0.001990	0.213099	0.124538	0.969061	0.570897	-0.820776	-0.020060	0.792884	0.557509	-0.246005
42599	9.429354	-0.167006	-2.406418	0.001931	0.000978	0.000907	0.213126	0.124541	0.969055	0.570908	-0.820768	-0.020077	0.792869	0.557520	-0.246029
42600	9.408919	-0.228278	-2.381673	-0.000407	0.005823	-0.000730	0.213104	0.124532	0.969061	0.570904	-0.820772	-0.020070	0.792878	0.557517	-0.246006
42601	9.451968	-0.193128	-2.403672	-0.000549	0.002134	-0.000473	0.213114	0.124540	0.969057	0.570898	-0.820775	-0.020068	0.792879	0.557510	-0.246019
42602	9.419351	-0.197501	-2.393211	-0.001098	0.004268	-0.000947	0.213103	0.124542	0.969059	0.570889	-0.820782	-0.020057	0.792889	0.557499	-0.246011
42603	9.434321	-0.208695	-2.408585	0.000142	0.003690	-0.000257	0.213100	0.124540	0.969060	0.570887	-0.820784	-0.020056	0.792891	0.557498	-0.246007
42604	9.452196	-0.192915	-2.402795	-0.001240	0.000578	-0.000690	0.213120	0.124560	0.969054	0.570876	-0.820792	-0.020048	0.792894	0.557482	-0.246035
42605	9.434426	-0.208579	-2.408185	0.000142	0.003690	-0.000257	0.213117	0.124559	0.969054	0.570875	-0.820792	-0.020047	0.792895	0.557481	-0.246032
42606	9.419629	-0.197277	-2.392135	0.001959	0.002676	-0.001124	0.213118	0.124570	0.969053	0.570890	-0.820782	-0.020042	0.792884	0.557494	-0.246039
42607	9.434623	-0.208783	-2.407397	0.001034	0.007534	0.005538	0.213119	0.124500	0.969061	0.570883	-0.820785	-0.020100	0.792889	0.557505	-0.246000
42608	9.445250	-0.196784	-2.367771	-0.002451	0.002853	-0.003411	0.213106	0.124530	0.969061	0.570868	-0.820797	-0.020062	0.792903	0.557481	-0.246006
42609	9.427269	-0.193765	-2.424403	0.000142	0.003690	-0.000256	0.213101	0.124528	0.969062	0.570865	-0.820799	-0.020060	0.792907	0.557478	-0.246002
42610	9.422987	-0.170466	-2.369152	-0.000435	0.004127	0.001301	0.213104	0.124512	0.969063	0.570856	-0.820805	-0.020072	0.792912	0.557473	-0.245995
42611	9.442572	-0.223658	-2.388065	0.000142	0.003690	-0.000256	0.213103	0.124512	0.969064	0.570855	-0.820806	-0.020072	0.792914	0.557472	-0.245994
42612	9.435092	-0.208851	-2.405552	-0.001702	0.003007	0.002641	0.213122	0.124491	0.969062	0.570833	-0.820820	-0.020094	0.792924	0.557455	-0.245998
42613	9.435192	-0.208849	-2.405157	0.000171	0.005388	-0.002287	0.213094	0.124497	0.969067	0.570835	-0.820819	-0.020073	0.792930	0.557455	-0.245979
42614	9.445528	-0.178187	-2.417088	-0.000577	0.000437	0.001557	0.213128	0.124499	0.969059	0.570825	-0.820826	-0.020088	0.792929	0.557444	-0.246009
42615	9.453136	-0.193031	-2.399085	-0.000520	0.003831	-0.002503	0.213111	0.124516	0.969061	0.570823	-0.820828	-0.020063	0.792935	0.557438	-0.246004
42616	9.412984	-0.182520	-2.406341	0.002073	0.004669	0.000651	0.213106	0.124503	0.969064	0.570835	-0.820820	-0.020075	0.792927	0.557454	-0.245992
42617	9.453343	-0.193074	-2.398265	-0.000435	0.004127	0.001301	0.213110	0.124486	0.969065	0.570827	-0.820825	-0.020089	0.792932	0.557449	-0.245986
42618	9.435624	-0.208793	-2.403469	-0.001097	0.004268	-0.000946	0.213099	0.124488	0.969067	0.570817	-0.820832	-0.020078	0.792942	0.557439	-0.245978
42619	9.405945	-0.186317	-2.371649	-0.001703	0.003007	0.002641	0.213117	0.124465	0.969066	0.570795	-0.820846	-0.020101	0.792953	0.557422	-0.245981
42620	9.446089	-0.178281	-2.414888	0.002101	0.006366	-0.001379	0.213087	0.124459	0.969074	0.570812	-0.820835	-0.020094	0.792949	0.557441	-0.245952
42621	9.403204	-0.213277	-2.392220	-0.001239	0.000578	-0.000690	0.213106	0.124477	0.969067	0.570802	-0.820842	-0.020086	0.792951	0.557426	-0.245978
42622	9.456693	-0.166036	-2.375289	-0.000549	0.002134	-0.000473	0.213115	0.124487	0.969064	0.570795	-0.820847	-0.020081	0.792953	0.557417	-0.245991
42623	9.436045	-0.208625	-2.401831	-0.001646	0.006403	-0.001419	0.213086	0.124482	0.969071	0.570782	-0.820856	-0.020064	0.792970	0.557404	-0.245965
42624	9.421256	-0.197476	-2.385705	0.000776	0.001852	0.004022	0.213122	0.124456	0.969066	0.570777	-0.820859	-0.020106	0.792964	0.557406	-0.245980
42625	9.428885	-0.212585	-2.367564	0.000833	0.005247	-0.000038	0.213109	0.124443	0.969071	0.570782	-0.820855	-0.020111	0.792964	0.557414	-0.245961
42626	9.446585	-0.178414	-2.412935	0.002621	0.002535	0.001125	0.213123	0.124437	0.969069	0.570798	-0.820844	-0.020130	0.792949	0.557432	-0.245970
42627	9.421502	-0.197849	-2.384703	0.000143	0.003691	-0.000256	0.213123	0.124437	0.969069	0.570795	-0.820846	-0.020129	0.792951	0.557430	-0.245969
42628	9.421377	-0.179155	-2.435741	0.001297	0.002817	-0.003370	0.213110	0.124466	0.969068	0.570810	-0.820836	-0.020100	0.792944	0.557437	-0.245975
42629	9.406776	-0.186280	-2.368353	0.000142	0.003691	-0.000256	0.213107	0.124466	0.969069	0.570809	-0.820837	-0.020099	0.792945	0.557437	-0.245972
42630	9.436660	-0.208802	-2.399398	0.000833	0.005247	-0.000038	0.213093	0.124454	0.969073	0.570813	-0.820834	-0.020102	0.792946	0.557443	-0.245954
42631	9.414314	-0.182845	-2.401108	0.003283	0.002394	0.003373	0.213122	0.124430	0.969070	0.570829	-0.820822	-0.020144	0.792927	0.557466	-0.245963
42632	9.454657	-0.193380	-2.393055	0.000172	0.005388	-0.002286	0.213094	0.124437	0.969075	0.570832	-0.820820	-0.020123	0.792932	0.557467	-0.245945
42633	9.404241	-0.213378	-2.388131	0.000720	0.003254	-0.001813	0.213087	0.124451	0.969075	0.570838	-0.820817	-0.020109	0.792930	0.557469	-0.245946
42634	9.422142	-0.197569	-2.382195	0.000143	0.003691	-0.000256	0.213084	0.124450	0.969075	0.570837	-0.820817	-0.020108	0.792932	0.557468	-0.245944
42635	9.407339	-0.186285	-2.366117	0.000143	0.003691	-0.000256	0.213081	0.124448	0.969076	0.570835	-0.820818	-0.020107	0.792933	0.557467	-0.245940
42636	9.434285	-0.235708	-2.418587	0.000720	0.003254	-0.001812	0.213074	0.124462	0.969076	0.570842	-0.820814	-0.020093	0.792931	0.557471	-0.245942
42637	9.422400	-0.197374	-2.381191	0.000142	0.003691	-0.000256	0.213072	0.124461	0.969077	0.570841	-0.820815	-0.020092	0.792932	0.557470	-0.245939
42638	9.414952	-0.182700	-2.398618	-0.000351	0.004424	0.005106	0.213094	0.124412	0.969078	0.570825	-0.820825	-0.020142	0.792938	0.557466	-0.245930
42639	9.452369	-0.220104	-2.411916	0.000636	0.002959	-0.005617	0.213068	0.124459	0.969078	0.570839	-0.820816	-0.020091	0.792934	0.557468	-0.245935
42640	9.415126	-0.182592	-2.397943	0.000226	0.003987	0.003549	0.213084	0.124425	0.969079	0.570830	-0.820821	-0.020127	0.792936	0.557468	-0.245930
42641	9.415229	-0.182704	-2.397527	0.001411	0.004811	-0.001594	0.213066	0.124429	0.969082	0.570843	-0.820813	-0.020116	0.792932	0.557479	-0.245916
42642	9.437759	-0.208845	-2.395066	0.001382	0.003113	0.000435	0.213072	0.124425	0.969081	0.570850	-0.820808	-0.020125	0.792926	0.557488	-0.245919
42643	9.400510	-0.171446	-2.381105	0.000143	0.003691	-0.000255	0.213070	0.124426	0.969082	0.570847	-0.820810	-0.020123	0.792928	0.557485	-0.245918
42644	9.452834	-0.220067	-2.410093	-0.001097	0.004269	-0.000946	0.213060	0.124427	0.969084	0.570838	-0.820816	-0.020112	0.792937	0.557475	-0.245910
42645	9.415607	-0.182573	-2.396054	0.002650	0.004233	-0.000903	0.213049	0.124431	0.969086	0.570855	-0.820805	-0.020108	0.792928	0.557491	-0.245903
42646	9.438148	-0.208733	-2.393543	-0.001674	0.004706	0.000611	0.213043	0.124417	0.969089	0.570837	-0.820817	-0.020111	0.792942	0.557477	-0.245891
42647	9.423367	-0.197487	-2.377351	0.000834	0.005248	-0.000037	0.213028	0.124404	0.969094	0.570841	-0.820814	-0.020114	0.792944	0.557483	-0.245872
42648	9.415940	-0.182586	-2.394743	0.000143	0.003691	-0.000255	0.213026	0.124403	0.969094	0.570840	-0.820815	-0.020113	0.792945	0.557482	-0.245869
42649	9.456282	-0.193003	-2.386656	0.002651	0.004234	-0.000903	0.213014	0.124404	0.969097	0.570861	-0.820801	-0.020112	0.792933	0.557504	-0.245859
42650	9.383430	-0.187022	-2.383844	-0.001674	0.004706	0.000611	0.213009	0.124390	0.969100	0.570843	-0.820813	-0.020115	0.792947	0.557489	-0.245847
42651	9.448950	-0.178149	-2.403677	0.001382	0.003114	0.000436	0.213016	0.124386	0.969099	0.570851	-0.820807	-0.020125	0.792940	0.557498	-0.245851
42652	9.406040	-0.213323	-2.381041	-0.000435	0.004128	0.001302	0.213019	0.124370	0.969100	0.570842	-0.820813	-0.020138	0.792945	0.557493	-0.245844
42653	9.408884	-0.167849	-2.410683	0.000143	0.003692	-0.000255	0.213020	0.124371	0.969100	0.570840	-0.820815	-0.020137	0.792947	0.557490	-0.245846
42654	9.453828	-0.220133	-2.406186	0.001960	0.002677	-0.001121	0.213021	0.124383	0.969098	0.570855	-0.820804	-0.020132	0.792936	0.557503	-0.245853
42655	9.401668	-0.171291	-2.376541	-0.000518	0.003833	-0.002503	0.213005	0.124401	0.969099	0.570852	-0.820807	-0.020106	0.792942	0.557495	-0.245850
42656	9.439091	-0.208629	-2.389831	0.001382	0.003114	0.000436	0.213011	0.124398	0.969098	0.570859	-0.820802	-0.020115	0.792935	0.557503	-0.245853
42657	9.424252	-0.197440	-2.373846	-0.001126	0.002572	0.001084	0.213025	0.124392	0.969096	0.570844	-0.820812	-0.020123	0.792943	0.557489	-0.245862
42658	9.384108	-0.187000	-2.381176	-0.000405	0.005827	-0.000728	0.213003	0.124383	0.969102	0.570839	-0.820815	-0.020116	0.792952	0.557486	-0.245839
42659	9.472074	-0.204059	-2.398877	-0.001209	0.002276	-0.002721	0.212997	0.124412	0.969100	0.570832	-0.820821	-0.020086	0.792958	0.557472	-0.245850
42660	9.402094	-0.171009	-2.374873	-0.000436	0.004129	0.001302	0.213000	0.124396	0.969101	0.570823	-0.820827	-0.020099	0.792964	0.557466	-0.245844
42661	9.454436	-0.219608	-2.403843	0.003807	0.003360	-0.004015	0.212980	0.124427	0.969101	0.570859	-0.820803	-0.020071	0.792944	0.557495	-0.245845
42662	9.424615	-0.178452	-2.423234	-0.000293	0.007821	0.001047	0.212952	0.124393	0.969112	0.570851	-0.820808	-0.020082	0.792957	0.557495	-0.245803
42663	9.432244	-0.193462	-2.404999	0.001930	0.000979	0.000910	0.212978	0.124398	0.969106	0.570861	-0.820801	-0.020096	0.792943	0.557504	-0.245826
42664	9.439834	-0.208434	-2.386912	-0.001675	0.004707	0.000611	0.212972	0.124384	0.969109	0.570843	-0.820813	-0.020099	0.792957	0.557490	-0.245814
42665	9.425033	-0.197235	-2.370758	0.002072	0.004671	0.000655	0.212966	0.124372	0.969112	0.570854	-0.820805	-0.020109	0.792951	0.557504	-0.245802
42666	9.432548	-0.193618	-2.403791	-0.000405	0.005827	-0.000727	0.212944	0.124363	0.969117	0.570850	-0.820808	-0.020102	0.792960	0.557501	-0.245779
42667	9.399962	-0.198047	-2.393189	0.000834	0.005249	-0.000036	0.212929	0.124350	0.969122	0.570856	-0.820804	-0.020105	0.792960	0.557510	-0.245759
42668	9.458117	-0.192758	-2.379394	0.000143	0.003692	-0.000254	0.212927	0.124349	0.969123	0.570854	-0.820805	-0.020104	0.792961	0.557509	-0.245757
42669	9.440398	-0.208461	-2.384676	0.000143	0.003692	-0.000254	0.212924	0.124349	0.969124	0.570852	-0.820807	-0.020103	0.792963	0.557507	-0.245754
42670	9.418028	-0.182129	-2.386555	0.000609	0.001261	-0.003586	0.212922	0.124389	0.969119	0.570862	-0.820801	-0.020071	0.792957	0.557507	-0.245775
42671	9.425634	-0.197005	-2.368386	-0.000324	0.006123	0.003077	0.212920	0.124347	0.969125	0.570848	-0.820810	-0.020100	0.792968	0.557502	-0.245750
42672	9.410695	-0.167324	-2.403641	-0.000548	0.002135	-0.000473	0.212929	0.124357	0.969122	0.570842	-0.820814	-0.020095	0.792970	0.557494	-0.245763
42673	9.473419	-0.203862	-2.393576	-0.000548	0.002135	-0.000473	0.212940	0.124367	0.969118	0.570834	-0.820819	-0.020091	0.792972	0.557484	-0.245778
42674	9.400532	-0.197915	-2.390959	-0.000436	0.004129	0.001302	0.212943	0.124351	0.969119	0.570825	-0.820825	-0.020104	0.792978	0.557479	-0.245772
42675	9.440863	-0.208397	-2.382840	0.000143	0.003692	-0.000254	0.212942	0.124349	0.969120	0.570825	-0.820826	-0.020105	0.792978	0.557479	-0.245769
42676	9.448344	-0.204676	-2.416067	-0.001787	0.002713	-0.001164	0.212942	0.124361	0.969118	0.570810	-0.820836	-0.020090	0.792989	0.557461	-0.245777
42677	9.418593	-0.182196	-2.384316	-0.001015	0.004566	0.002859	0.212952	0.124330	0.969120	0.570792	-0.820848	-0.020117	0.792999	0.557450	-0.245768
42678	9.433619	-0.193457	-2.399598	0.001991	0.004376	-0.003148	0.212928	0.124349	0.969123	0.570811	-0.820835	-0.020092	0.792992	0.557465	-0.245759
42679	9.433686	-0.193399	-2.399342	0.001929	0.000979	0.000910	0.212957	0.124355	0.969116	0.570822	-0.820828	-0.020108	0.792977	0.557474	-0.245785
42680	9.426251	-0.178462	-2.416863	0.000174	0.005391	-0.002283	0.212929	0.124361	0.969121	0.570825	-0.820826	-0.020087	0.792982	0.557475	-0.245766
42681	9.448789	-0.204507	-2.414341	-0.002366	0.003150	0.000392	0.212935	0.124356	0.969120	0.570802	-0.820842	-0.020087	0.792997	0.557453	-0.245769
42682	9.423657	-0.223846	-2.386134	0.000143	0.003693	-0.000254	0.212933	0.124355	0.969121	0.570801	-0.820843	-0.020086	0.792998	0.557452	-0.245766
42683	9.451842	-0.177478	-2.392329	0.000143	0.003693	-0.000254	0.212932	0.124354	0.969121	0.570799	-0.820844	-0.020087	0.792999	0.557451	-0.245765
42684	9.408912	-0.212542	-2.369736	0.000143	0.003693	-0.000254	0.212929	0.124353	0.969122	0.570798	-0.820845	-0.020086	0.793001	0.557450	-0.245762
42685	9.452020	-0.177437	-2.391631	0.000143	0.003693	-0.000254	0.212929	0.124353	0.969122	0.570798	-0.820845	-0.020085	0.793001	0.557450	-0.245762
42686	9.416492	-0.208848	-2.402611	0.001961	0.002678	-0.001119	0.212930	0.124365	0.969120	0.570813	-0.820834	-0.020080	0.792990	0.557462	-0.245769
42687	9.434339	-0.193293	-2.396781	-0.001737	0.001311	0.004669	0.212975	0.124338	0.969114	0.570787	-0.820852	-0.020122	0.792997	0.557443	-0.245791
42688	9.441822	-0.189734	-2.430037	0.001992	0.004376	-0.003148	0.212951	0.124357	0.969117	0.570807	-0.820839	-0.020098	0.792989	0.557458	-0.245782
42689	9.419599	-0.181988	-2.380358	0.000834	0.005250	-0.000035	0.212937	0.124345	0.969121	0.570811	-0.820835	-0.020101	0.792989	0.557466	-0.245763
42690	9.449531	-0.204542	-2.411430	0.000691	0.001557	0.000219	0.212954	0.124352	0.969117	0.570814	-0.820833	-0.020106	0.792983	0.557467	-0.245781
42691	9.409352	-0.194163	-2.418982	0.001382	0.003115	0.000438	0.212962	0.124349	0.969115	0.570820	-0.820829	-0.020115	0.792976	0.557474	-0.245786
42692	9.437607	-0.166487	-2.373881	-0.001706	0.003010	0.002640	0.212981	0.124329	0.969114	0.570798	-0.820843	-0.020137	0.792987	0.557457	-0.245791
42693	9.417007	-0.209294	-2.400553	0.000143	0.003693	-0.000254	0.212980	0.124327	0.969114	0.570796	-0.820845	-0.020136	0.792989	0.557455	-0.245789
42694	9.434916	-0.193567	-2.394485	0.000834	0.005251	-0.000035	0.212966	0.124316	0.969119	0.570800	-0.820842	-0.020139	0.792990	0.557462	-0.245771
42695	9.424621	-0.205506	-2.433345	0.000611	0.001261	-0.003585	0.212965	0.124355	0.969114	0.570810	-0.820836	-0.020108	0.792983	0.557463	-0.245793
42696	9.450019	-0.204590	-2.409513	0.002763	0.006230	0.000877	0.212949	0.124331	0.969120	0.570827	-0.820823	-0.020125	0.792975	0.557486	-0.245765
42697	9.427803	-0.196927	-2.359746	0.000175	0.005392	-0.002283	0.212923	0.124338	0.969125	0.570830	-0.820822	-0.020104	0.792980	0.557486	-0.245748
42698	9.427840	-0.178284	-2.410669	0.000143	0.003693	-0.000253	0.212921	0.124337	0.969126	0.570829	-0.820823	-0.020103	0.792981	0.557485	-0.245746
42699	9.420492	-0.181942	-2.376825	0.001381	0.003115	0.000438	0.212929	0.124335	0.969124	0.570835	-0.820818	-0.020112	0.792975	0.557493	-0.245750
42700	9.450414	-0.204593	-2.407965	0.000111	0.001995	0.001776	0.212951	0.124327	0.969121	0.570829	-0.820822	-0.020130	0.792973	0.557489	-0.245764
42701	9.413117	-0.167244	-2.394145	0.000143	0.003693	-0.000253	0.212950	0.124326	0.969121	0.570829	-0.820822	-0.020130	0.792973	0.557489	-0.245763
42702	9.435641	-0.193269	-2.391651	-0.000516	0.003834	-0.002502	0.212934	0.124343	0.969122	0.570828	-0.820824	-0.020106	0.792978	0.557483	-0.245760
42703	9.435723	-0.193116	-2.391342	0.001961	0.002678	-0.001118	0.212934	0.124355	0.969121	0.570844	-0.820813	-0.020100	0.792967	0.557496	-0.245767
42704	9.418013	-0.208821	-2.396645	-0.001675	0.004709	0.000611	0.212929	0.124342	0.969124	0.570826	-0.820825	-0.020103	0.792981	0.557482	-0.245755
42705	9.410612	-0.193858	-2.414103	0.000723	0.003256	-0.001810	0.212923	0.124356	0.969123	0.570833	-0.820820	-0.020089	0.792978	0.557485	-0.245758
42706	9.450913	-0.204252	-2.406032	-0.001127	0.002573	0.001084	0.212937	0.124350	0.969121	0.570819	-0.820830	-0.020098	0.792984	0.557472	-0.245766
42707	9.436060	-0.192968	-2.390023	-0.001095	0.004272	-0.000945	0.212926	0.124351	0.969123	0.570810	-0.820836	-0.020089	0.792993	0.557463	-0.245759
42708	9.436141	-0.192815	-2.389714	0.002541	0.002241	-0.002674	0.212922	0.124378	0.969120	0.570833	-0.820821	-0.020070	0.792978	0.557479	-0.245770
42709	9.436215	-0.192709	-2.389432	0.000143	0.003694	-0.000253	0.212919	0.124377	0.969121	0.570831	-0.820822	-0.020069	0.792980	0.557478	-0.245767
42710	9.411015	-0.193767	-2.412537	-0.000358	0.004427	0.005108	0.212941	0.124328	0.969123	0.570814	-0.820833	-0.020119	0.792986	0.557473	-0.245757
42711	9.411045	-0.193804	-2.412417	-0.000770	-0.001854	-0.004024	0.212961	0.124388	0.969110	0.570814	-0.820834	-0.020079	0.792981	0.557458	-0.245808
42712	9.426058	-0.204915	-2.427823	-0.000294	0.007824	0.001050	0.212934	0.124354	0.969121	0.570807	-0.820839	-0.020090	0.792994	0.557459	-0.245766
42713	9.436540	-0.192903	-2.388131	0.001381	0.003116	0.000439	0.212939	0.124350	0.969120	0.570814	-0.820833	-0.020099	0.792987	0.557467	-0.245768
42714	9.433761	-0.219854	-2.409169	0.000723	0.003257	-0.001809	0.212931	0.124364	0.969120	0.570820	-0.820829	-0.020084	0.792984	0.557470	-0.245770
42715	9.429199	-0.177816	-2.405381	-0.001786	0.002714	-0.001165	0.212931	0.124376	0.969119	0.570806	-0.820840	-0.020070	0.792995	0.557452	-0.245777
42716	9.444207	-0.188926	-2.420812	-0.001786	0.002714	-0.001165	0.212931	0.124388	0.969117	0.570791	-0.820850	-0.020055	0.793005	0.557434	-0.245784
42717	9.404122	-0.196841	-2.376891	0.000175	0.005393	-0.002281	0.212906	0.124394	0.969122	0.570795	-0.820848	-0.020036	0.793010	0.557435	-0.245767
42718	9.421994	-0.181074	-2.370929	0.001929	0.000980	0.000912	0.212932	0.124399	0.969115	0.570805	-0.820841	-0.020051	0.792995	0.557446	-0.245791
42719	9.426667	-0.204507	-2.425492	0.000834	0.005252	-0.000033	0.212920	0.124387	0.969120	0.570808	-0.820838	-0.020054	0.792996	0.557452	-0.245774
42720	9.437091	-0.192391	-2.385993	-0.003056	0.001593	0.000172	0.212936	0.124395	0.969115	0.570781	-0.820858	-0.020049	0.793011	0.557422	-0.245792
42721	9.437165	-0.192418	-2.385699	0.002072	0.004674	0.000659	0.212932	0.124381	0.969118	0.570792	-0.820850	-0.020062	0.793005	0.557436	-0.245781
42722	9.401676	-0.223918	-2.396627	0.000143	0.003694	-0.000253	0.212930	0.124380	0.969118	0.570791	-0.820850	-0.020061	0.793006	0.557435	-0.245778
42723	9.437346	-0.192491	-2.384979	0.001381	0.003116	0.000440	0.212937	0.124376	0.969117	0.570799	-0.820844	-0.020071	0.792998	0.557445	-0.245782
42724	9.427098	-0.204614	-2.423807	0.002652	0.004237	-0.000897	0.212927	0.124378	0.969119	0.570819	-0.820831	-0.020070	0.792987	0.557465	-0.245774
42725	9.434659	-0.219583	-2.405673	0.000111	0.001995	0.001776	0.212950	0.124372	0.969115	0.570813	-0.820834	-0.020087	0.792985	0.557461	-0.245790
42726	9.462876	-0.173137	-2.411734	-0.004119	0.007565	-0.002802	0.212902	0.124370	0.969126	0.570784	-0.820856	-0.020050	0.793019	0.557430	-0.245750
42727	9.412470	-0.193119	-2.406906	0.001961	0.002679	-0.001116	0.212903	0.124382	0.969124	0.570799	-0.820845	-0.020045	0.793008	0.557442	-0.245758
42728	9.430329	-0.177333	-2.400984	0.001961	0.002679	-0.001116	0.212904	0.124394	0.969122	0.570814	-0.820835	-0.020040	0.792997	0.557455	-0.245765
42729	9.437910	-0.192206	-2.382769	0.000834	0.005252	-0.000033	0.212888	0.124382	0.969127	0.570816	-0.820833	-0.020042	0.792999	0.557461	-0.245745
42730	9.412745	-0.193105	-2.405832	-0.000437	0.004131	0.001304	0.212891	0.124366	0.969129	0.570807	-0.820839	-0.020055	0.793005	0.557455	-0.245738
42731	9.445587	-0.188638	-2.415444	-0.001095	0.004272	-0.000945	0.212881	0.124367	0.969131	0.570797	-0.820846	-0.020044	0.793015	0.557444	-0.245731
42732	9.445696	-0.188589	-2.415023	-0.001675	0.004710	0.000611	0.212875	0.124353	0.969134	0.570780	-0.820858	-0.020047	0.793029	0.557429	-0.245719
42733	9.420520	-0.208042	-2.386837	0.002619	0.002538	0.001133	0.212890	0.124348	0.969131	0.570795	-0.820847	-0.020066	0.793014	0.557447	-0.245727
42734	9.445808	-0.188702	-2.414577	0.000580	-0.000437	-0.001556	0.212913	0.124380	0.969122	0.570800	-0.820844	-0.020053	0.793004	0.557444	-0.245765
42735	9.438389	-0.192274	-2.380864	-0.001675	0.004710	0.000611	0.212909	0.124365	0.969125	0.570783	-0.820856	-0.020058	0.793017	0.557431	-0.245753
42736	9.428201	-0.204407	-2.419532	-0.000985	0.006268	0.000831	0.212892	0.124341	0.969132	0.570771	-0.820864	-0.020065	0.793031	0.557424	-0.245726
42737	9.456401	-0.176629	-2.374307	0.000691	0.001558	0.000220	0.212908	0.124346	0.969127	0.570776	-0.820861	-0.020072	0.793023	0.557428	-0.245742
42738	9.438670	-0.192432	-2.379739	-0.002946	0.003589	0.001947	0.212919	0.124328	0.969127	0.570745	-0.820882	-0.020084	0.793042	0.557401	-0.245741
42739	9.428451	-0.204641	-2.418534	0.002072	0.004675	0.000661	0.212913	0.124315	0.969130	0.570756	-0.820874	-0.020094	0.793036	0.557415	-0.245728
42740	9.453830	-0.203920	-2.394574	0.002072	0.004675	0.000661	0.212908	0.124301	0.969133	0.570768	-0.820865	-0.020107	0.793029	0.557431	-0.245716
42741	9.421177	-0.208430	-2.384210	-0.002366	0.003152	0.000391	0.212914	0.124298	0.969132	0.570744	-0.820882	-0.020106	0.793044	0.557408	-0.245719
42742	9.436203	-0.219654	-2.399604	0.001962	0.002679	-0.001115	0.212915	0.124310	0.969131	0.570760	-0.820871	-0.020101	0.793033	0.557420	-0.245726
42743	9.421336	-0.208371	-2.383587	-0.001675	0.004710	0.000611	0.212907	0.124298	0.969134	0.570741	-0.820884	-0.020101	0.793048	0.557404	-0.245714
42744	9.424272	-0.181445	-2.361829	-0.000437	0.004132	0.001304	0.212911	0.124282	0.969135	0.570732	-0.820890	-0.020114	0.793054	0.557399	-0.245708
42745	9.421528	-0.208415	-2.382825	0.000724	0.003258	-0.001808	0.212903	0.124298	0.969135	0.570737	-0.820887	-0.020098	0.793052	0.557400	-0.245711
42746	9.429080	-0.204679	-2.416080	-0.000547	0.002137	-0.000472	0.212912	0.124307	0.969132	0.570731	-0.820891	-0.020093	0.793054	0.557392	-0.245723
42747	9.421653	-0.208252	-2.382342	0.001962	0.002679	-0.001115	0.212910	0.124321	0.969130	0.570745	-0.820881	-0.020085	0.793044	0.557403	-0.245729
42748	9.424569	-0.162697	-2.412075	-0.002366	0.003152	0.000391	0.212916	0.124317	0.969130	0.570723	-0.820897	-0.020084	0.793059	0.557381	-0.245733
42749	9.414311	-0.193261	-2.399683	0.003781	0.001664	-0.001978	0.212921	0.124339	0.969126	0.570756	-0.820874	-0.020079	0.793033	0.557410	-0.245749
42750	9.414411	-0.193127	-2.399301	-0.001642	0.006410	-0.001417	0.212890	0.124333	0.969133	0.570743	-0.820883	-0.020062	0.793051	0.557397	-0.245720
42751	9.454720	-0.203536	-2.391092	0.001928	0.000980	0.000913	0.212916	0.124339	0.969127	0.570753	-0.820876	-0.020075	0.793037	0.557407	-0.245745
42752	9.432336	-0.177302	-2.393090	0.001305	0.002820	-0.003364	0.212903	0.124369	0.969126	0.570768	-0.820867	-0.020047	0.793030	0.557414	-0.245751
42753	9.422092	-0.207818	-2.380643	0.001381	0.003117	0.000441	0.212910	0.124366	0.969125	0.570774	-0.820862	-0.020055	0.793023	0.557421	-0.245755
42754	9.437114	-0.219023	-2.396077	0.000034	0.001699	-0.002028	0.212914	0.124391	0.969121	0.570776	-0.820861	-0.020037	0.793021	0.557417	-0.245772
42755	9.399763	-0.181594	-2.382424	0.000110	0.001996	0.001776	0.212937	0.124383	0.969116	0.570769	-0.820866	-0.020055	0.793020	0.557412	-0.245787
42756	9.440055	-0.192095	-2.374262	0.002653	0.004238	-0.000894	0.212927	0.124385	0.969118	0.570789	-0.820852	-0.020054	0.793008	0.557432	-0.245779
42757	9.437344	-0.218972	-2.395177	-0.002332	0.004852	-0.001637	0.212908	0.124390	0.969122	0.570770	-0.820866	-0.020032	0.793027	0.557410	-0.245767
42758	9.382239	-0.197376	-2.387071	0.000766	0.001855	0.004025	0.212944	0.124364	0.969117	0.570764	-0.820869	-0.020074	0.793021	0.557412	-0.245782
42759	9.447770	-0.188482	-2.406904	-0.001895	0.000719	-0.002942	0.212952	0.124403	0.969111	0.570753	-0.820877	-0.020042	0.793028	0.557390	-0.245811
42760	9.430074	-0.204191	-2.412239	0.002181	0.006671	0.002439	0.212941	0.124363	0.969118	0.570762	-0.820870	-0.020072	0.793024	0.557410	-0.245779
42761	9.447990	-0.188546	-2.406037	-0.001094	0.004273	-0.000944	0.212931	0.124364	0.969120	0.570751	-0.820878	-0.020062	0.793034	0.557399	-0.245771
42762	9.422784	-0.207930	-2.377893	0.002619	0.002539	0.001134	0.212946	0.124358	0.969118	0.570767	-0.820867	-0.020081	0.793019	0.557416	-0.245779
42763	9.418223	-0.166139	-2.374055	-0.001675	0.004711	0.000611	0.212941	0.124345	0.969120	0.570748	-0.820879	-0.020083	0.793034	0.557400	-0.245769
42764	9.455729	-0.203510	-2.387100	-0.001094	0.004274	-0.000944	0.212930	0.124347	0.969123	0.570739	-0.820886	-0.020073	0.793044	0.557390	-0.245761
42765	9.397809	-0.208838	-2.400344	0.002619	0.002539	0.001135	0.212948	0.124342	0.969119	0.570754	-0.820875	-0.020092	0.793028	0.557408	-0.245772
42766	9.466210	-0.172877	-2.398634	-0.000513	0.003836	-0.002500	0.212931	0.124359	0.969121	0.570753	-0.820877	-0.020067	0.793033	0.557401	-0.245768
42767	9.390483	-0.212313	-2.366139	-0.001675	0.004711	0.000612	0.212926	0.124346	0.969124	0.570734	-0.820890	-0.020070	0.793048	0.557385	-0.245757
42768	9.456117	-0.203353	-2.385575	-0.000404	0.005832	-0.000723	0.212904	0.124337	0.969130	0.570729	-0.820893	-0.020063	0.793057	0.557382	-0.245734
42769	9.423521	-0.189295	-2.426541	0.001381	0.003117	0.000442	0.212911	0.124332	0.969129	0.570737	-0.820887	-0.020073	0.793050	0.557392	-0.245736
42770	9.448846	-0.188486	-2.402677	0.000143	0.003696	-0.000251	0.212908	0.124331	0.969129	0.570736	-0.820888	-0.020072	0.793051	0.557391	-0.245734
42771	9.423712	-0.189321	-2.425796	0.000834	0.005254	-0.000030	0.212894	0.124321	0.969134	0.570741	-0.820885	-0.020074	0.793051	0.557398	-0.245717
42772	9.416313	-0.192948	-2.391842	0.002653	0.004239	-0.000893	0.212884	0.124322	0.969136	0.570761	-0.820871	-0.020073	0.793040	0.557419	-0.245708
42773	9.456705	-0.184872	-2.434834	-0.003494	0.005727	0.001474	0.212874	0.124297	0.969141	0.570727	-0.820895	-0.020078	0.793067	0.557389	-0.245687
42774	9.406182	-0.223680	-2.378903	0.001928	0.000980	0.000914	0.212900	0.124302	0.969135	0.570737	-0.820887	-0.020092	0.793053	0.557399	-0.245711
42775	9.449289	-0.188498	-2.400936	-0.001894	0.000719	-0.002942	0.212907	0.124340	0.969129	0.570726	-0.820896	-0.020061	0.793059	0.557378	-0.245738
42776	9.439101	-0.200446	-2.439852	0.000834	0.005255	-0.000030	0.212894	0.124328	0.969133	0.570730	-0.820893	-0.020064	0.793060	0.557384	-0.245721
42777	9.431659	-0.204036	-2.406047	0.001272	0.001121	-0.001335	0.212904	0.124351	0.969128	0.570739	-0.820887	-0.020054	0.793051	0.557388	-0.245742
42778	9.434542	-0.177004	-2.384399	0.000834	0.005255	-0.000030	0.212891	0.124339	0.969132	0.570742	-0.820884	-0.020057	0.793051	0.557395	-0.245725
42779	9.434653	-0.177068	-2.383956	-0.000438	0.004133	0.001305	0.212893	0.124324	0.969134	0.570734	-0.820890	-0.020069	0.793057	0.557390	-0.245718
42780	9.399172	-0.208507	-2.395030	-0.001784	0.002715	-0.001165	0.212894	0.124336	0.969132	0.570719	-0.820900	-0.020054	0.793067	0.557372	-0.245725
42781	9.439484	-0.218751	-2.386746	0.000178	0.005396	-0.002278	0.212865	0.124344	0.969137	0.570723	-0.820898	-0.020031	0.793072	0.557373	-0.245706
42782	9.409597	-0.196053	-2.355189	0.003091	0.000106	-0.002197	0.212880	0.124379	0.969130	0.570749	-0.820880	-0.020019	0.793050	0.557391	-0.245738
42783	9.442505	-0.173141	-2.416195	-0.000329	0.006130	0.003082	0.212878	0.124336	0.969135	0.570737	-0.820888	-0.020050	0.793058	0.557390	-0.245713
42784	9.417319	-0.192630	-2.387903	0.002653	0.004239	-0.000892	0.212868	0.124338	0.969137	0.570758	-0.820874	-0.020049	0.793047	0.557410	-0.245704
42785	9.435187	-0.176927	-2.381853	0.001381	0.003118	0.000443	0.212873	0.124335	0.969137	0.570764	-0.820869	-0.020057	0.793040	0.557418	-0.245707
42786	9.424934	-0.207509	-2.369395	0.000725	0.003259	-0.001806	0.212865	0.124349	0.969137	0.570771	-0.820865	-0.020042	0.793038	0.557421	-0.245709
42787	9.402595	-0.181221	-2.371253	-0.001094	0.004274	-0.000944	0.213003	0.124478	0.969090	0.570801	-0.820844	-0.020024	0.792979	0.557422	-0.245894
42788	9.442983	-0.172993	-2.414339	0.000725	0.003259	-0.001806	0.212995	0.124492	0.969090	0.570808	-0.820840	-0.020010	0.792977	0.557426	-0.245896
42789	9.443083	-0.173039	-2.413941	0.001489	0.005114	0.002220	0.212995	0.124461	0.969094	0.570813	-0.820835	-0.020037	0.792973	0.557439	-0.245878
42790	9.425376	-0.188959	-2.419353	0.001928	0.000981	0.000915	0.213021	0.124466	0.969087	0.570824	-0.820828	-0.020052	0.792958	0.557450	-0.245901
42791	9.435684	-0.176929	-2.379883	-0.001676	0.004712	0.000612	0.213015	0.124453	0.969090	0.570805	-0.820841	-0.020054	0.792973	0.557433	-0.245890
42792	9.432990	-0.203923	-2.400832	0.000144	0.003696	-0.000250	0.213013	0.124452	0.969091	0.570804	-0.820842	-0.020053	0.792974	0.557432	-0.245888
42793	9.458272	-0.203205	-2.377028	0.001346	0.001418	0.002471	0.213045	0.124440	0.969085	0.570807	-0.820839	-0.020083	0.792964	0.557439	-0.245907
42794	9.403149	-0.181657	-2.369022	-0.001676	0.004712	0.000612	0.213040	0.124427	0.969088	0.570789	-0.820851	-0.020086	0.792978	0.557424	-0.245895
42795	9.407910	-0.223607	-2.372066	0.002071	0.004677	0.000665	0.213035	0.124413	0.969091	0.570799	-0.820843	-0.020098	0.792972	0.557438	-0.245883
42796	9.443674	-0.173678	-2.411585	0.002653	0.004240	-0.000891	0.213024	0.124414	0.969093	0.570820	-0.820830	-0.020097	0.792960	0.557458	-0.245875
42797	9.425882	-0.207902	-2.365587	-0.002366	0.003153	0.000390	0.213030	0.124413	0.969092	0.570797	-0.820845	-0.020095	0.792975	0.557436	-0.245879
42798	9.441045	-0.200614	-2.432305	0.001963	0.002681	-0.001112	0.213031	0.124425	0.969090	0.570812	-0.820835	-0.020090	0.792963	0.557448	-0.245887
42799	9.426040	-0.207843	-2.364963	-0.001676	0.004712	0.000612	0.213025	0.124412	0.969093	0.570796	-0.820846	-0.020091	0.792977	0.557434	-0.245875
42800	9.418687	-0.192933	-2.382475	0.001963	0.002681	-0.001112	0.213026	0.124424	0.969092	0.570811	-0.820836	-0.020086	0.792966	0.557447	-0.245882
42801	9.459085	-0.184871	-2.425574	-0.000438	0.004134	0.001305	0.213029	0.124408	0.969093	0.570801	-0.820843	-0.020098	0.792973	0.557440	-0.245875
42802	9.418861	-0.193007	-2.381784	0.000144	0.003697	-0.000250	0.213026	0.124407	0.969094	0.570799	-0.820844	-0.020098	0.792974	0.557439	-0.245873
42803	9.433925	-0.204299	-2.397123	-0.001129	0.002575	0.001084	0.213040	0.124401	0.969092	0.570783	-0.820855	-0.020105	0.792982	0.557424	-0.245881
42804	9.416216	-0.220057	-2.402568	-0.002366	0.003153	0.000390	0.213045	0.124398	0.969091	0.570760	-0.820871	-0.020104	0.792997	0.557402	-0.245884
42805	9.426607	-0.189607	-2.414501	0.005092	0.001383	0.002525	0.213077	0.124386	0.969085	0.570793	-0.820847	-0.020143	0.792965	0.557439	-0.245902
42806	9.466874	-0.200089	-2.406310	-0.000511	0.003838	-0.002499	0.213061	0.124403	0.969087	0.570791	-0.820849	-0.020119	0.792971	0.557433	-0.245899
42807	9.401442	-0.208902	-2.386068	-0.001676	0.004713	0.000612	0.213055	0.124390	0.969090	0.570772	-0.820862	-0.020121	0.792986	0.557417	-0.245887
42808	9.459663	-0.185101	-2.423299	0.000834	0.005256	-0.000028	0.213041	0.124378	0.969094	0.570776	-0.820859	-0.020124	0.792987	0.557423	-0.245869
42809	9.416654	-0.220231	-2.400835	0.001381	0.003119	0.000444	0.213046	0.124374	0.969094	0.570784	-0.820853	-0.020132	0.792980	0.557432	-0.245870
42810	9.422283	-0.166135	-2.357891	-0.001201	0.002278	-0.002721	0.213041	0.124402	0.969091	0.570777	-0.820859	-0.020104	0.792986	0.557418	-0.245882
42811	9.444920	-0.173576	-2.406708	-0.001093	0.004275	-0.000944	0.213028	0.124403	0.969094	0.570769	-0.820865	-0.020093	0.792996	0.557409	-0.245873
42812	9.427246	-0.189353	-2.412026	0.003308	0.004100	0.001360	0.213032	0.124387	0.969095	0.570789	-0.820850	-0.020115	0.792980	0.557434	-0.245866
42813	9.419731	-0.193033	-2.378339	-0.003747	0.000035	-0.000054	0.213061	0.124405	0.969086	0.570757	-0.820873	-0.020107	0.792995	0.557397	-0.245901
42814	9.442377	-0.200672	-2.427121	-0.002805	0.007288	0.001695	0.213041	0.124368	0.969096	0.570729	-0.820892	-0.020117	0.793021	0.557376	-0.245864
42815	9.419934	-0.193050	-2.377531	0.001963	0.002681	-0.001111	0.213040	0.124380	0.969094	0.570744	-0.820882	-0.020112	0.793010	0.557389	-0.245869
42816	9.434990	-0.204257	-2.392931	-0.000547	0.002138	-0.000472	0.213048	0.124389	0.969091	0.570738	-0.820886	-0.020107	0.793012	0.557381	-0.245882
42817	9.430411	-0.162400	-2.389154	-0.000439	0.004135	0.001306	0.213058	0.124376	0.969091	0.570732	-0.820890	-0.020122	0.793014	0.557378	-0.245882
42818	9.445480	-0.173578	-2.404507	-0.003711	0.001735	-0.002082	0.213061	0.124401	0.969087	0.570704	-0.820910	-0.020094	0.793033	0.557343	-0.245900
42819	9.387617	-0.178768	-2.417757	0.004035	0.007360	-0.000444	0.213028	0.124381	0.969097	0.570734	-0.820889	-0.020101	0.793020	0.557379	-0.245861
42820	9.508309	-0.210070	-2.393526	0.000000	0.000000	0.000000	0.213028	0.124381	0.969097	0.570734	-0.820889	-0.020101	0.793020	0.557379	-0.245861
42821	9.362443	-0.198179	-2.389318	0.001525	0.006816	0.000195	0.213004	0.124359	0.969105	0.570743	-0.820882	-0.020107	0.793021	0.557393	-0.245828
42822	9.478591	-0.169109	-2.413083	0.000547	-0.002138	0.000472	0.213052	0.124385	0.969091	0.570744	-0.820882	-0.020114	0.793007	0.557388	-0.245883
42823	9.402883	-0.190183	-2.432342	0.000834	0.005257	-0.000027	0.213039	0.124374	0.969095	0.570747	-0.820879	-0.020117	0.793008	0.557394	-0.245865
42824	9.428022	-0.207836	-2.357049	-0.000546	0.002138	-0.000472	0.213048	0.124383	0.969092	0.570741	-0.820884	-0.020112	0.793010	0.557386	-0.245878
42825	9.435683	-0.204125	-2.390210	0.001417	0.004819	-0.001582	0.213029	0.124387	0.969096	0.570753	-0.820876	-0.020102	0.793007	0.557397	-0.245864
42826	9.450775	-0.215370	-2.405483	-0.001129	0.002576	0.001084	0.213043	0.124382	0.969093	0.570739	-0.820885	-0.020111	0.793013	0.557384	-0.245873
42827	9.435835	-0.204114	-2.389612	0.001964	0.002681	-0.001111	0.213044	0.124393	0.969092	0.570754	-0.820875	-0.020106	0.793002	0.557396	-0.245880
42828	9.453691	-0.188344	-2.383556	0.002654	0.004241	-0.000888	0.213034	0.124395	0.969094	0.570774	-0.820861	-0.020105	0.792990	0.557416	-0.245872
42829	9.403255	-0.208425	-2.378956	-0.002330	0.004854	-0.001638	0.213014	0.124399	0.969097	0.570756	-0.820874	-0.020084	0.793008	0.557397	-0.245859
42830	9.446420	-0.173396	-2.400826	-0.000619	-0.001263	0.003582	0.213073	0.124394	0.969085	0.570741	-0.820884	-0.020119	0.793004	0.557383	-0.245905
42831	9.424037	-0.147412	-2.402886	0.000834	0.005257	-0.000027	0.213060	0.124383	0.969089	0.570745	-0.820881	-0.020121	0.793004	0.557390	-0.245888
42832	9.424142	-0.147524	-2.402469	0.000798	0.003557	0.002000	0.213072	0.124364	0.969089	0.570744	-0.820881	-0.020144	0.793002	0.557394	-0.245887
42833	9.431644	-0.162621	-2.384264	0.000798	0.003557	0.002000	0.213084	0.124346	0.969089	0.570743	-0.820881	-0.020166	0.792999	0.557398	-0.245886
42834	9.406551	-0.163802	-2.407456	0.002142	0.004976	0.004472	0.213098	0.124299	0.969092	0.570748	-0.820877	-0.020216	0.792992	0.557415	-0.245871
42835	9.438369	-0.274261	-2.411766	0.013276	0.002874	0.002862	0.213120	0.124277	0.969090	0.570844	-0.820808	-0.020278	0.792917	0.557521	-0.245874
42836	9.412019	-0.409114	-2.378383	0.037756	0.003945	0.007922	0.213163	0.124208	0.969089	0.571123	-0.820609	-0.020448	0.792704	0.557828	-0.245861
42837	9.443993	-0.502606	-2.433688	0.075265	0.005307	0.006469	0.213186	0.124143	0.969093	0.571703	-0.820199	-0.020697	0.792280	0.558446	-0.245828
42838	9.426142	-0.539533	-2.387023	0.123259	0.004730	0.001185	0.213184	0.124124	0.969095	0.572674	-0.819514	-0.021013	0.791579	0.559455	-0.245790
42839	9.424380	-0.474099	-2.361165	0.165764	0.005545	0.000552	0.213172	0.124106	0.969100	0.573981	-0.818588	-0.021427	0.790635	0.560813	-0.245734
42840	9.439502	-0.489454	-2.375458	0.183755	0.003603	-0.003092	0.213154	0.124129	0.969101	0.575437	-0.817554	-0.021849	0.789581	0.562314	-0.245693
42841	9.408524	-0.585547	-2.337040	0.220016	0.003991	-0.003063	0.213133	0.124150	0.969103	0.577176	-0.816313	-0.022361	0.788316	0.564109	-0.245640
42842	9.425351	-0.689183	-2.323442	0.258039	0.003115	-0.007626	0.213093	0.124212	0.969104	0.579222	-0.814848	-0.022922	0.786825	0.566211	-0.245585
42843	9.393735	-0.584863	-2.317947	0.285553	0.002568	-0.006266	0.213065	0.124267	0.969103	0.581477	-0.813222	-0.023564	0.785168	0.568532	-0.245527
42844	9.413455	-0.644336	-2.334487	0.302197	-0.002326	-0.010141	0.213052	0.124380	0.969092	0.583866	-0.811489	-0.024209	0.783396	0.570977	-0.245511
42845	9.428559	-0.662169	-2.347785	0.327438	0.003757	-0.012401	0.212978	0.124477	0.969095	0.586451	-0.809602	-0.024894	0.781483	0.573629	-0.245428
42846	9.409782	-0.518490	-2.283568	0.344028	-0.004411	-0.012080	0.212970	0.124619	0.969079	0.589159	-0.807611	-0.025622	0.779446	0.576398	-0.245417
42847	9.422064	-0.564583	-2.317921	0.374175	-0.000801	-0.015208	0.212914	0.124764	0.969072	0.592101	-0.805432	-0.026394	0.777229	0.579408	-0.245361
42848	9.426767	-0.614159	-2.318212	0.412796	-0.005060	-0.016775	0.212882	0.124947	0.969056	0.595337	-0.803014	-0.027245	0.774761	0.582715	-0.245333
42849	9.383994	-0.622993	-2.396784	0.419152	-0.004048	-0.016874	0.212841	0.125124	0.969042	0.598612	-0.800546	-0.028111	0.772245	0.586063	-0.245290
42850	9.413105	-0.769487	-2.415326	0.459126	-0.005344	-0.021643	0.212780	0.125348	0.969027	0.602194	-0.797822	-0.029029	0.769472	0.589719	-0.245244
42851	9.360675	-0.728604	-2.385297	0.472296	-0.004466	-0.027487	0.212676	0.125612	0.969015	0.605877	-0.794995	-0.029922	0.766604	0.593468	-0.245181
42852	9.402805	-0.833307	-2.343247	0.490333	-0.007772	-0.032128	0.212568	0.125932	0.968998	0.609694	-0.792037	-0.030814	0.763602	0.597342	-0.245141
42853	9.415319	-0.517302	-2.230112	0.501121	-0.005327	-0.035522	0.212419	0.126263	0.968987	0.613586	-0.788992	-0.031699	0.760520	0.601290	-0.245070
42854	9.413396	-0.820461	-2.349762	0.543019	-0.007232	-0.040693	0.212250	0.126647	0.968974	0.617790	-0.785666	-0.032637	0.757156	0.605549	-0.244999
42855	9.385381	-0.890076	-2.284654	0.527734	-0.014785	-0.047292	0.212097	0.127126	0.968945	0.621874	-0.782402	-0.033473	0.753849	0.609661	-0.245001
42856	9.420370	-0.964372	-2.311358	0.536805	-0.010782	-0.045979	0.211918	0.127571	0.968925	0.626007	-0.779061	-0.034344	0.750471	0.613832	-0.244957
42857	9.431849	-0.744579	-2.243722	0.526145	-0.014316	-0.046787	0.211759	0.128042	0.968898	0.630042	-0.775764	-0.035181	0.747131	0.617897	-0.244947
42858	9.486089	-0.490599	-2.203351	0.561880	-0.014929	-0.053267	0.211560	0.128567	0.968872	0.634340	-0.772213	-0.036042	0.743542	0.622219	-0.244925
42859	9.408115	-0.450029	-2.200880	0.619763	-0.023720	-0.069337	0.211322	0.129269	0.968831	0.639079	-0.768256	-0.036890	0.739541	0.626955	-0.244962
42860	9.389465	-0.659275	-2.331949	0.637471	-0.025469	-0.068002	0.211100	0.129970	0.968785	0.643922	-0.764157	-0.037794	0.735392	0.631800	-0.245004
42861	9.390965	-0.951713	-2.368510	0.636328	-0.026386	-0.073205	0.210847	0.130716	0.968740	0.648739	-0.760029	-0.038645	0.731219	0.636608	-0.245050
42862	9.307911	-0.983465	-2.348222	0.633428	-0.025844	-0.073867	0.210581	0.131461	0.968697	0.653511	-0.755887	-0.039483	0.727035	0.641368	-0.245087
42863	9.444236	-0.805276	-2.367415	0.638358	-0.031886	-0.080741	0.210309	0.132295	0.968642	0.658305	-0.751674	-0.040267	0.722776	0.646131	-0.245175
42864	9.358580	-0.878121	-2.312956	0.677422	-0.031685	-0.088674	0.209978	0.133186	0.968592	0.663369	-0.747164	-0.041071	0.718227	0.651158	-0.245240
42865	9.343283	-1.162666	-2.451409	0.653049	-0.035877	-0.088997	0.209669	0.134104	0.968532	0.668229	-0.742780	-0.041812	0.713799	0.655968	-0.245350
42866	9.388755	-0.727664	-2.215991	0.664507	-0.038503	-0.090723	0.209360	0.135051	0.968468	0.673145	-0.738285	-0.042566	0.709257	0.660830	-0.245476
42867	9.355426	-0.523306	-2.192469	0.697737	-0.045045	-0.100632	0.209025	0.136111	0.968392	0.678284	-0.733523	-0.043306	0.704443	0.665896	-0.245646
42868	9.440856	-0.769451	-2.342957	0.728627	-0.048343	-0.110267	0.208639	0.137262	0.968312	0.683626	-0.728503	-0.044030	0.699375	0.671150	-0.245830
42869	9.282958	-1.038028	-2.348634	0.718773	-0.051989	-0.112009	0.208258	0.138447	0.968226	0.688865	-0.723509	-0.044715	0.694330	0.676289	-0.246048
42870	9.423750	-1.012930	-2.351760	0.709791	-0.049850	-0.110433	0.207865	0.139604	0.968144	0.694003	-0.718540	-0.045394	0.689313	0.681330	-0.246244
42871	9.321828	-0.927156	-2.465424	0.711049	-0.056415	-0.120766	0.207436	0.140876	0.968052	0.699134	-0.713511	-0.045978	0.684239	0.686335	-0.246499
42872	9.296231	-1.201958	-2.400118	0.698276	-0.054524	-0.119456	0.206995	0.142123	0.967964	0.704139	-0.708535	-0.046545	0.679221	0.691216	-0.246737
42873	9.407808	-0.659174	-2.338550	0.702431	-0.053516	-0.121832	0.206521	0.143376	0.967880	0.709141	-0.703492	-0.047102	0.674143	0.696091	-0.246960
42874	9.488385	-0.350040	-2.167782	0.781706	-0.064606	-0.138532	0.205993	0.144821	0.967778	0.714672	-0.697832	-0.047694	0.668439	0.701468	-0.247248
42875	9.334552	-0.767630	-2.365649	0.790788	-0.069882	-0.144312	0.205448	0.146338	0.967665	0.720228	-0.692057	-0.048256	0.662618	0.706854	-0.247579
42876	9.351971	-0.763549	-2.309863	0.788686	-0.071489	-0.147555	0.204877	0.147885	0.967551	0.725732	-0.686246	-0.048783	0.656764	0.712177	-0.247921
42877	9.400901	-0.740491	-2.373338	0.774172	-0.068447	-0.145436	0.204290	0.149391	0.967444	0.731088	-0.680500	-0.049298	0.650981	0.717358	-0.248237
42878	9.313535	-0.688603	-2.399126	0.798957	-0.077583	-0.154770	0.203680	0.151022	0.967319	0.736578	-0.674517	-0.049787	0.644955	0.722647	-0.248625
42879	9.311958	-0.737568	-2.307197	0.824670	-0.080585	-0.160787	0.203033	0.152709	0.967191	0.742195	-0.668295	-0.050286	0.638689	0.728054	-0.249026
42880	9.320504	-0.664822	-2.476048	0.828352	-0.082756	-0.164290	0.202358	0.154430	0.967059	0.747790	-0.661992	-0.050762	0.632346	0.733429	-0.249441
42881	9.262812	-1.146402	-2.340073	0.857919	-0.088836	-0.169165	0.201671	0.156222	0.966914	0.753526	-0.655416	-0.051270	0.625722	0.738934	-0.249896
42882	9.212574	-1.217351	-2.607614	0.804080	-0.089787	-0.168026	0.200983	0.158008	0.966768	0.758868	-0.649193	-0.051658	0.619456	0.744031	-0.250384
42883	9.354730	-0.972589	-2.290627	0.825097	-0.087320	-0.168192	0.200263	0.159770	0.966627	0.764286	-0.642769	-0.052102	0.612993	0.749214	-0.250833
42884	9.337488	-1.048568	-2.515480	0.794003	-0.088967	-0.167279	0.199545	0.161534	0.966483	0.769461	-0.636534	-0.052480	0.606722	0.754143	-0.251311
42885	9.237414	-0.783671	-2.472937	0.822259	-0.094647	-0.182468	0.198731	0.163429	0.966332	0.774783	-0.630020	-0.052787	0.600181	0.759188	-0.251826
42886	9.415501	-0.830102	-2.394212	0.812025	-0.100023	-0.183861	0.197921	0.165369	0.966168	0.779993	-0.623535	-0.053059	0.593665	0.764105	-0.252397
