// General information: 
//  MT Manager version: 2019.2.0 
//  XDA version: 2019.2.0 build 3853 rev 94535 built on 2019-09-09
// Device information: 
//  DeviceId: 00B44109
//  ProductCode: MTW2-3A7G6
//  Firmware Version: 4.3.5
//  Hardware Version: 1.1.0
// Device settings: 
//  Filter Profile: human(46.1)
//  Option Flags: Orientation Smoother Disabled, AHS Disabled, ICC Disabled
// Coordinate system: ENU
PacketCounter	Acc_X	Acc_Y	Acc_Z	Gyr_X	Gyr_Y	Gyr_Z	Mat[1][1]	Mat[2][1]	Mat[3][1]	Mat[1][2]	Mat[2][2]	Mat[3][2]	Mat[1][3]	Mat[2][3]	Mat[3][3]
42075	9.543372	-0.089274	-2.398618	0.001765	0.001671	-0.001195	0.242763	0.029850	0.969626	0.156511	-0.987637	-0.008781	0.957377	0.153889	-0.244433
42076	9.534538	-0.094383	-2.431341	-0.001281	0.002973	-0.002056	0.242752	0.029849	0.969629	0.156501	-0.987639	-0.008777	0.957381	0.153878	-0.244423
42077	9.519394	-0.069053	-2.413017	0.002257	0.000064	-0.002577	0.242769	0.029857	0.969625	0.156524	-0.987635	-0.008778	0.957373	0.153901	-0.244441
42078	9.510484	-0.091761	-2.388478	-0.004920	0.007453	-0.001632	0.242718	0.029846	0.969638	0.156478	-0.987643	-0.008769	0.957394	0.153855	-0.244388
42079	9.531670	-0.069707	-2.433489	0.000392	-0.000035	-0.001479	0.242737	0.029844	0.969633	0.156481	-0.987642	-0.008775	0.957388	0.153859	-0.244408
42080	9.534800	-0.093559	-2.430348	-0.001281	0.002973	-0.002056	0.242730	0.029843	0.969635	0.156471	-0.987644	-0.008772	0.957392	0.153849	-0.244400
42081	9.531784	-0.069307	-2.433054	0.002057	0.003208	-0.002771	0.242716	0.029849	0.969638	0.156494	-0.987640	-0.008770	0.957392	0.153871	-0.244388
42082	9.559026	-0.112941	-2.414995	-0.002754	0.002837	-0.002438	0.242706	0.029850	0.969640	0.156470	-0.987644	-0.008761	0.957398	0.153846	-0.244378
42083	9.528721	-0.062477	-2.378358	0.000192	0.003108	-0.001674	0.242696	0.029845	0.969643	0.156472	-0.987644	-0.008765	0.957400	0.153849	-0.244367
42084	9.535085	-0.092639	-2.429262	0.000685	0.001501	-0.003056	0.242700	0.029856	0.969642	0.156483	-0.987642	-0.008757	0.957398	0.153858	-0.244372
42085	9.510950	-0.090351	-2.386677	0.001272	0.003279	0.000187	0.242690	0.029833	0.969645	0.156490	-0.987640	-0.008781	0.957399	0.153871	-0.244359
42086	9.523104	-0.091421	-2.407631	-0.001573	0.001436	-0.000479	0.242699	0.029819	0.969643	0.156474	-0.987643	-0.008793	0.957399	0.153858	-0.244366
42087	9.540986	-0.063015	-2.398880	-0.000587	-0.001778	-0.003243	0.242733	0.029837	0.969634	0.156472	-0.987643	-0.008779	0.957391	0.153852	-0.244402
42088	9.526216	-0.114943	-2.404585	0.000584	0.003073	-0.003153	0.242719	0.029846	0.969637	0.156479	-0.987642	-0.008769	0.957393	0.153857	-0.244390
42089	9.553178	-0.063576	-2.419700	0.000192	0.003108	-0.001674	0.242709	0.029841	0.969640	0.156481	-0.987642	-0.008773	0.957395	0.153860	-0.244379
42090	9.520156	-0.066478	-2.410079	-0.001181	0.001401	-0.001958	0.242714	0.029840	0.969639	0.156471	-0.987644	-0.008772	0.957396	0.153850	-0.244384
42091	9.559482	-0.111163	-2.413276	-0.000889	0.002938	-0.003535	0.242702	0.029854	0.969641	0.156467	-0.987644	-0.008756	0.957400	0.153842	-0.244374
42092	9.535483	-0.091050	-2.427761	0.000192	0.003108	-0.001674	0.242692	0.029849	0.969644	0.156471	-0.987644	-0.008760	0.957401	0.153847	-0.244364
42093	9.499365	-0.069961	-2.421137	0.000292	0.001537	-0.001577	0.242697	0.029846	0.969643	0.156473	-0.987643	-0.008765	0.957400	0.153850	-0.244368
42094	9.544436	-0.085503	-2.394518	0.000393	-0.000035	-0.001479	0.242717	0.029843	0.969638	0.156478	-0.987643	-0.008772	0.957394	0.153856	-0.244388
42095	9.523515	-0.089428	-2.406078	-0.000989	0.004509	-0.003632	0.242690	0.029855	0.969644	0.156473	-0.987643	-0.008754	0.957402	0.153847	-0.244363
42096	9.523589	-0.089201	-2.405796	-0.001573	0.001436	-0.000479	0.242696	0.029841	0.969643	0.156454	-0.987646	-0.008765	0.957403	0.153832	-0.244367
42097	9.526744	-0.113112	-2.402579	0.000192	0.003108	-0.001674	0.242686	0.029836	0.969646	0.156456	-0.987646	-0.008769	0.957405	0.153835	-0.244356
42098	9.499606	-0.068984	-2.420219	-0.000687	-0.000206	-0.003340	0.242704	0.029852	0.969641	0.156453	-0.987647	-0.008754	0.957401	0.153828	-0.244376
42099	9.544692	-0.084380	-2.393536	-0.001281	0.002973	-0.002056	0.242694	0.029851	0.969643	0.156442	-0.987648	-0.008751	0.957406	0.153816	-0.244367
42100	9.523776	-0.088378	-2.405085	0.003630	0.001773	-0.002292	0.242696	0.029854	0.969643	0.156476	-0.987643	-0.008756	0.957400	0.153851	-0.244368
42101	9.550575	-0.054725	-2.363145	-0.004619	0.002737	-0.001341	0.242689	0.029847	0.969645	0.156431	-0.987650	-0.008752	0.957409	0.153806	-0.244361
42102	9.523903	-0.088128	-2.404591	-0.000594	0.003179	0.001284	0.242684	0.029813	0.969647	0.156420	-0.987652	-0.008783	0.957412	0.153804	-0.244350
42103	9.508807	-0.062778	-2.385987	-0.002169	0.005911	-0.005591	0.242640	0.029842	0.969657	0.156409	-0.987654	-0.008743	0.957425	0.153784	-0.244312
42104	9.557167	-0.084500	-2.413274	0.000000	0.000000	0.000000	0.242640	0.029843	0.969657	0.156409	-0.987654	-0.008742	0.957425	0.153784	-0.244312
42105	9.524104	-0.087388	-2.403821	-0.002260	0.001231	-0.003820	0.242645	0.029862	0.969656	0.156392	-0.987657	-0.008719	0.957426	0.153762	-0.244320
42106	9.512034	-0.086063	-2.382510	0.001765	0.001672	-0.001194	0.242648	0.029853	0.969655	0.156409	-0.987654	-0.008733	0.957423	0.153782	-0.244322
42107	9.524180	-0.087000	-2.403537	-0.001180	0.001401	-0.001959	0.242654	0.029854	0.969653	0.156398	-0.987656	-0.008731	0.957423	0.153771	-0.244327
42108	9.545190	-0.082611	-2.391612	0.002158	0.001637	-0.002673	0.242658	0.029862	0.969652	0.156424	-0.987651	-0.008730	0.957417	0.153796	-0.244333
42109	9.527377	-0.110600	-2.400184	-0.004619	0.002737	-0.001341	0.242652	0.029854	0.969654	0.156379	-0.987659	-0.008725	0.957427	0.153751	-0.244326
42110	9.512235	-0.085295	-2.381736	0.000191	0.003109	-0.001674	0.242642	0.029849	0.969657	0.156381	-0.987658	-0.008728	0.957429	0.153754	-0.244315
42111	9.566446	-0.060213	-2.436404	-0.001372	-0.001707	-0.000285	0.242679	0.029838	0.969648	0.156364	-0.987661	-0.008742	0.957422	0.153740	-0.244350
42112	9.524399	-0.086087	-2.402702	0.000484	0.004646	-0.003250	0.242651	0.029846	0.969654	0.156371	-0.987660	-0.008731	0.957428	0.153745	-0.244324
42113	9.503502	-0.089911	-2.414205	-0.002260	0.001231	-0.003820	0.242655	0.029865	0.969653	0.156355	-0.987663	-0.008708	0.957430	0.153723	-0.244331
42114	9.545478	-0.081267	-2.390510	0.000292	0.001537	-0.001576	0.242660	0.029862	0.969652	0.156356	-0.987662	-0.008712	0.957428	0.153725	-0.244335
42115	9.536657	-0.086317	-2.423318	0.000685	0.001502	-0.003056	0.242662	0.029873	0.969651	0.156366	-0.987661	-0.008704	0.957426	0.153733	-0.244339
42116	9.548824	-0.087274	-2.444273	-0.002067	0.003043	0.000902	0.242658	0.029843	0.969653	0.156340	-0.987665	-0.008727	0.957431	0.153713	-0.244330
42117	9.515690	-0.108008	-2.377394	0.000091	0.004681	-0.001771	0.242632	0.029837	0.969659	0.156341	-0.987665	-0.008729	0.957438	0.153715	-0.244304
42118	9.533757	-0.061954	-2.425512	0.000393	-0.000035	-0.001479	0.242652	0.029835	0.969654	0.156344	-0.987664	-0.008735	0.957432	0.153719	-0.244324
42119	9.524773	-0.084608	-2.401268	0.002944	0.001568	-0.005631	0.242651	0.029872	0.969654	0.156382	-0.987658	-0.008707	0.957426	0.153749	-0.244327
42120	9.503847	-0.088524	-2.412897	0.001765	0.001673	-0.001194	0.242655	0.029865	0.969653	0.156397	-0.987656	-0.008719	0.957423	0.153767	-0.244330
42121	9.503889	-0.088454	-2.412736	0.001765	0.001673	-0.001194	0.242659	0.029857	0.969652	0.156413	-0.987653	-0.008731	0.957419	0.153785	-0.244333
42122	9.545881	-0.079999	-2.388942	-0.001674	0.003008	-0.000577	0.242653	0.029842	0.969654	0.156395	-0.987656	-0.008741	0.957424	0.153770	-0.244324
42123	9.512836	-0.082930	-2.379419	0.000786	-0.000070	-0.002958	0.242671	0.029855	0.969649	0.156406	-0.987654	-0.008734	0.957417	0.153778	-0.244344
42124	9.542842	-0.055445	-2.391674	-0.002361	0.002802	-0.003918	0.242660	0.029872	0.969651	0.156389	-0.987657	-0.008710	0.957423	0.153757	-0.244336
42125	9.540267	-0.108476	-2.418421	0.000292	0.001537	-0.001576	0.242664	0.029869	0.969650	0.156392	-0.987657	-0.008715	0.957421	0.153760	-0.244340
42126	9.533944	-0.078022	-2.367087	-0.003540	0.002907	0.000519	0.242659	0.029842	0.969652	0.156353	-0.987663	-0.008731	0.957429	0.153727	-0.244332
42127	9.504166	-0.087328	-2.411684	0.004124	0.000167	-0.003672	0.242674	0.029861	0.969648	0.156397	-0.987656	-0.008725	0.957418	0.153768	-0.244349
42128	9.558233	-0.079824	-2.409206	-0.003046	0.001300	-0.000862	0.242684	0.029852	0.969646	0.156367	-0.987660	-0.008729	0.957420	0.153739	-0.244357
42129	9.504261	-0.087000	-2.411324	0.001563	0.004817	-0.001389	0.242657	0.029841	0.969653	0.156381	-0.987658	-0.008739	0.957425	0.153756	-0.244329
42130	9.552667	-0.108791	-2.438505	-0.002754	0.002837	-0.002439	0.242647	0.029844	0.969655	0.156356	-0.987662	-0.008729	0.957432	0.153729	-0.244320
42131	9.522260	-0.058367	-2.401964	0.000292	0.001537	-0.001576	0.242652	0.029840	0.969654	0.156358	-0.987662	-0.008734	0.957430	0.153733	-0.244324
42132	9.528505	-0.106316	-2.395897	-0.001472	-0.000136	-0.000383	0.242674	0.029828	0.969649	0.156339	-0.987665	-0.008745	0.957428	0.153716	-0.244344
42133	9.534451	-0.059081	-2.422852	0.000877	0.004611	-0.004729	0.242644	0.029851	0.969656	0.156354	-0.987663	-0.008721	0.957433	0.153726	-0.244318
42134	9.546453	-0.077614	-2.386731	0.005305	-0.001234	-0.001713	0.242676	0.029853	0.969648	0.156405	-0.987654	-0.008737	0.957416	0.153778	-0.244349
42135	9.525531	-0.081733	-2.398361	-0.001776	0.004580	-0.000675	0.242653	0.029836	0.969654	0.156386	-0.987657	-0.008746	0.957425	0.153762	-0.244324
42136	9.528720	-0.105701	-2.395067	-0.000101	0.001572	-0.000097	0.242660	0.029817	0.969653	0.156382	-0.987658	-0.008765	0.957424	0.153763	-0.244328
42137	9.525662	-0.081590	-2.397845	0.000191	0.003109	-0.001674	0.242650	0.029812	0.969656	0.156384	-0.987657	-0.008769	0.957426	0.153766	-0.244317
42138	9.537840	-0.082514	-2.418789	0.000292	0.001537	-0.001576	0.242655	0.029808	0.969655	0.156387	-0.987657	-0.008774	0.957424	0.153770	-0.244322
42139	9.561973	-0.102129	-2.403787	-0.002754	0.002837	-0.002439	0.242646	0.029811	0.969657	0.156362	-0.987661	-0.008763	0.957431	0.153744	-0.244313
42140	9.483901	-0.089377	-2.420809	-0.003046	0.001300	-0.000863	0.242653	0.029800	0.969655	0.156329	-0.987666	-0.008767	0.957435	0.153712	-0.244318
42141	9.546858	-0.076641	-2.385144	0.000090	0.004681	-0.001771	0.242627	0.029793	0.969662	0.156330	-0.987666	-0.008770	0.957441	0.153715	-0.244292
42142	9.559038	-0.077694	-2.406083	-0.000393	0.000035	0.001479	0.242651	0.029762	0.969657	0.156319	-0.987667	-0.008803	0.957437	0.153711	-0.244311
42143	9.513868	-0.079733	-2.375400	0.000191	0.003109	-0.001674	0.242641	0.029757	0.969660	0.156320	-0.987667	-0.008807	0.957439	0.153714	-0.244300
42144	9.520330	-0.109981	-2.426294	0.001765	0.001673	-0.001194	0.242645	0.029749	0.969659	0.156339	-0.987664	-0.008820	0.957435	0.153735	-0.244303
42145	9.513963	-0.079411	-2.375027	-0.000787	0.001366	-0.003438	0.242649	0.029764	0.969658	0.156335	-0.987665	-0.008805	0.957435	0.153728	-0.244309
42146	9.529241	-0.104163	-2.393060	-0.000787	0.001366	-0.003438	0.242652	0.029779	0.969656	0.156333	-0.987665	-0.008790	0.957434	0.153722	-0.244315
42147	9.514037	-0.078857	-2.374752	0.001765	0.001673	-0.001194	0.242656	0.029771	0.969655	0.156348	-0.987663	-0.008802	0.957430	0.153740	-0.244317
42148	9.529341	-0.103811	-2.392680	0.002057	0.003211	-0.002770	0.242644	0.029777	0.969658	0.156371	-0.987659	-0.008799	0.957430	0.153762	-0.244306
42149	9.502220	-0.059796	-2.410184	-0.001675	0.003008	-0.000578	0.242636	0.029762	0.969661	0.156352	-0.987662	-0.008809	0.957435	0.153746	-0.244296
42150	9.538481	-0.080549	-2.416326	0.002158	0.001639	-0.002673	0.242637	0.029769	0.969660	0.156373	-0.987659	-0.008808	0.957431	0.153766	-0.244298
42151	9.505472	-0.083520	-2.406666	-0.001776	0.004580	-0.000675	0.242614	0.029752	0.969666	0.156354	-0.987662	-0.008816	0.957440	0.153750	-0.244273
42152	9.538633	-0.080269	-2.415738	0.000292	0.001537	-0.001576	0.242619	0.029748	0.969665	0.156356	-0.987661	-0.008821	0.957439	0.153753	-0.244277
42153	9.502465	-0.059160	-2.409233	0.000686	0.001503	-0.003055	0.242622	0.029760	0.969664	0.156366	-0.987660	-0.008813	0.957436	0.153761	-0.244281
42154	9.526579	-0.078812	-2.394292	-0.001574	0.001436	-0.000480	0.242631	0.029745	0.969663	0.156349	-0.987663	-0.008824	0.957437	0.153746	-0.244288
42155	9.529718	-0.102665	-2.391225	0.000787	-0.000069	-0.002958	0.242648	0.029758	0.969658	0.156359	-0.987661	-0.008817	0.957431	0.153754	-0.244307
42156	9.535461	-0.073063	-2.361129	-0.000888	0.002938	-0.003536	0.242637	0.029771	0.969660	0.156357	-0.987661	-0.008802	0.957434	0.153749	-0.244298
42157	9.530032	-0.084398	-2.447850	0.000090	0.004681	-0.001771	0.242611	0.029764	0.969667	0.156358	-0.987661	-0.008805	0.957440	0.153752	-0.244271
42158	9.505828	-0.082115	-2.405308	0.000394	-0.000035	-0.001479	0.242632	0.029763	0.969662	0.156360	-0.987661	-0.008809	0.957435	0.153754	-0.244292
42159	9.550863	-0.097613	-2.378705	0.000394	-0.000035	-0.001479	0.242652	0.029761	0.969657	0.156363	-0.987660	-0.008816	0.957429	0.153758	-0.244311
42160	9.523681	-0.053526	-2.396436	0.002552	0.001604	-0.004151	0.242651	0.029783	0.969656	0.156391	-0.987656	-0.008800	0.957425	0.153781	-0.244313
42161	9.527047	-0.059616	-2.450332	0.000191	0.003109	-0.001674	0.242640	0.029778	0.969659	0.156392	-0.987656	-0.008804	0.957427	0.153784	-0.244302
42162	9.523593	-0.070830	-2.338939	0.000394	-0.000035	-0.001479	0.242661	0.029776	0.969654	0.156395	-0.987655	-0.008809	0.957422	0.153786	-0.244322
42163	9.505987	-0.081258	-2.404710	0.001663	0.003246	-0.001291	0.242649	0.029767	0.969657	0.156410	-0.987653	-0.008821	0.957422	0.153804	-0.244309
42164	9.527039	-0.077034	-2.392520	0.001168	0.004852	0.000091	0.242624	0.029742	0.969664	0.156415	-0.987652	-0.008844	0.957428	0.153816	-0.244280
42165	9.509288	-0.105208	-2.401015	0.000292	0.001537	-0.001576	0.242629	0.029738	0.969663	0.156418	-0.987651	-0.008849	0.957426	0.153819	-0.244284
42166	9.524044	-0.052733	-2.395012	-0.002754	0.002837	-0.002440	0.242620	0.029741	0.969665	0.156393	-0.987655	-0.008838	0.957432	0.153793	-0.244276
42167	9.542500	-0.101685	-2.409891	-0.003541	0.002906	0.000518	0.242615	0.029715	0.969667	0.156353	-0.987662	-0.008854	0.957440	0.153759	-0.244267
42168	9.506359	-0.080568	-2.403261	0.000979	0.003040	-0.004632	0.242600	0.029739	0.969670	0.156369	-0.987659	-0.008831	0.957441	0.153769	-0.244256
42169	9.563582	-0.096938	-2.397590	-0.001180	0.001401	-0.001960	0.242605	0.029740	0.969669	0.156358	-0.987661	-0.008829	0.957442	0.153758	-0.244262
42170	9.506488	-0.080026	-2.402768	-0.001383	0.004545	-0.002154	0.242581	0.029738	0.969675	0.156346	-0.987663	-0.008823	0.957450	0.153745	-0.244238
42171	9.560600	-0.072421	-2.400034	-0.002652	0.001265	-0.002343	0.242587	0.029742	0.969674	0.156322	-0.987667	-0.008814	0.957452	0.153720	-0.244245
42172	9.509745	-0.103641	-2.399270	0.003135	0.003382	-0.000907	0.242576	0.029729	0.969677	0.156351	-0.987662	-0.008832	0.957450	0.153752	-0.244231
42173	9.527625	-0.075262	-2.390242	-0.002652	0.001265	-0.002343	0.242582	0.029734	0.969675	0.156327	-0.987666	-0.008823	0.957453	0.153726	-0.244238
42174	9.548792	-0.053095	-2.435488	0.004126	0.000169	-0.003670	0.242596	0.029753	0.969671	0.156372	-0.987659	-0.008817	0.957442	0.153768	-0.244255
42175	9.506732	-0.079055	-2.401836	-0.003542	0.002906	0.000517	0.242591	0.029726	0.969673	0.156332	-0.987665	-0.008833	0.957450	0.153734	-0.244246
42176	9.530865	-0.098721	-2.386815	0.000686	0.001503	-0.003055	0.242594	0.029737	0.969672	0.156343	-0.987663	-0.008825	0.957447	0.153743	-0.244250
42177	9.536783	-0.051392	-2.413834	0.001080	0.001469	-0.004534	0.242594	0.029763	0.969671	0.156360	-0.987661	-0.008804	0.957444	0.153754	-0.244255
42178	9.530945	-0.098142	-2.386521	0.001765	0.001674	-0.001193	0.242599	0.029756	0.969670	0.156377	-0.987658	-0.008815	0.957440	0.153772	-0.244258
42179	9.519043	-0.079242	-2.422344	-0.001180	0.001401	-0.001960	0.242605	0.029756	0.969669	0.156366	-0.987660	-0.008813	0.957441	0.153761	-0.244264
42180	9.531037	-0.097777	-2.386167	-0.001281	0.002973	-0.002057	0.242595	0.029756	0.969671	0.156355	-0.987662	-0.008809	0.957445	0.153750	-0.244255
42181	9.531113	-0.097688	-2.385869	0.001269	0.003281	0.000188	0.242586	0.029732	0.969674	0.156362	-0.987660	-0.008834	0.957446	0.153764	-0.244242
42182	9.524940	-0.049405	-2.391519	-0.003933	0.004238	-0.004400	0.242559	0.029752	0.969680	0.156329	-0.987666	-0.008801	0.957458	0.153724	-0.244218
42183	9.543383	-0.098302	-2.406533	0.001574	-0.001436	0.000481	0.242595	0.029732	0.969672	0.156339	-0.987664	-0.008829	0.957447	0.153739	-0.244251
42184	9.528128	-0.073114	-2.388304	0.000585	0.003075	-0.003153	0.242583	0.029742	0.969675	0.156350	-0.987662	-0.008820	0.957449	0.153749	-0.244241
42185	9.507238	-0.077108	-2.399898	0.000292	0.001538	-0.001576	0.242588	0.029738	0.969673	0.156353	-0.987662	-0.008825	0.957447	0.153752	-0.244245
42186	9.528240	-0.072714	-2.387869	-0.001281	0.002973	-0.002057	0.242578	0.029737	0.969676	0.156340	-0.987664	-0.008822	0.957452	0.153739	-0.244235
42187	9.543591	-0.097572	-2.405736	-0.001281	0.002973	-0.002057	0.242568	0.029736	0.969678	0.156329	-0.987666	-0.008818	0.957456	0.153728	-0.244225
42188	9.498619	-0.081746	-2.432163	-0.001180	0.001401	-0.001960	0.242574	0.029736	0.969677	0.156320	-0.987667	-0.008817	0.957456	0.153718	-0.244231
42189	9.564610	-0.093069	-2.393640	0.001472	0.000137	0.000383	0.242595	0.029716	0.969672	0.156328	-0.987666	-0.008844	0.957449	0.153733	-0.244248
42190	9.498679	-0.081503	-2.431938	0.000979	0.003041	-0.004632	0.242579	0.029739	0.969676	0.156342	-0.987664	-0.008820	0.957451	0.153740	-0.244236
42191	9.543741	-0.096759	-2.405173	-0.002550	-0.000308	-0.002246	0.242600	0.029745	0.969670	0.156318	-0.987667	-0.008812	0.957450	0.153715	-0.244258
42192	9.510897	-0.082000	-2.452828	0.000191	0.003110	-0.001674	0.242589	0.029740	0.969673	0.156319	-0.987667	-0.008815	0.957452	0.153717	-0.244246
42193	9.540716	-0.072298	-2.407748	0.000585	0.003076	-0.003153	0.242577	0.029750	0.969676	0.156328	-0.987666	-0.008806	0.957454	0.153724	-0.244235
42194	9.543929	-0.096066	-2.404456	-0.001282	0.002973	-0.002057	0.242567	0.029749	0.969678	0.156318	-0.987668	-0.008802	0.957458	0.153713	-0.244226
42195	9.519922	-0.076063	-2.418988	0.000191	0.003110	-0.001674	0.242557	0.029744	0.969681	0.156320	-0.987667	-0.008806	0.957460	0.153716	-0.244215
42196	9.540900	-0.071766	-2.407034	-0.003339	-0.000239	0.000712	0.242583	0.029720	0.969675	0.156284	-0.987673	-0.008826	0.957460	0.153686	-0.244237
42197	9.540917	-0.071557	-2.406976	0.001081	0.001469	-0.004534	0.242583	0.029746	0.969674	0.156301	-0.987670	-0.008804	0.957457	0.153697	-0.244242
42198	9.511021	-0.098589	-2.394421	-0.000598	0.003179	0.001284	0.242705	0.029888	0.969640	0.156483	-0.987642	-0.008725	0.957396	0.153850	-0.244383
42199	9.535379	-0.100655	-2.436491	0.002159	0.001640	-0.002672	0.242707	0.029896	0.969639	0.156506	-0.987638	-0.008724	0.957392	0.153872	-0.244386
42200	9.520132	-0.075372	-2.418186	0.002159	0.001640	-0.002672	0.242711	0.029904	0.969638	0.156530	-0.987635	-0.008722	0.957387	0.153894	-0.244390
42201	9.535463	-0.100214	-2.436181	0.000687	0.001504	-0.003055	0.242714	0.029915	0.969637	0.156540	-0.987633	-0.008714	0.957385	0.153902	-0.244395
42202	9.499287	-0.079034	-2.429645	-0.000887	0.002939	-0.003536	0.242702	0.029929	0.969639	0.156534	-0.987634	-0.008696	0.957389	0.153892	-0.244385
42203	9.523445	-0.098585	-2.414532	0.000190	0.003110	-0.001674	0.242691	0.029924	0.969642	0.156536	-0.987634	-0.008700	0.957391	0.153895	-0.244374
42204	9.532271	-0.093134	-2.381422	-0.001078	-0.000171	-0.001863	0.242712	0.029926	0.969637	0.156525	-0.987636	-0.008698	0.957388	0.153883	-0.244395
42205	9.520358	-0.074209	-2.417332	0.000292	0.001538	-0.001576	0.242717	0.029923	0.969636	0.156528	-0.987635	-0.008703	0.957386	0.153887	-0.244399
42206	9.532345	-0.092943	-2.381133	-0.000598	0.003179	0.001284	0.242711	0.029889	0.969638	0.156515	-0.987637	-0.008733	0.957389	0.153882	-0.244389
42207	9.511443	-0.097017	-2.392809	0.001183	-0.000103	-0.004436	0.242727	0.029917	0.969633	0.156533	-0.987634	-0.008713	0.957382	0.153894	-0.244409
42208	9.520474	-0.073881	-2.416883	0.001370	0.001709	0.000286	0.242731	0.029893	0.969633	0.156538	-0.987633	-0.008738	0.957380	0.153905	-0.244409
42209	9.529319	-0.068627	-2.383681	-0.000204	0.003144	-0.000195	0.242723	0.029874	0.969636	0.156532	-0.987634	-0.008755	0.957384	0.153905	-0.244398
42210	9.535905	-0.098853	-2.434504	-0.001282	0.002973	-0.002058	0.242713	0.029873	0.969638	0.156521	-0.987636	-0.008752	0.957388	0.153893	-0.244388
42211	9.520663	-0.073590	-2.416147	0.000292	0.001538	-0.001576	0.242718	0.029869	0.969637	0.156524	-0.987635	-0.008757	0.957386	0.153896	-0.244392
42212	9.544781	-0.093179	-2.401185	-0.002652	0.001264	-0.002344	0.242724	0.029873	0.969635	0.156502	-0.987639	-0.008748	0.957388	0.153873	-0.244399
42213	9.529554	-0.067744	-2.382763	0.000877	0.004614	-0.004729	0.242694	0.029896	0.969642	0.156518	-0.987637	-0.008724	0.957393	0.153883	-0.244373
42214	9.532779	-0.091654	-2.379442	0.004314	0.001983	0.001054	0.242699	0.029866	0.969642	0.156553	-0.987631	-0.008765	0.957386	0.153927	-0.244372
42215	9.524040	-0.096857	-2.412253	-0.000785	0.001367	-0.003439	0.242702	0.029881	0.969640	0.156550	-0.987631	-0.008749	0.957386	0.153920	-0.244378
42216	9.524096	-0.096606	-2.412040	0.000190	0.003110	-0.001674	0.242692	0.029876	0.969643	0.156553	-0.987631	-0.008753	0.957388	0.153925	-0.244368
42217	9.503216	-0.100643	-2.423653	-0.001180	0.001401	-0.001960	0.242698	0.029877	0.969642	0.156542	-0.987633	-0.008751	0.957388	0.153914	-0.244373
42218	9.524190	-0.096242	-2.411686	0.000292	0.001538	-0.001576	0.242703	0.029873	0.969641	0.156545	-0.987632	-0.008756	0.957387	0.153917	-0.244378
42219	9.533241	-0.073164	-2.435683	0.001765	0.001675	-0.001192	0.242707	0.029866	0.969640	0.156561	-0.987629	-0.008768	0.957383	0.153936	-0.244380
42220	9.545184	-0.091739	-2.399639	-0.002549	-0.000308	-0.002247	0.242727	0.029871	0.969635	0.156535	-0.987634	-0.008760	0.957382	0.153908	-0.244401
42221	9.533062	-0.090442	-2.378356	0.002057	0.003213	-0.002769	0.242714	0.029877	0.969638	0.156558	-0.987630	-0.008757	0.957382	0.153930	-0.244389
42222	9.512218	-0.094433	-2.389828	-0.004723	0.004305	-0.001445	0.242691	0.029867	0.969644	0.156511	-0.987637	-0.008752	0.957395	0.153884	-0.244366
42223	9.545348	-0.091045	-2.399011	0.002364	-0.001503	-0.002476	0.242724	0.029877	0.969635	0.156535	-0.987634	-0.008753	0.957383	0.153907	-0.244399
42224	9.536593	-0.096183	-2.431913	-0.001676	0.003007	-0.000579	0.242717	0.029861	0.969637	0.156519	-0.987636	-0.008764	0.957387	0.153894	-0.244390
42225	9.524508	-0.094941	-2.410479	0.000585	0.003076	-0.003153	0.242705	0.029871	0.969640	0.156528	-0.987635	-0.008754	0.957389	0.153901	-0.244379
42226	9.521415	-0.070667	-2.413271	-0.001179	0.001401	-0.001960	0.242711	0.029872	0.969639	0.156519	-0.987636	-0.008752	0.957389	0.153891	-0.244385
42227	9.524604	-0.094481	-2.410121	0.002159	0.001641	-0.002671	0.242713	0.029879	0.969638	0.156542	-0.987632	-0.008751	0.957384	0.153913	-0.244388
42228	9.530242	-0.065076	-2.380085	-0.003339	-0.000240	0.000711	0.242738	0.029855	0.969632	0.156508	-0.987638	-0.008771	0.957384	0.153884	-0.244410
42229	9.542440	-0.066012	-2.401087	0.002057	0.003214	-0.002769	0.242725	0.029861	0.969635	0.156530	-0.987634	-0.008769	0.957383	0.153906	-0.244398
42230	9.527903	-0.117919	-2.406555	-0.003933	0.004237	-0.004402	0.242700	0.029882	0.969641	0.156499	-0.987640	-0.008735	0.957395	0.153867	-0.244377
42231	9.512679	-0.092514	-2.388070	0.000190	0.003110	-0.001674	0.242690	0.029877	0.969644	0.156500	-0.987639	-0.008739	0.957397	0.153870	-0.244366
42232	9.537025	-0.094436	-2.430289	-0.000975	-0.001743	-0.001765	0.242726	0.029881	0.969634	0.156492	-0.987641	-0.008739	0.957389	0.153861	-0.244403
42233	9.533645	-0.087905	-2.376114	-0.001282	0.002973	-0.002058	0.242717	0.029880	0.969637	0.156481	-0.987642	-0.008735	0.957394	0.153850	-0.244393
42234	9.524932	-0.092958	-2.408882	-0.001179	0.001401	-0.001960	0.242723	0.029881	0.969635	0.156472	-0.987644	-0.008733	0.957393	0.153841	-0.244400
42235	9.533735	-0.087505	-2.375767	0.000293	0.001538	-0.001576	0.242728	0.029877	0.969634	0.156475	-0.987643	-0.008738	0.957392	0.153845	-0.244404
42236	9.537173	-0.093617	-2.429739	0.000687	0.001504	-0.003055	0.242732	0.029889	0.969633	0.156485	-0.987642	-0.008729	0.957389	0.153852	-0.244409
42237	9.525008	-0.092505	-2.408599	-0.000292	-0.001538	0.001576	0.242771	0.029859	0.969624	0.156474	-0.987643	-0.008763	0.957381	0.153849	-0.244443
42238	9.521887	-0.068297	-2.411476	-0.003933	0.004237	-0.004403	0.242747	0.029881	0.969629	0.156446	-0.987648	-0.008730	0.957392	0.153814	-0.244423
42239	9.533842	-0.086698	-2.375366	0.002364	-0.001503	-0.002476	0.242779	0.029891	0.969621	0.156471	-0.987644	-0.008732	0.957379	0.153837	-0.244457
42240	9.513160	-0.072999	-2.444322	0.000687	0.001504	-0.003055	0.242782	0.029902	0.969620	0.156481	-0.987642	-0.008724	0.957377	0.153845	-0.244461
42241	9.546049	-0.087307	-2.396360	0.000292	0.001538	-0.001576	0.242787	0.029898	0.969619	0.156484	-0.987642	-0.008729	0.957375	0.153849	-0.244465
42242	9.512991	-0.090284	-2.386910	0.000687	0.001504	-0.003055	0.242790	0.029909	0.969618	0.156495	-0.987640	-0.008721	0.957372	0.153858	-0.244470
42243	9.516452	-0.096354	-2.440815	-0.001282	0.002973	-0.002058	0.242781	0.029909	0.969620	0.156484	-0.987642	-0.008717	0.957377	0.153846	-0.244461
42244	9.513100	-0.089712	-2.386499	-0.002256	0.001230	-0.003823	0.242784	0.029927	0.969619	0.156467	-0.987645	-0.008695	0.957379	0.153824	-0.244467
42245	9.546214	-0.086350	-2.395737	0.001472	0.000137	0.000384	0.242805	0.029906	0.969614	0.156476	-0.987643	-0.008721	0.957372	0.153839	-0.244485
42246	9.534311	-0.067394	-2.431660	-0.003728	0.001092	-0.004208	0.242812	0.029930	0.969612	0.156450	-0.987648	-0.008692	0.957374	0.153806	-0.244495
42247	9.525355	-0.090050	-2.407318	0.000190	0.003111	-0.001674	0.242801	0.029925	0.969614	0.156452	-0.987647	-0.008695	0.957377	0.153810	-0.244484
42248	9.546323	-0.085709	-2.395326	0.001867	0.000104	-0.001094	0.242822	0.029920	0.969609	0.156471	-0.987644	-0.008709	0.957368	0.153831	-0.244504
42249	9.525416	-0.089907	-2.407083	-0.000103	0.001572	-0.000098	0.242829	0.029902	0.969608	0.156467	-0.987645	-0.008727	0.957367	0.153831	-0.244508
42250	9.525475	-0.089860	-2.406853	0.001662	0.003248	-0.001289	0.242819	0.029894	0.969611	0.156481	-0.987642	-0.008737	0.957368	0.153847	-0.244496
42251	9.525551	-0.089705	-2.406557	-0.001282	0.002973	-0.002058	0.242809	0.029893	0.969613	0.156469	-0.987644	-0.008734	0.957372	0.153835	-0.244486
42252	9.543410	-0.061252	-2.397356	0.000087	0.004683	-0.001771	0.242784	0.029887	0.969620	0.156470	-0.987644	-0.008736	0.957378	0.153838	-0.244460
42253	9.504760	-0.093673	-2.417872	0.003441	-0.001331	-0.000612	0.242817	0.029878	0.969612	0.156501	-0.987639	-0.008758	0.957365	0.153872	-0.244492
42254	9.522596	-0.065088	-2.408762	-0.007082	0.007107	-0.005367	0.242762	0.029903	0.969625	0.156442	-0.987649	-0.008709	0.957388	0.153804	-0.244442
42255	9.525867	-0.088798	-2.405341	0.001369	0.001710	0.000287	0.242769	0.029881	0.969624	0.156450	-0.987647	-0.008734	0.957385	0.153818	-0.244445
42256	9.510570	-0.063564	-2.387055	0.001083	0.001471	-0.004534	0.242769	0.029907	0.969623	0.156467	-0.987645	-0.008713	0.957383	0.153829	-0.244449
42257	9.559063	-0.085148	-2.414263	0.000190	0.003111	-0.001674	0.242759	0.029902	0.969626	0.156468	-0.987644	-0.008716	0.957385	0.153832	-0.244438
42258	9.505098	-0.092433	-2.416591	0.000293	0.001539	-0.001576	0.242763	0.029898	0.969625	0.156470	-0.987644	-0.008721	0.957384	0.153835	-0.244441
42259	9.534789	-0.082745	-2.371703	-0.001077	-0.000171	-0.001863	0.242784	0.029900	0.969620	0.156460	-0.987646	-0.008720	0.957380	0.153824	-0.244462
42260	9.535045	-0.064867	-2.428846	-0.002944	-0.000275	-0.000769	0.242807	0.029892	0.969614	0.156430	-0.987651	-0.008725	0.957379	0.153795	-0.244485
42261	9.547014	-0.083324	-2.392656	0.000877	0.004616	-0.004729	0.242778	0.029915	0.969621	0.156446	-0.987648	-0.008701	0.957384	0.153805	-0.244459
42262	9.493049	-0.090483	-2.394990	0.000395	-0.000034	-0.001479	0.242798	0.029913	0.969616	0.156450	-0.987648	-0.008707	0.957378	0.153810	-0.244479
42263	9.538080	-0.105786	-2.368233	-0.000784	0.001367	-0.003439	0.242802	0.029928	0.969614	0.156447	-0.987648	-0.008692	0.957378	0.153803	-0.244485
42264	9.538399	-0.087764	-2.425142	0.000585	0.003077	-0.003152	0.242789	0.029937	0.969617	0.156456	-0.987647	-0.008683	0.957379	0.153811	-0.244473
42265	9.544053	-0.058245	-2.394869	0.000190	0.003111	-0.001674	0.242778	0.029932	0.969620	0.156458	-0.987646	-0.008686	0.957382	0.153814	-0.244462
42266	9.505453	-0.090658	-2.415260	-0.000206	0.003145	-0.000195	0.242770	0.029912	0.969623	0.156454	-0.987647	-0.008704	0.957384	0.153815	-0.244451
42267	9.502341	-0.066453	-2.418050	-0.000784	0.001367	-0.003439	0.242774	0.029927	0.969621	0.156451	-0.987648	-0.008689	0.957384	0.153808	-0.244457
42268	9.562719	-0.106779	-2.409412	0.002262	0.000070	-0.002573	0.242790	0.029936	0.969617	0.156472	-0.987644	-0.008688	0.957376	0.153827	-0.244474
42269	9.502381	-0.066150	-2.417901	-0.000498	0.001606	0.001381	0.242799	0.029903	0.969616	0.156460	-0.987646	-0.008720	0.957376	0.153823	-0.244478
42270	9.538707	-0.086815	-2.423961	0.000980	0.003044	-0.004631	0.242786	0.029928	0.969618	0.156480	-0.987643	-0.008697	0.957376	0.153837	-0.244469
42271	9.532193	-0.056217	-2.372487	-0.001780	0.004579	-0.000677	0.242763	0.029911	0.969624	0.156460	-0.987646	-0.008706	0.957385	0.153821	-0.244444
42272	9.542047	-0.110447	-2.420302	0.000293	0.001539	-0.001576	0.242766	0.029906	0.969624	0.156460	-0.987646	-0.008711	0.957384	0.153822	-0.244446
42273	9.505813	-0.089419	-2.413891	-0.002651	0.001263	-0.002346	0.242772	0.029911	0.969622	0.156437	-0.987650	-0.008701	0.957387	0.153797	-0.244453
42274	9.526783	-0.084949	-2.401847	-0.003149	0.002869	-0.000964	0.242765	0.029899	0.969624	0.156405	-0.987655	-0.008704	0.957394	0.153767	-0.244444
42275	9.539019	-0.085827	-2.422770	0.000293	0.001539	-0.001576	0.242770	0.029895	0.969623	0.156408	-0.987654	-0.008709	0.957392	0.153771	-0.244448
42276	9.535593	-0.079444	-2.368581	0.000000	0.000000	0.000000	0.242769	0.029895	0.969623	0.156407	-0.987654	-0.008709	0.957392	0.153770	-0.244448
42277	9.521350	-0.113805	-2.431324	0.000878	0.004617	-0.004728	0.242740	0.029918	0.969630	0.156422	-0.987652	-0.008685	0.957397	0.153780	-0.244422
42278	9.502919	-0.064440	-2.415832	0.000190	0.003111	-0.001674	0.242728	0.029913	0.969633	0.156422	-0.987652	-0.008688	0.957400	0.153781	-0.244410
42279	9.527027	-0.083976	-2.400912	-0.000578	-0.001777	-0.003245	0.242762	0.029931	0.969624	0.156420	-0.987653	-0.008675	0.957392	0.153775	-0.244447
42280	9.511688	-0.058619	-2.382723	0.000585	0.003078	-0.003152	0.242749	0.029941	0.969627	0.156425	-0.987652	-0.008664	0.957394	0.153777	-0.244435
42281	9.527120	-0.083415	-2.400562	-0.001282	0.002973	-0.002059	0.242739	0.029940	0.969629	0.156414	-0.987654	-0.008660	0.957399	0.153766	-0.244425
42282	9.527176	-0.083230	-2.400348	0.000293	0.001539	-0.001576	0.242744	0.029937	0.969628	0.156418	-0.987653	-0.008666	0.957397	0.153771	-0.244430
42283	9.524038	-0.059097	-2.403211	-0.001575	0.001435	-0.000482	0.242752	0.029923	0.969627	0.156400	-0.987656	-0.008677	0.957398	0.153756	-0.244435
42284	9.539414	-0.083938	-2.421280	-0.000680	-0.000205	-0.003342	0.242772	0.029939	0.969621	0.156400	-0.987656	-0.008663	0.957393	0.153752	-0.244457
42285	9.527264	-0.082692	-2.400017	-0.001678	0.003007	-0.000580	0.242764	0.029924	0.969624	0.156382	-0.987659	-0.008673	0.957398	0.153737	-0.244448
42286	9.506424	-0.086683	-2.411584	0.000981	0.003044	-0.004631	0.242751	0.029948	0.969626	0.156403	-0.987655	-0.008651	0.957398	0.153752	-0.244438
42287	9.527395	-0.082053	-2.399518	-0.000783	0.001368	-0.003440	0.242755	0.029963	0.969625	0.156400	-0.987656	-0.008635	0.957397	0.153745	-0.244444
42288	9.527432	-0.081743	-2.399382	0.000688	0.001506	-0.003055	0.242758	0.029975	0.969624	0.156413	-0.987654	-0.008628	0.957394	0.153756	-0.244450
42289	9.530649	-0.105553	-2.396232	0.000292	0.001539	-0.001576	0.242763	0.029971	0.969622	0.156415	-0.987654	-0.008633	0.957392	0.153759	-0.244454
42290	9.506615	-0.085737	-2.410862	0.001265	0.003283	0.000190	0.242754	0.029948	0.969625	0.156422	-0.987652	-0.008657	0.957394	0.153773	-0.244441
42291	9.530768	-0.105494	-2.395764	0.001764	0.001677	-0.001191	0.242758	0.029941	0.969625	0.156438	-0.987650	-0.008669	0.957390	0.153791	-0.244444
42292	9.524449	-0.057247	-2.401627	-0.000783	0.001368	-0.003440	0.242764	0.029957	0.969623	0.156439	-0.987650	-0.008654	0.957389	0.153788	-0.244452
42293	9.551757	-0.100789	-2.383622	0.000293	0.001539	-0.001576	0.242768	0.029953	0.969622	0.156441	-0.987649	-0.008659	0.957387	0.153791	-0.244456
42294	9.518998	-0.086154	-2.431249	0.000189	0.003111	-0.001674	0.242758	0.029948	0.969624	0.156445	-0.987649	-0.008663	0.957389	0.153796	-0.244445
42295	9.543186	-0.105658	-2.416023	-0.000990	0.004513	-0.003635	0.242731	0.029961	0.969631	0.156440	-0.987650	-0.008645	0.957396	0.153788	-0.244421
42296	9.527872	-0.080461	-2.397678	0.001472	0.000138	0.000385	0.242754	0.029941	0.969626	0.156452	-0.987647	-0.008672	0.957389	0.153805	-0.244440
42297	9.515719	-0.079355	-2.376403	-0.001282	0.002973	-0.002059	0.242745	0.029940	0.969628	0.156441	-0.987649	-0.008668	0.957393	0.153794	-0.244431
42298	9.540137	-0.081196	-2.418524	-0.001076	-0.000171	-0.001864	0.242765	0.029941	0.969623	0.156432	-0.987651	-0.008668	0.957389	0.153785	-0.244451
42299	9.527943	-0.079965	-2.397415	-0.001076	-0.000171	-0.001864	0.242786	0.029943	0.969618	0.156422	-0.987652	-0.008667	0.957386	0.153774	-0.244472
42300	9.503884	-0.059985	-2.412147	-0.001282	0.002973	-0.002059	0.242777	0.029943	0.969620	0.156411	-0.987654	-0.008663	0.957390	0.153763	-0.244463
42301	9.540225	-0.080723	-2.418191	-0.000499	0.001606	0.001381	0.242785	0.029910	0.969619	0.156399	-0.987656	-0.008695	0.957389	0.153758	-0.244466
42302	9.507197	-0.083825	-2.408635	-0.000990	0.004513	-0.003635	0.242760	0.029923	0.969625	0.156397	-0.987656	-0.008677	0.957396	0.153752	-0.244443
42303	9.540097	-0.097975	-2.360433	-0.002754	0.002835	-0.002444	0.242751	0.029926	0.969627	0.156372	-0.987660	-0.008666	0.957403	0.153726	-0.244435
42304	9.519519	-0.084338	-2.429274	0.001867	0.000105	-0.001093	0.242770	0.029919	0.969622	0.156391	-0.987657	-0.008681	0.957395	0.153747	-0.244453
42305	9.549144	-0.074605	-2.384427	-0.000680	-0.000205	-0.003342	0.242789	0.029936	0.969617	0.156388	-0.987658	-0.008666	0.957390	0.153741	-0.244474
42306	9.519517	-0.083872	-2.429297	-0.001076	-0.000171	-0.001864	0.242809	0.029937	0.969612	0.156379	-0.987659	-0.008666	0.957387	0.153731	-0.244494
42307	9.540463	-0.079502	-2.417293	-0.000207	0.003145	-0.000195	0.242801	0.029918	0.969615	0.156373	-0.987660	-0.008683	0.957390	0.153730	-0.244483
42308	9.540540	-0.079347	-2.416996	0.000585	0.003078	-0.003152	0.242787	0.029927	0.969618	0.156382	-0.987659	-0.008674	0.957392	0.153737	-0.244471
42309	9.510697	-0.106276	-2.404445	-0.000886	0.002940	-0.003537	0.242776	0.029940	0.969620	0.156378	-0.987659	-0.008657	0.957395	0.153729	-0.244462
42310	9.540632	-0.078683	-2.416654	-0.000576	-0.001777	-0.003245	0.242810	0.029959	0.969611	0.156375	-0.987660	-0.008643	0.957387	0.153722	-0.244498
42311	9.516275	-0.076290	-2.374275	-0.000990	0.004513	-0.003635	0.242783	0.029971	0.969618	0.156371	-0.987661	-0.008625	0.957395	0.153714	-0.244474
42312	9.519797	-0.082350	-2.428251	0.000500	-0.001606	-0.001381	0.242820	0.029971	0.969608	0.156378	-0.987660	-0.008633	0.957384	0.153722	-0.244510
42313	9.543912	-0.101972	-2.413310	0.000189	0.003112	-0.001674	0.242809	0.029966	0.969611	0.156380	-0.987659	-0.008637	0.957386	0.153725	-0.244499
42314	9.507657	-0.081011	-2.406915	-0.001075	-0.000171	-0.001864	0.242830	0.029968	0.969606	0.156371	-0.987661	-0.008636	0.957383	0.153715	-0.244520
42315	9.552996	-0.078551	-2.437159	0.000585	0.003079	-0.003152	0.242818	0.029978	0.969609	0.156380	-0.987659	-0.008626	0.957384	0.153722	-0.244509
42316	9.516439	-0.075307	-2.373647	-0.001472	-0.000138	-0.000385	0.242840	0.029965	0.969603	0.156360	-0.987662	-0.008637	0.957382	0.153704	-0.244529
42317	9.553051	-0.078131	-2.436955	0.001085	0.001473	-0.004533	0.242841	0.029991	0.969602	0.156377	-0.987660	-0.008615	0.957379	0.153716	-0.244534
42318	9.516514	-0.074788	-2.373365	0.000189	0.003112	-0.001674	0.242831	0.029987	0.969605	0.156379	-0.987660	-0.008618	0.957381	0.153718	-0.244524
42319	9.531925	-0.099659	-2.391407	0.002367	-0.001500	-0.002474	0.242864	0.029997	0.969597	0.156403	-0.987656	-0.008620	0.957369	0.153742	-0.244557
42320	9.528770	-0.075397	-2.394273	-0.002858	0.004408	-0.002542	0.242837	0.029997	0.969603	0.156376	-0.987660	-0.008608	0.957380	0.153713	-0.244532
42321	9.541079	-0.076142	-2.414970	-0.001386	0.004546	-0.002156	0.242813	0.029995	0.969609	0.156364	-0.987662	-0.008604	0.957388	0.153701	-0.244507
42322	9.520268	-0.080208	-2.426475	0.000189	0.003112	-0.001674	0.242802	0.029990	0.969612	0.156366	-0.987662	-0.008608	0.957391	0.153704	-0.244495
42323	9.553123	-0.094458	-2.378403	-0.002650	0.001263	-0.002347	0.242808	0.029994	0.969611	0.156342	-0.987666	-0.008598	0.957393	0.153679	-0.244503
42324	9.511350	-0.102836	-2.402009	-0.000104	0.001573	-0.000098	0.242816	0.029977	0.969609	0.156337	-0.987666	-0.008616	0.957392	0.153678	-0.244508
42325	9.508195	-0.078610	-2.404867	0.001085	0.001473	-0.004533	0.242817	0.030003	0.969608	0.156355	-0.987664	-0.008594	0.957389	0.153690	-0.244512
42326	9.541355	-0.075143	-2.413910	-0.003547	0.002901	0.000513	0.242814	0.029977	0.969610	0.156320	-0.987669	-0.008611	0.957395	0.153660	-0.244506
42327	9.529184	-0.073969	-2.392667	-0.002547	-0.000310	-0.002249	0.242835	0.029983	0.969604	0.156297	-0.987673	-0.008602	0.957393	0.153635	-0.244528
42328	9.532414	-0.097706	-2.389534	0.000585	0.003079	-0.003152	0.242823	0.029993	0.969607	0.156305	-0.987671	-0.008592	0.957395	0.153641	-0.244517
42329	9.532492	-0.097521	-2.389232	0.001660	0.003251	-0.001288	0.242811	0.029984	0.969610	0.156320	-0.987669	-0.008603	0.957396	0.153658	-0.244505
42330	9.508472	-0.077585	-2.403804	0.000585	0.003079	-0.003152	0.242798	0.029993	0.969613	0.156328	-0.987668	-0.008594	0.957398	0.153664	-0.244492
42331	9.541636	-0.074121	-2.412831	0.000293	0.001540	-0.001576	0.242803	0.029990	0.969612	0.156330	-0.987667	-0.008599	0.957396	0.153668	-0.244497
42332	9.532683	-0.096936	-2.388494	-0.001283	0.002974	-0.002059	0.242793	0.029989	0.969615	0.156317	-0.987670	-0.008594	0.957401	0.153653	-0.244487
42333	9.508638	-0.076798	-2.403173	-0.001858	0.001197	-0.005304	0.242795	0.030023	0.969613	0.156308	-0.987671	-0.008558	0.957402	0.153636	-0.244495
42334	9.532771	-0.096231	-2.388173	-0.001575	0.001434	-0.000483	0.242803	0.030009	0.969611	0.156291	-0.987674	-0.008569	0.957403	0.153622	-0.244500
42335	9.508745	-0.076255	-2.402768	-0.000990	0.004513	-0.003635	0.242776	0.030021	0.969618	0.156286	-0.987675	-0.008551	0.957410	0.153614	-0.244475
42336	9.512001	-0.100123	-2.399544	0.001471	0.000139	0.000386	0.242798	0.030001	0.969613	0.156297	-0.987673	-0.008579	0.957403	0.153631	-0.244494
42337	9.524231	-0.101138	-2.420575	0.001764	0.001678	-0.001190	0.242802	0.029993	0.969612	0.156313	-0.987670	-0.008591	0.957399	0.153649	-0.244496
42338	9.557394	-0.097763	-2.429601	-0.003151	0.002868	-0.000966	0.242795	0.029982	0.969614	0.156279	-0.987676	-0.008592	0.957407	0.153616	-0.244488
42339	9.542060	-0.072571	-2.411201	0.000189	0.003112	-0.001673	0.242784	0.029977	0.969617	0.156281	-0.987675	-0.008596	0.957409	0.153619	-0.244477
42340	9.533107	-0.095324	-2.386867	-0.000782	0.001368	-0.003440	0.242790	0.029993	0.969615	0.156281	-0.987675	-0.008581	0.957408	0.153616	-0.244485
42341	9.554362	-0.073087	-2.431966	0.000293	0.001540	-0.001576	0.242794	0.029989	0.969614	0.156284	-0.987675	-0.008586	0.957406	0.153620	-0.244489
42342	9.485024	-0.055533	-2.416185	0.001160	0.004857	0.000093	0.242770	0.029965	0.969621	0.156290	-0.987674	-0.008609	0.957411	0.153632	-0.244461
42343	9.573095	-0.122009	-2.446610	0.002368	-0.001500	-0.002474	0.242803	0.029975	0.969612	0.156315	-0.987670	-0.008610	0.957399	0.153656	-0.244494
42344	9.485083	-0.055224	-2.415962	-0.002754	0.002835	-0.002445	0.242794	0.029978	0.969615	0.156291	-0.987674	-0.008600	0.957405	0.153630	-0.244486
42345	9.548765	-0.119546	-2.404036	-0.001679	0.003007	-0.000581	0.242786	0.029962	0.969617	0.156272	-0.987676	-0.008609	0.957410	0.153615	-0.244476
42346	9.509327	-0.074647	-2.400513	0.000189	0.003112	-0.001673	0.242775	0.029957	0.969620	0.156273	-0.987676	-0.008613	0.957413	0.153616	-0.244464
42347	9.545711	-0.095177	-2.406464	-0.002754	0.002835	-0.002445	0.242766	0.029960	0.969622	0.156249	-0.987680	-0.008602	0.957419	0.153590	-0.244456
42348	9.545747	-0.094961	-2.406332	0.000397	-0.000033	-0.001478	0.242786	0.029958	0.969617	0.156254	-0.987679	-0.008609	0.957413	0.153597	-0.244476
42349	9.497258	-0.073082	-2.378843	-0.001679	0.003007	-0.000581	0.242779	0.029942	0.969620	0.156235	-0.987682	-0.008619	0.957418	0.153581	-0.244466
42350	9.563512	-0.066314	-2.397171	0.001190	-0.000098	-0.004435	0.242796	0.029970	0.969614	0.156255	-0.987679	-0.008599	0.957410	0.153595	-0.244487
42351	9.521778	-0.074608	-2.420722	-0.001783	0.004579	-0.000678	0.242773	0.029953	0.969621	0.156236	-0.987682	-0.008607	0.957419	0.153579	-0.244462
42352	9.512824	-0.097495	-2.396390	0.000397	-0.000033	-0.001478	0.242792	0.029951	0.969616	0.156237	-0.987682	-0.008613	0.957414	0.153581	-0.244481
42353	9.542767	-0.070072	-2.408476	0.000189	0.003113	-0.001673	0.242782	0.029946	0.969619	0.156239	-0.987682	-0.008617	0.957417	0.153584	-0.244470
42354	9.512937	-0.097161	-2.395954	-0.001283	0.002974	-0.002059	0.242772	0.029945	0.969621	0.156228	-0.987683	-0.008613	0.957421	0.153573	-0.244461
42355	9.525208	-0.098051	-2.416853	-0.000104	0.001573	-0.000097	0.242779	0.029927	0.969620	0.156224	-0.987684	-0.008632	0.957420	0.153573	-0.244464
42356	9.530715	-0.068603	-2.386722	-0.002650	0.001262	-0.002348	0.242785	0.029931	0.969618	0.156200	-0.987688	-0.008622	0.957422	0.153548	-0.244472
42357	9.522091	-0.073693	-2.419519	-0.001679	0.003007	-0.000581	0.242778	0.029916	0.969621	0.156182	-0.987691	-0.008632	0.957427	0.153533	-0.244462
42358	9.509911	-0.072572	-2.398264	0.000397	-0.000033	-0.001478	0.242798	0.029914	0.969615	0.156186	-0.987690	-0.008638	0.957421	0.153537	-0.244482
42359	9.546210	-0.093166	-2.404563	0.002369	-0.001499	-0.002473	0.242831	0.029924	0.969607	0.156210	-0.987686	-0.008640	0.957409	0.153561	-0.244515
42360	9.509910	-0.072209	-2.398278	-0.004622	0.002729	-0.001353	0.242826	0.029918	0.969608	0.156166	-0.987693	-0.008634	0.957417	0.153517	-0.244510
42361	9.513190	-0.095998	-2.394996	0.002056	0.003219	-0.002766	0.242813	0.029923	0.969612	0.156189	-0.987690	-0.008632	0.957417	0.153538	-0.244497
42362	9.528675	-0.120841	-2.412880	0.000293	0.001540	-0.001576	0.242817	0.029919	0.969610	0.156194	-0.987689	-0.008638	0.957415	0.153544	-0.244501
42363	9.510100	-0.071691	-2.397541	0.001660	0.003252	-0.001287	0.242806	0.029910	0.969614	0.156209	-0.987686	-0.008649	0.957415	0.153562	-0.244489
42364	9.525603	-0.096558	-2.415355	-0.001283	0.002974	-0.002059	0.242796	0.029909	0.969616	0.156196	-0.987688	-0.008646	0.957420	0.153550	-0.244479
42365	9.504786	-0.100673	-2.426961	-0.001680	0.003007	-0.000581	0.242788	0.029894	0.969619	0.156178	-0.987691	-0.008655	0.957425	0.153534	-0.244469
42366	9.534401	-0.090893	-2.381864	-0.000782	0.001369	-0.003440	0.242792	0.029909	0.969617	0.156176	-0.987691	-0.008640	0.957424	0.153528	-0.244475
42367	9.525750	-0.095936	-2.414801	0.000397	-0.000033	-0.001478	0.242812	0.029907	0.969612	0.156179	-0.987691	-0.008646	0.957419	0.153533	-0.244494
42368	9.534473	-0.090433	-2.381593	-0.002858	0.004408	-0.002543	0.242790	0.029909	0.969618	0.156158	-0.987694	-0.008635	0.957428	0.153510	-0.244473
42369	9.534892	-0.072513	-2.438416	0.001764	0.001679	-0.001190	0.242794	0.029901	0.969617	0.156173	-0.987692	-0.008647	0.957424	0.153528	-0.244475
42370	9.534584	-0.090129	-2.381162	-0.003047	0.001295	-0.000870	0.242804	0.029893	0.969615	0.156144	-0.987696	-0.008650	0.957426	0.153500	-0.244484
42371	9.546843	-0.090953	-2.402133	0.002161	0.001647	-0.002668	0.242806	0.029900	0.969614	0.156167	-0.987693	-0.008649	0.957422	0.153522	-0.244487
42372	9.501913	-0.075215	-2.428697	-0.000886	0.002941	-0.003538	0.242794	0.029914	0.969617	0.156163	-0.987694	-0.008632	0.957426	0.153514	-0.244478
42373	9.546936	-0.090456	-2.401781	-0.001471	-0.000139	-0.000386	0.242817	0.029901	0.969611	0.156146	-0.987696	-0.008645	0.957423	0.153500	-0.244498
42374	9.480750	-0.096766	-2.383207	0.000982	0.003048	-0.004630	0.242802	0.029925	0.969614	0.156162	-0.987694	-0.008621	0.957424	0.153510	-0.244488
42375	9.547068	-0.089816	-2.401281	-0.000990	0.004514	-0.003635	0.242775	0.029938	0.969620	0.156157	-0.987695	-0.008603	0.957431	0.153502	-0.244463
42376	9.523027	-0.069904	-2.415947	0.003339	0.000246	-0.000706	0.242794	0.029927	0.969616	0.156186	-0.987690	-0.008624	0.957422	0.153534	-0.244479
42377	9.517232	-0.116771	-2.388833	-0.000677	-0.000204	-0.003343	0.242813	0.029944	0.969611	0.156184	-0.987691	-0.008609	0.957418	0.153528	-0.244500
42378	9.543933	-0.065156	-2.403989	0.000690	0.001508	-0.003054	0.242816	0.029956	0.969610	0.156194	-0.987689	-0.008601	0.957415	0.153536	-0.244506
42379	9.514094	-0.092238	-2.391552	0.000188	0.003113	-0.001673	0.242806	0.029951	0.969612	0.156196	-0.987689	-0.008605	0.957417	0.153539	-0.244495
42380	9.526357	-0.093060	-2.412521	-0.001074	-0.000172	-0.001865	0.242826	0.029953	0.969607	0.156185	-0.987690	-0.008603	0.957414	0.153527	-0.244515
42381	9.523194	-0.068657	-2.415325	-0.002064	0.004343	-0.005500	0.242798	0.029984	0.969613	0.156174	-0.987692	-0.008564	0.957423	0.153508	-0.244492
42382	9.550606	-0.112036	-2.397073	0.000188	0.003113	-0.001673	0.242788	0.029979	0.969616	0.156177	-0.987692	-0.008568	0.957425	0.153512	-0.244482
42383	9.493412	-0.095426	-2.402679	0.002370	-0.001499	-0.002473	0.242821	0.029989	0.969608	0.156202	-0.987688	-0.008569	0.957413	0.153535	-0.244515
42384	9.538790	-0.092894	-2.432860	-0.002859	0.004407	-0.002543	0.242796	0.029991	0.969614	0.156178	-0.987692	-0.008558	0.957423	0.153510	-0.244492
42385	9.526655	-0.091662	-2.411396	0.000188	0.003113	-0.001673	0.242786	0.029986	0.969616	0.156179	-0.987692	-0.008562	0.957425	0.153513	-0.244481
42386	9.523492	-0.067463	-2.414182	-0.001179	0.001401	-0.001962	0.242792	0.029986	0.969615	0.156171	-0.987693	-0.008560	0.957425	0.153504	-0.244487
42387	9.559880	-0.088003	-2.420175	0.000188	0.003113	-0.001673	0.242782	0.029981	0.969618	0.156172	-0.987693	-0.008564	0.957427	0.153507	-0.244476
42388	9.532256	-0.061808	-2.380748	-0.001178	0.001401	-0.001962	0.242786	0.029982	0.969616	0.156159	-0.987695	-0.008560	0.957428	0.153493	-0.244481
42389	9.526840	-0.090832	-2.410696	-0.000677	-0.000204	-0.003343	0.242805	0.029999	0.969611	0.156157	-0.987695	-0.008546	0.957424	0.153486	-0.244502
42390	9.544518	-0.062189	-2.401743	-0.000781	0.001369	-0.003441	0.242810	0.030014	0.969610	0.156156	-0.987696	-0.008531	0.957423	0.153482	-0.244509
42391	9.526931	-0.090133	-2.410362	-0.000991	0.004514	-0.003636	0.242783	0.030026	0.969616	0.156152	-0.987696	-0.008513	0.957431	0.153474	-0.244484
42392	9.523766	-0.065970	-2.413140	0.001471	0.000139	0.000386	0.242804	0.030005	0.969611	0.156161	-0.987695	-0.008540	0.957424	0.153489	-0.244501
42393	9.535661	-0.084699	-2.377046	0.001764	0.001680	-0.001189	0.242808	0.029998	0.969611	0.156177	-0.987692	-0.008552	0.957420	0.153507	-0.244504
42394	9.506189	-0.094096	-2.421724	0.000585	0.003081	-0.003152	0.242796	0.030007	0.969613	0.156186	-0.987691	-0.008543	0.957422	0.153515	-0.244494
42395	9.535774	-0.084269	-2.376605	-0.001178	0.001401	-0.001962	0.242801	0.030008	0.969612	0.156176	-0.987692	-0.008540	0.957422	0.153504	-0.244500
42396	9.523997	-0.065279	-2.412249	0.000376	0.006227	-0.003347	0.242758	0.030014	0.969623	0.156183	-0.987691	-0.008529	0.957432	0.153509	-0.244457
42397	9.506419	-0.093465	-2.420846	0.001471	0.000139	0.000387	0.242779	0.029994	0.969618	0.156192	-0.987690	-0.008556	0.957425	0.153524	-0.244475
42398	9.551439	-0.108914	-2.393895	-0.003549	0.002899	0.000510	0.242720	0.029956	0.969634	0.156397	-0.987656	-0.008637	0.957406	0.153745	-0.244409
42399	9.503287	-0.069350	-2.423488	0.002161	0.001648	-0.002668	0.242722	0.029963	0.969633	0.156421	-0.987653	-0.008636	0.957402	0.153767	-0.244412
42400	9.546134	-0.137777	-2.423472	-0.002357	0.002802	-0.003925	0.242709	0.029979	0.969636	0.156399	-0.987656	-0.008612	0.957409	0.153740	-0.244401
42401	9.521051	-0.040442	-2.414168	0.000293	0.001541	-0.001576	0.242713	0.029976	0.969635	0.156402	-0.987656	-0.008617	0.957407	0.153744	-0.244406
42402	9.506680	-0.092576	-2.419856	-0.001283	0.002974	-0.002060	0.242704	0.029975	0.969637	0.156390	-0.987658	-0.008613	0.957412	0.153732	-0.244396
42403	9.527616	-0.088135	-2.407729	0.001764	0.001680	-0.001189	0.242708	0.029967	0.969637	0.156406	-0.987655	-0.008625	0.957408	0.153751	-0.244399
42404	9.527694	-0.087950	-2.407427	0.000481	0.004654	-0.003249	0.242681	0.029976	0.969643	0.156417	-0.987654	-0.008615	0.957413	0.153759	-0.244374
42405	9.548627	-0.083339	-2.395308	-0.000676	-0.000204	-0.003343	0.242700	0.029992	0.969638	0.156415	-0.987654	-0.008601	0.957409	0.153753	-0.244395
42406	9.494654	-0.090799	-2.397947	0.001366	0.001712	0.000289	0.242705	0.029970	0.969637	0.156423	-0.987653	-0.008627	0.957406	0.153767	-0.244396
42407	9.564148	-0.108123	-2.413200	-0.004518	0.001154	-0.001258	0.242714	0.029964	0.969635	0.156379	-0.987660	-0.008623	0.957411	0.153723	-0.244404
42408	9.503737	-0.067581	-2.421775	0.003235	0.001820	-0.000802	0.242716	0.029951	0.969635	0.156403	-0.987656	-0.008643	0.957407	0.153751	-0.244404
42409	9.548776	-0.082891	-2.394729	-0.001283	0.002974	-0.002060	0.242706	0.029950	0.969637	0.156392	-0.987657	-0.008639	0.957411	0.153740	-0.244394
42410	9.515718	-0.085980	-2.385316	0.002161	0.001648	-0.002667	0.242708	0.029957	0.969637	0.156415	-0.987654	-0.008638	0.957407	0.153762	-0.244397
42411	9.561114	-0.083494	-2.415456	0.000293	0.001541	-0.001576	0.242713	0.029954	0.969636	0.156418	-0.987653	-0.008643	0.957405	0.153766	-0.244401
42412	9.507163	-0.090989	-2.418018	0.001764	0.001680	-0.001189	0.242718	0.029947	0.969635	0.156437	-0.987650	-0.008656	0.957400	0.153788	-0.244405
42413	9.503595	-0.084732	-2.363752	-0.000502	0.001605	0.001381	0.242727	0.029914	0.969633	0.156425	-0.987652	-0.008688	0.957400	0.153784	-0.244409
42414	9.540377	-0.087559	-2.426830	0.000983	0.003049	-0.004630	0.242714	0.029939	0.969636	0.156445	-0.987649	-0.008665	0.957400	0.153798	-0.244400
42415	9.507356	-0.090471	-2.417280	-0.000990	0.004515	-0.003636	0.242687	0.029952	0.969642	0.156441	-0.987649	-0.008647	0.957408	0.153790	-0.244375
42416	9.536917	-0.080734	-2.372138	0.001471	0.000140	0.000387	0.242707	0.029930	0.969638	0.156447	-0.987648	-0.008673	0.957402	0.153802	-0.244391
42417	9.504201	-0.066305	-2.419987	-0.001576	0.001433	-0.000484	0.242714	0.029916	0.969636	0.156429	-0.987651	-0.008684	0.957403	0.153788	-0.244397
42418	9.549216	-0.081540	-2.393022	0.000690	0.001509	-0.003054	0.242717	0.029927	0.969635	0.156441	-0.987649	-0.008676	0.957400	0.153796	-0.244401
42419	9.540605	-0.086525	-2.425970	-0.000676	-0.000204	-0.003343	0.242735	0.029944	0.969630	0.156438	-0.987650	-0.008662	0.957396	0.153790	-0.244422
42420	9.519369	-0.108353	-2.380698	0.001764	0.001680	-0.001189	0.242740	0.029936	0.969629	0.156457	-0.987647	-0.008676	0.957391	0.153811	-0.244425
42421	9.519790	-0.090312	-2.437673	-0.001854	0.001197	-0.005306	0.242742	0.029970	0.969628	0.156448	-0.987648	-0.008639	0.957392	0.153794	-0.244433
42422	9.531686	-0.108716	-2.401536	-0.001576	0.001433	-0.000484	0.242751	0.029956	0.969626	0.156430	-0.987651	-0.008650	0.957393	0.153779	-0.244439
42423	9.525236	-0.060585	-2.407476	0.000398	-0.000032	-0.001478	0.242771	0.029954	0.969621	0.156434	-0.987650	-0.008657	0.957388	0.153783	-0.244458
42424	9.540773	-0.085371	-2.425350	0.000480	0.004654	-0.003249	0.242742	0.029962	0.969628	0.156440	-0.987650	-0.008645	0.957394	0.153788	-0.244431
42425	9.519572	-0.107052	-2.379947	-0.002146	-0.000344	-0.003730	0.242761	0.029982	0.969623	0.156425	-0.987652	-0.008624	0.957391	0.153767	-0.244454
42426	9.519955	-0.088985	-2.437078	0.000796	-0.000064	-0.002957	0.242779	0.029994	0.969618	0.156435	-0.987651	-0.008617	0.957385	0.153775	-0.244473
42427	9.537244	-0.078129	-2.370913	0.000585	0.003082	-0.003152	0.242766	0.030004	0.969621	0.156445	-0.987649	-0.008608	0.957387	0.153782	-0.244462
42428	9.535554	-0.113285	-2.454750	-0.001959	0.002770	-0.005404	0.242753	0.030036	0.969623	0.156435	-0.987651	-0.008570	0.957392	0.153763	-0.244454
42429	9.507857	-0.086984	-2.415436	-0.001471	-0.000140	-0.000387	0.242776	0.030024	0.969618	0.156418	-0.987654	-0.008582	0.957389	0.153749	-0.244475
42430	9.516515	-0.081710	-2.382281	-0.000608	0.003178	0.001283	0.242770	0.029990	0.969620	0.156406	-0.987655	-0.008612	0.957392	0.153746	-0.244464
42431	9.544326	-0.107539	-2.421174	0.000983	0.003050	-0.004630	0.242756	0.030015	0.969623	0.156423	-0.987653	-0.008589	0.957393	0.153757	-0.244453
42432	9.513409	-0.057264	-2.384768	0.000293	0.001541	-0.001576	0.242761	0.030011	0.969622	0.156428	-0.987652	-0.008595	0.957391	0.153762	-0.244458
42433	9.544407	-0.107157	-2.420875	0.001869	0.000108	-0.001091	0.242780	0.030005	0.969617	0.156445	-0.987649	-0.008609	0.957383	0.153781	-0.244476
42434	9.520321	-0.087322	-2.435708	0.002161	0.001649	-0.002667	0.242782	0.030011	0.969617	0.156468	-0.987646	-0.008609	0.957379	0.153804	-0.244478
42435	9.553087	-0.101554	-2.387637	-0.003047	0.001293	-0.000872	0.242790	0.030001	0.969615	0.156437	-0.987650	-0.008612	0.957382	0.153775	-0.244485
42436	9.508125	-0.086014	-2.414414	0.000398	-0.000032	-0.001478	0.242809	0.029998	0.969610	0.156440	-0.987650	-0.008619	0.957377	0.153779	-0.244503
42437	9.508183	-0.085734	-2.414195	0.000878	0.004623	-0.004727	0.242779	0.030021	0.969617	0.156456	-0.987648	-0.008595	0.957382	0.153789	-0.244478
42438	9.565448	-0.101868	-2.408314	-0.001366	-0.001713	-0.000290	0.242817	0.030010	0.969608	0.156439	-0.987650	-0.008608	0.957375	0.153775	-0.244513
42439	9.496005	-0.084421	-2.392827	-0.001787	0.004579	-0.000680	0.242794	0.029993	0.969614	0.156420	-0.987653	-0.008617	0.957384	0.153759	-0.244488
42440	9.562299	-0.077623	-2.410959	0.002267	0.000076	-0.002569	0.242811	0.030001	0.969610	0.156442	-0.987650	-0.008617	0.957376	0.153780	-0.244505
42441	9.499327	-0.108153	-2.389517	0.001763	0.001681	-0.001189	0.242815	0.029994	0.969609	0.156458	-0.987647	-0.008629	0.957372	0.153798	-0.244508
42442	9.532483	-0.104649	-2.398554	-0.002649	0.001261	-0.002350	0.242822	0.029999	0.969607	0.156434	-0.987651	-0.008619	0.957375	0.153773	-0.244516
42443	9.574626	-0.078020	-2.431771	0.000796	-0.000064	-0.002956	0.242839	0.030011	0.969602	0.156445	-0.987649	-0.008612	0.957368	0.153781	-0.244535
42444	9.475291	-0.087798	-2.404174	0.000293	0.001541	-0.001576	0.242846	0.030009	0.969601	0.156450	-0.987648	-0.008617	0.957366	0.153786	-0.244541
42445	9.544790	-0.105046	-2.419455	-0.001471	-0.000140	-0.000387	0.242868	0.029996	0.969595	0.156433	-0.987651	-0.008629	0.957363	0.153772	-0.244562
42446	9.520717	-0.085101	-2.434239	0.000983	0.003050	-0.004630	0.242855	0.030021	0.969598	0.156451	-0.987648	-0.008606	0.957364	0.153784	-0.244552
42447	9.553480	-0.099363	-2.386155	-0.000398	0.000032	0.001478	0.242878	0.029990	0.969593	0.156439	-0.987650	-0.008639	0.957359	0.153781	-0.244570
42448	9.508541	-0.083964	-2.412849	0.000187	0.003114	-0.001673	0.242869	0.029985	0.969595	0.156443	-0.987649	-0.008643	0.957361	0.153786	-0.244561
42449	9.508597	-0.083780	-2.412635	-0.001178	0.001401	-0.001963	0.242875	0.029986	0.969594	0.156433	-0.987651	-0.008641	0.957361	0.153775	-0.244566
42450	9.545019	-0.104208	-2.418590	0.000585	0.003082	-0.003152	0.242863	0.029996	0.969597	0.156441	-0.987650	-0.008631	0.957363	0.153781	-0.244556
42451	9.520566	-0.101995	-2.376191	-0.001178	0.001401	-0.001963	0.242868	0.029996	0.969595	0.156431	-0.987651	-0.008629	0.957363	0.153771	-0.244561
42452	9.529610	-0.078721	-2.400149	0.000691	0.001509	-0.003054	0.242872	0.030008	0.969594	0.156443	-0.987649	-0.008621	0.957360	0.153780	-0.244566
42453	9.521037	-0.083865	-2.433029	-0.003445	0.001325	0.000606	0.242882	0.029983	0.969592	0.156405	-0.987655	-0.008638	0.957364	0.153747	-0.244573
42454	9.526451	-0.054340	-2.402810	0.000983	0.003050	-0.004630	0.242868	0.030008	0.969595	0.156423	-0.987653	-0.008615	0.957365	0.153760	-0.244563
42455	9.517482	-0.077096	-2.378571	0.000398	-0.000032	-0.001478	0.242888	0.030005	0.969590	0.156427	-0.987652	-0.008621	0.957359	0.153764	-0.244582
42456	9.512180	-0.106215	-2.408368	-0.001389	0.004547	-0.002158	0.242863	0.030003	0.969597	0.156414	-0.987654	-0.008616	0.957367	0.153751	-0.244557
42457	9.545374	-0.102652	-2.417254	-0.001178	0.001401	-0.001963	0.242868	0.030004	0.969595	0.156404	-0.987656	-0.008614	0.957368	0.153740	-0.244563
42458	9.521315	-0.082700	-2.431981	-0.002754	0.002834	-0.002448	0.242858	0.030006	0.969598	0.156378	-0.987660	-0.008603	0.957374	0.153713	-0.244554
42459	9.533207	-0.101171	-2.395824	0.002267	0.000077	-0.002569	0.242876	0.030015	0.969593	0.156402	-0.987656	-0.008603	0.957366	0.153736	-0.244572
42460	9.550837	-0.072576	-2.386833	-0.000780	0.001369	-0.003441	0.242879	0.030030	0.969592	0.156401	-0.987656	-0.008588	0.957365	0.153731	-0.244578
42461	9.530012	-0.076779	-2.398616	-0.000504	0.001605	0.001381	0.242888	0.029998	0.969590	0.156389	-0.987658	-0.008620	0.957365	0.153727	-0.244581
42462	9.536572	-0.124780	-2.392386	0.000187	0.003114	-0.001673	0.242877	0.029992	0.969593	0.156392	-0.987657	-0.008625	0.957367	0.153732	-0.244569
42463	9.509299	-0.080743	-2.409970	-0.003933	0.004235	-0.004411	0.242851	0.030012	0.969599	0.156361	-0.987663	-0.008592	0.957379	0.153695	-0.244548
42464	9.554364	-0.095819	-2.382757	0.001658	0.003255	-0.001286	0.242840	0.030003	0.969602	0.156376	-0.987660	-0.008603	0.957379	0.153712	-0.244535
42465	9.563021	-0.090346	-2.349511	0.000691	0.001510	-0.003054	0.242843	0.030014	0.969601	0.156386	-0.987659	-0.008595	0.957377	0.153720	-0.244540
42466	9.509508	-0.080053	-2.409167	0.000187	0.003114	-0.001673	0.242832	0.030008	0.969604	0.156389	-0.987658	-0.008600	0.957379	0.153724	-0.244528
42467	9.545938	-0.100497	-2.415117	-0.002649	0.001261	-0.002351	0.242838	0.030013	0.969602	0.156366	-0.987662	-0.008590	0.957382	0.153699	-0.244535
42468	9.497336	-0.078743	-2.387730	0.001365	0.001713	0.000290	0.242844	0.029991	0.969602	0.156375	-0.987660	-0.008616	0.957379	0.153713	-0.244537
42469	9.537437	-0.105529	-2.447771	-0.000885	0.002942	-0.003539	0.242832	0.030005	0.969604	0.156371	-0.987661	-0.008599	0.957382	0.153706	-0.244528
42470	9.521581	-0.097897	-2.372291	0.000984	0.003051	-0.004630	0.242816	0.030027	0.969608	0.156383	-0.987659	-0.008576	0.957384	0.153713	-0.244515
42471	9.530645	-0.074480	-2.396171	-0.000780	0.001369	-0.003441	0.242819	0.030042	0.969606	0.156380	-0.987660	-0.008561	0.957384	0.153706	-0.244521
42472	9.558471	-0.100330	-2.435188	0.002836	0.001854	0.000678	0.242825	0.030017	0.969606	0.156404	-0.987656	-0.008594	0.957379	0.153737	-0.244522
42473	9.506612	-0.054681	-2.410789	0.000293	0.001541	-0.001576	0.242830	0.030013	0.969604	0.156406	-0.987655	-0.008599	0.957377	0.153740	-0.244526
42474	9.558136	-0.117853	-2.377769	0.000691	0.001510	-0.003054	0.242832	0.030023	0.969604	0.156413	-0.987654	-0.008590	0.957376	0.153744	-0.244530
42475	9.543087	-0.074918	-2.416574	0.000187	0.003114	-0.001673	0.242821	0.030018	0.969606	0.156415	-0.987654	-0.008594	0.957378	0.153748	-0.244519
42476	9.513263	-0.102002	-2.404271	0.001195	-0.000095	-0.004434	0.242837	0.030045	0.969602	0.156435	-0.987651	-0.008574	0.957370	0.153762	-0.244539
42477	9.525588	-0.102695	-2.425138	0.000081	0.004688	-0.001771	0.242812	0.030039	0.969608	0.156436	-0.987651	-0.008577	0.957377	0.153764	-0.244512
42478	9.519144	-0.054422	-2.430859	-0.000779	0.001369	-0.003442	0.242814	0.030053	0.969607	0.156433	-0.987651	-0.008562	0.957377	0.153758	-0.244517
42479	9.525739	-0.102080	-2.424571	-0.000991	0.004516	-0.003637	0.242787	0.030066	0.969614	0.156429	-0.987652	-0.008544	0.957384	0.153750	-0.244493
42480	9.537644	-0.120575	-2.388326	0.001869	0.000109	-0.001090	0.242806	0.030059	0.969609	0.156447	-0.987649	-0.008559	0.957376	0.153770	-0.244510
42481	9.501704	-0.082018	-2.439211	0.000691	0.001510	-0.003054	0.242809	0.030070	0.969608	0.156457	-0.987648	-0.008550	0.957374	0.153778	-0.244514
42482	9.525878	-0.101419	-2.424052	0.000585	0.003083	-0.003151	0.242795	0.030080	0.969611	0.156463	-0.987647	-0.008540	0.957376	0.153782	-0.244503
42483	9.534497	-0.095904	-2.390900	-0.002941	-0.000281	-0.000776	0.242819	0.030071	0.969605	0.156433	-0.987652	-0.008545	0.957375	0.153753	-0.244525
42484	9.522706	-0.077040	-2.426716	0.000081	0.004688	-0.001771	0.242793	0.030065	0.969612	0.156436	-0.987651	-0.008548	0.957382	0.153757	-0.244498
42485	9.546898	-0.096696	-2.411475	-0.000505	0.001605	0.001381	0.242801	0.030032	0.969611	0.156424	-0.987653	-0.008580	0.957381	0.153753	-0.244501
42486	9.513794	-0.099916	-2.402256	0.001196	-0.000095	-0.004434	0.242818	0.030060	0.969606	0.156444	-0.987650	-0.008559	0.957374	0.153767	-0.244522
42487	9.552294	-0.066941	-2.381161	0.001950	0.004797	-0.002861	0.242790	0.030064	0.969613	0.156466	-0.987646	-0.008556	0.957378	0.153788	-0.244494
42488	9.526187	-0.100501	-2.422877	0.001471	0.000141	0.000388	0.242810	0.030043	0.969608	0.156472	-0.987645	-0.008582	0.957371	0.153801	-0.244511
42489	9.519230	-0.070222	-2.371779	-0.001471	-0.000141	-0.000388	0.242833	0.030031	0.969603	0.156455	-0.987648	-0.008594	0.957368	0.153787	-0.244532
42490	9.531537	-0.071043	-2.392728	-0.001284	0.002974	-0.002061	0.242824	0.030031	0.969605	0.156446	-0.987649	-0.008590	0.957372	0.153777	-0.244523
42491	9.514026	-0.099226	-2.401364	0.001657	0.003255	-0.001286	0.242813	0.030022	0.969608	0.156461	-0.987647	-0.008601	0.957372	0.153795	-0.244510
42492	9.550474	-0.119760	-2.407272	0.000293	0.001542	-0.001576	0.242818	0.030018	0.969607	0.156465	-0.987646	-0.008606	0.957370	0.153799	-0.244515
42493	9.519415	-0.069697	-2.371053	-0.001471	-0.000141	-0.000388	0.242840	0.030006	0.969602	0.156448	-0.987649	-0.008619	0.957368	0.153785	-0.244535
42494	9.534950	-0.094369	-2.389156	-0.001745	-0.000376	-0.005210	0.242858	0.030041	0.969597	0.156440	-0.987650	-0.008584	0.957364	0.153769	-0.244558
42495	9.507620	-0.050363	-2.406907	-0.001789	0.004579	-0.000681	0.242835	0.030024	0.969603	0.156421	-0.987653	-0.008593	0.957373	0.153753	-0.244533
42496	9.535058	-0.093927	-2.388741	0.000399	-0.000031	-0.001478	0.242855	0.030022	0.969598	0.156426	-0.987652	-0.008599	0.957367	0.153759	-0.244553
42497	9.535098	-0.093754	-2.388588	0.002056	0.003224	-0.002764	0.242842	0.030028	0.969601	0.156449	-0.987649	-0.008597	0.957367	0.153781	-0.244540
42498	9.514326	-0.097866	-2.400233	-0.001284	0.002974	-0.002061	0.242833	0.030027	0.969603	0.156439	-0.987650	-0.008594	0.957371	0.153771	-0.244532
42499	9.535685	-0.075538	-2.445112	0.000585	0.003083	-0.003151	0.242821	0.030036	0.969606	0.156449	-0.987649	-0.008585	0.957372	0.153778	-0.244521
42500	9.535307	-0.093061	-2.387782	0.000293	0.001542	-0.001576	0.242825	0.030033	0.969605	0.156450	-0.987648	-0.008589	0.957371	0.153781	-0.244524
42501	9.511208	-0.073281	-2.402664	-0.001471	-0.000141	-0.000388	0.242848	0.030020	0.969600	0.156433	-0.987651	-0.008601	0.957368	0.153767	-0.244545
42502	9.514476	-0.097055	-2.399670	0.001197	-0.000094	-0.004434	0.242865	0.030048	0.969595	0.156454	-0.987648	-0.008581	0.957360	0.153781	-0.244566
42503	9.511245	-0.072905	-2.402529	-0.000611	0.003178	0.001283	0.242858	0.030014	0.969597	0.156441	-0.987650	-0.008612	0.957364	0.153777	-0.244554
42504	9.571828	-0.113150	-2.393432	-0.004624	0.002724	-0.001359	0.242851	0.030005	0.969599	0.156397	-0.987657	-0.008608	0.957373	0.153733	-0.244546
42505	9.514641	-0.096726	-2.399029	0.003234	0.001823	-0.000800	0.242854	0.029993	0.969599	0.156426	-0.987652	-0.008628	0.957368	0.153766	-0.244547
42506	9.523690	-0.073579	-2.422959	-0.001178	0.001401	-0.001964	0.242861	0.029995	0.969597	0.156417	-0.987654	-0.008625	0.957368	0.153756	-0.244554
42507	9.560140	-0.093994	-2.428881	-0.001284	0.002974	-0.002061	0.242851	0.029994	0.969600	0.156405	-0.987655	-0.008621	0.957372	0.153744	-0.244544
42508	9.499240	-0.071009	-2.380391	0.000019	0.001307	-0.006398	0.242851	0.030039	0.969598	0.156421	-0.987653	-0.008580	0.957369	0.153749	-0.244552
42509	9.527108	-0.096701	-2.419405	-0.000505	0.001605	0.001380	0.242860	0.030006	0.969597	0.156409	-0.987655	-0.008612	0.957369	0.153745	-0.244555
42510	9.539447	-0.097516	-2.440262	0.000984	0.003052	-0.004629	0.242846	0.030030	0.969600	0.156425	-0.987653	-0.008589	0.957370	0.153755	-0.244545
42511	9.535787	-0.090999	-2.385945	-0.001577	0.001432	-0.000486	0.242853	0.030016	0.969599	0.156407	-0.987655	-0.008600	0.957371	0.153741	-0.244550
42512	9.535842	-0.090814	-2.385730	0.000585	0.003084	-0.003151	0.242840	0.030026	0.969602	0.156416	-0.987654	-0.008590	0.957373	0.153747	-0.244538
42513	9.508061	-0.064666	-2.346359	0.000293	0.001542	-0.001576	0.242845	0.030022	0.969600	0.156419	-0.987653	-0.008595	0.957371	0.153751	-0.244543
42514	9.555235	-0.121619	-2.457463	0.000585	0.003084	-0.003151	0.242832	0.030031	0.969603	0.156428	-0.987652	-0.008586	0.957373	0.153759	-0.244532
42515	9.499631	-0.069534	-2.378870	0.000186	0.003115	-0.001673	0.242822	0.030026	0.969606	0.156430	-0.987652	-0.008590	0.957375	0.153762	-0.244520
42516	9.524292	-0.071197	-2.420660	-0.000991	0.004516	-0.003637	0.242795	0.030039	0.969612	0.156426	-0.987652	-0.008572	0.957383	0.153754	-0.244496
42517	9.539497	-0.113746	-2.381251	0.001258	0.003287	0.000193	0.242786	0.030015	0.969615	0.156434	-0.987651	-0.008597	0.957384	0.153768	-0.244483
42518	9.506880	-0.099234	-2.429012	-0.000779	0.001370	-0.003442	0.242789	0.030030	0.969614	0.156427	-0.987652	-0.008580	0.957384	0.153757	-0.244488
42519	9.524481	-0.070541	-2.419937	-0.000779	0.001370	-0.003442	0.242792	0.030045	0.969613	0.156424	-0.987653	-0.008565	0.957384	0.153750	-0.244494
42520	9.503225	-0.092415	-2.374634	0.001763	0.001683	-0.001187	0.242796	0.030038	0.969612	0.156439	-0.987650	-0.008577	0.957380	0.153767	-0.244496
42521	9.540141	-0.095150	-2.437638	-0.001284	0.002974	-0.002062	0.242786	0.030037	0.969615	0.156428	-0.987652	-0.008573	0.957385	0.153756	-0.244487
42522	9.548731	-0.089565	-2.404480	-0.000672	-0.000204	-0.003344	0.242805	0.030054	0.969609	0.156426	-0.987653	-0.008559	0.957380	0.153750	-0.244509
42523	9.512365	-0.068704	-2.398212	0.003526	0.003366	-0.002375	0.242791	0.030055	0.969613	0.156462	-0.987647	-0.008564	0.957378	0.153786	-0.244495
42524	9.527990	-0.093390	-2.416061	-0.002249	0.001229	-0.003830	0.242795	0.030074	0.969611	0.156444	-0.987650	-0.008541	0.957380	0.153764	-0.244501
42525	9.518980	-0.116166	-2.391999	0.000506	-0.001604	-0.001380	0.242830	0.030074	0.969603	0.156449	-0.987649	-0.008548	0.957370	0.153769	-0.244536
42526	9.548868	-0.088603	-2.403973	0.001949	0.004799	-0.002861	0.242801	0.030077	0.969610	0.156469	-0.987646	-0.008545	0.957374	0.153789	-0.244508
42527	9.507247	-0.096912	-2.427669	-0.001743	-0.000376	-0.005211	0.242819	0.030113	0.969604	0.156461	-0.987647	-0.008510	0.957371	0.153772	-0.244531
42528	9.519118	-0.115403	-2.391489	0.002727	0.003429	0.000581	0.242807	0.030084	0.969608	0.156478	-0.987645	-0.008541	0.957371	0.153796	-0.244515
42529	9.524903	-0.068276	-2.418340	0.000692	0.001511	-0.003054	0.242810	0.030096	0.969607	0.156488	-0.987643	-0.008532	0.957369	0.153803	-0.244519
42530	9.540532	-0.093055	-2.436191	-0.001684	0.003005	-0.000584	0.242801	0.030079	0.969610	0.156468	-0.987646	-0.008542	0.957374	0.153787	-0.244507
42531	9.524573	-0.085704	-2.360725	0.000186	0.003115	-0.001673	0.242790	0.030074	0.969613	0.156470	-0.987646	-0.008546	0.957377	0.153790	-0.244496
42532	9.549232	-0.087438	-2.402567	0.002056	0.003225	-0.002763	0.242776	0.030080	0.969616	0.156491	-0.987642	-0.008544	0.957377	0.153811	-0.244483
42533	9.512859	-0.066679	-2.396312	-0.001470	-0.000141	-0.000389	0.242799	0.030067	0.969611	0.156474	-0.987645	-0.008556	0.957374	0.153797	-0.244504
42534	9.561617	-0.088031	-2.423284	-0.000992	0.004516	-0.003638	0.242771	0.030078	0.969617	0.156471	-0.987646	-0.008540	0.957381	0.153791	-0.244478
42535	9.507692	-0.095496	-2.425982	0.002376	-0.001494	-0.002470	0.242804	0.030088	0.969609	0.156496	-0.987642	-0.008541	0.957369	0.153814	-0.244512
42536	9.546077	-0.062458	-2.405095	-0.003719	0.001087	-0.004219	0.242809	0.030112	0.969607	0.156468	-0.987646	-0.008511	0.957372	0.153778	-0.244521
42537	9.512980	-0.065432	-2.395865	-0.000778	0.001370	-0.003442	0.242812	0.030127	0.969605	0.156465	-0.987647	-0.008495	0.957372	0.153772	-0.244527
42538	9.528595	-0.090177	-2.413797	-0.001577	0.001432	-0.000486	0.242819	0.030113	0.969604	0.156444	-0.987650	-0.008505	0.957374	0.153754	-0.244531
42539	9.540927	-0.091056	-2.434720	0.001763	0.001684	-0.001187	0.242823	0.030105	0.969603	0.156460	-0.987648	-0.008518	0.957370	0.153773	-0.244534
42540	9.495524	-0.093358	-2.404464	-0.001071	-0.000172	-0.001867	0.242844	0.030107	0.969598	0.156450	-0.987649	-0.008516	0.957366	0.153761	-0.244555
42541	9.540479	-0.108521	-2.377556	-0.001470	-0.000141	-0.000389	0.242867	0.030094	0.969593	0.156433	-0.987652	-0.008529	0.957363	0.153747	-0.244575
42542	9.528687	-0.089579	-2.413454	0.000985	0.003053	-0.004629	0.242852	0.030119	0.969596	0.156450	-0.987649	-0.008506	0.957364	0.153759	-0.244565
42543	9.516470	-0.088338	-2.392089	0.000186	0.003116	-0.001673	0.242842	0.030114	0.969598	0.156452	-0.987649	-0.008510	0.957366	0.153762	-0.244554
42544	9.549691	-0.084641	-2.400843	-0.002462	0.004375	-0.004026	0.242815	0.030131	0.969605	0.156433	-0.987652	-0.008483	0.957376	0.153738	-0.244530
42545	9.516636	-0.087682	-2.391454	0.000692	0.001511	-0.003054	0.242818	0.030142	0.969604	0.156443	-0.987651	-0.008475	0.957374	0.153746	-0.244534
42546	9.537976	-0.065377	-2.436455	0.000293	0.001542	-0.001576	0.242823	0.030138	0.969602	0.156447	-0.987650	-0.008481	0.957372	0.153751	-0.244539
42547	9.529008	-0.088248	-2.412238	-0.001178	0.001401	-0.001964	0.242828	0.030139	0.969601	0.156436	-0.987652	-0.008478	0.957372	0.153740	-0.244545
42548	9.534325	-0.058577	-2.381934	-0.000592	0.004486	-0.005116	0.242800	0.030166	0.969607	0.156440	-0.987651	-0.008447	0.957379	0.153736	-0.244521
42549	9.558974	-0.060195	-2.423865	-0.001470	-0.000142	-0.000389	0.242823	0.030153	0.969602	0.156423	-0.987654	-0.008459	0.957376	0.153722	-0.244541
42550	9.508342	-0.091844	-2.423574	0.000186	0.003116	-0.001673	0.242812	0.030148	0.969605	0.156424	-0.987654	-0.008463	0.957379	0.153725	-0.244530
42551	9.550041	-0.082785	-2.399518	-0.001742	-0.000376	-0.005211	0.242829	0.030184	0.969599	0.156417	-0.987655	-0.008428	0.957375	0.153708	-0.244553
42552	9.516948	-0.085814	-2.390277	0.002055	0.003226	-0.002763	0.242816	0.030189	0.969602	0.156439	-0.987652	-0.008425	0.957375	0.153729	-0.244540
42553	9.524088	-0.115856	-2.441076	-0.001285	0.002974	-0.002062	0.242806	0.030188	0.969605	0.156428	-0.987654	-0.008422	0.957379	0.153718	-0.244531
42554	9.505258	-0.066787	-2.425792	0.003233	0.001826	-0.000798	0.242810	0.030177	0.969605	0.156456	-0.987649	-0.008442	0.957374	0.153751	-0.244532
42555	9.532738	-0.110322	-2.407584	-0.001285	0.002974	-0.002062	0.242800	0.030176	0.969607	0.156445	-0.987651	-0.008438	0.957378	0.153739	-0.244522
42556	9.562649	-0.082821	-2.419393	0.001256	0.003288	0.000193	0.242789	0.030151	0.969610	0.156451	-0.987649	-0.008463	0.957380	0.153752	-0.244508
42557	9.517292	-0.085255	-2.388926	-0.001684	0.003005	-0.000584	0.242782	0.030136	0.969613	0.156433	-0.987652	-0.008473	0.957385	0.153736	-0.244498
42558	9.526374	-0.061946	-2.412711	0.000985	0.003054	-0.004629	0.242768	0.030160	0.969616	0.156452	-0.987649	-0.008451	0.957385	0.153750	-0.244488
42559	9.517461	-0.084605	-2.388278	-0.000992	0.004517	-0.003638	0.242741	0.030172	0.969622	0.156447	-0.987650	-0.008433	0.957393	0.153742	-0.244463
42560	9.529819	-0.085333	-2.409136	-0.001470	-0.000142	-0.000389	0.242763	0.030159	0.969617	0.156431	-0.987653	-0.008446	0.957390	0.153728	-0.244483
42561	9.533155	-0.109193	-2.405982	0.002056	0.003227	-0.002762	0.242750	0.030164	0.969620	0.156453	-0.987649	-0.008444	0.957390	0.153750	-0.244471
42562	9.550741	-0.080512	-2.396807	-0.002248	0.001228	-0.003831	0.242755	0.030183	0.969618	0.156439	-0.987652	-0.008421	0.957391	0.153730	-0.244479
42563	9.545554	-0.109477	-2.426704	0.000693	0.001512	-0.003054	0.242757	0.030195	0.969617	0.156449	-0.987650	-0.008413	0.957388	0.153738	-0.244483
42564	9.496857	-0.087733	-2.399406	0.000293	0.001543	-0.001576	0.242762	0.030191	0.969616	0.156452	-0.987650	-0.008418	0.957387	0.153742	-0.244488
42565	9.521546	-0.089343	-2.441241	0.000878	0.004628	-0.004727	0.242733	0.030214	0.969623	0.156468	-0.987647	-0.008394	0.957392	0.153752	-0.244462
42566	9.550966	-0.079280	-2.395949	-0.000778	0.001370	-0.003443	0.242737	0.030230	0.969621	0.156466	-0.987648	-0.008378	0.957391	0.153746	-0.244469
42567	9.542484	-0.084375	-2.428852	-0.001577	0.001432	-0.000487	0.242744	0.030216	0.969620	0.156448	-0.987651	-0.008389	0.957392	0.153732	-0.244474
42568	9.530234	-0.083279	-2.407566	0.002055	0.003227	-0.002762	0.242732	0.030221	0.969623	0.156470	-0.987647	-0.008387	0.957391	0.153753	-0.244462
42569	9.530295	-0.083071	-2.407331	0.002163	0.001654	-0.002664	0.242734	0.030228	0.969622	0.156493	-0.987643	-0.008386	0.957387	0.153775	-0.244465
42570	9.554460	-0.102564	-2.392203	-0.001577	0.001432	-0.000487	0.242741	0.030214	0.969621	0.156473	-0.987647	-0.008396	0.957389	0.153758	-0.244470
42571	9.518063	-0.081839	-2.385974	0.002163	0.001654	-0.002664	0.242743	0.030222	0.969620	0.156497	-0.987643	-0.008395	0.957384	0.153780	-0.244473
42572	9.554576	-0.102133	-2.391760	-0.000992	0.004517	-0.003638	0.242717	0.030234	0.969626	0.156495	-0.987643	-0.008378	0.957391	0.153775	-0.244449
42573	9.521972	-0.087698	-2.439637	-0.000293	-0.001543	0.001576	0.242756	0.030204	0.969617	0.156484	-0.987645	-0.008412	0.957383	0.153772	-0.244483
42574	9.518195	-0.081303	-2.385467	0.000985	0.003055	-0.004629	0.242741	0.030228	0.969620	0.156503	-0.987642	-0.008391	0.957384	0.153786	-0.244472
42575	9.518236	-0.081101	-2.385307	0.003340	0.000253	-0.000700	0.242760	0.030217	0.969616	0.156533	-0.987637	-0.008412	0.957374	0.153819	-0.244489
42576	9.518257	-0.081065	-2.385226	-0.001578	0.001431	-0.000487	0.242766	0.030203	0.969614	0.156514	-0.987640	-0.008423	0.957376	0.153803	-0.244493
42577	9.518293	-0.080886	-2.385087	0.000693	0.001512	-0.003054	0.242769	0.030214	0.969613	0.156524	-0.987638	-0.008414	0.957373	0.153811	-0.244497
42578	9.518332	-0.080678	-2.384941	0.000293	0.001543	-0.001576	0.242776	0.030211	0.969612	0.156531	-0.987637	-0.008420	0.957370	0.153819	-0.244503
42579	9.518368	-0.080498	-2.384801	-0.001177	0.001401	-0.001965	0.242781	0.030212	0.969611	0.156521	-0.987639	-0.008418	0.957371	0.153808	-0.244509
42580	9.546335	-0.106210	-2.423774	0.000293	0.001543	-0.001576	0.242785	0.030207	0.969610	0.156522	-0.987639	-0.008423	0.957370	0.153810	-0.244512
42581	9.543067	-0.082065	-2.426636	0.000293	0.001543	-0.001576	0.242790	0.030204	0.969609	0.156525	-0.987638	-0.008429	0.957368	0.153814	-0.244516
42582	9.513337	-0.109332	-2.414170	-0.000030	0.006263	-0.001869	0.242750	0.030196	0.969619	0.156528	-0.987637	-0.008431	0.957377	0.153819	-0.244475
42583	9.530927	-0.080805	-2.404906	0.000400	-0.000031	-0.001478	0.242770	0.030194	0.969614	0.156532	-0.987637	-0.008437	0.957372	0.153824	-0.244494
42584	9.530984	-0.080524	-2.404687	0.000878	0.004628	-0.004727	0.242738	0.030216	0.969621	0.156542	-0.987635	-0.008411	0.957378	0.153828	-0.244467
42585	9.513551	-0.108612	-2.413360	0.000293	0.001543	-0.001576	0.242743	0.030213	0.969620	0.156545	-0.987635	-0.008416	0.957376	0.153832	-0.244471
42586	9.531120	-0.080125	-2.404162	0.001655	0.003258	-0.001284	0.242732	0.030204	0.969623	0.156561	-0.987632	-0.008428	0.957376	0.153851	-0.244459
42587	9.546803	-0.104920	-2.421988	-0.001177	0.001401	-0.001965	0.242738	0.030205	0.969622	0.156551	-0.987634	-0.008425	0.957377	0.153840	-0.244464
42588	9.498061	-0.083103	-2.394799	0.001201	-0.000092	-0.004434	0.242755	0.030233	0.969616	0.156572	-0.987631	-0.008405	0.957369	0.153855	-0.244486
42589	9.555344	-0.099160	-2.388815	-0.000508	0.001604	0.001380	0.242764	0.030200	0.969615	0.156560	-0.987632	-0.008437	0.957369	0.153851	-0.244489
42590	9.546900	-0.104328	-2.421631	0.000986	0.003055	-0.004629	0.242750	0.030224	0.969618	0.156578	-0.987630	-0.008414	0.957369	0.153863	-0.244480
42591	9.519031	-0.078156	-2.382231	0.000185	0.003116	-0.001674	0.242739	0.030219	0.969621	0.156580	-0.987629	-0.008418	0.957372	0.153867	-0.244468
42592	9.534736	-0.102908	-2.399988	-0.001285	0.002974	-0.002063	0.242729	0.030218	0.969623	0.156569	-0.987631	-0.008415	0.957376	0.153855	-0.244458
42593	9.513994	-0.107158	-2.411679	-0.000215	0.003147	-0.000196	0.242721	0.030199	0.969626	0.156564	-0.987632	-0.008432	0.957379	0.153855	-0.244447
42594	9.531555	-0.078633	-2.402486	0.000693	0.001512	-0.003054	0.242723	0.030209	0.969625	0.156574	-0.987630	-0.008424	0.957377	0.153863	-0.244450
42595	9.522604	-0.101441	-2.378204	-0.001285	0.002974	-0.002063	0.242713	0.030208	0.969628	0.156563	-0.987632	-0.008421	0.957381	0.153851	-0.244441
42596	9.531686	-0.078059	-2.401985	0.000986	0.003055	-0.004629	0.242698	0.030233	0.969631	0.156581	-0.987629	-0.008398	0.957382	0.153863	-0.244430
42597	9.547341	-0.102731	-2.419960	0.000508	-0.001604	-0.001380	0.242733	0.030232	0.969622	0.156585	-0.987629	-0.008406	0.957372	0.153868	-0.244464
42598	9.510911	-0.081902	-2.413829	0.000986	0.003055	-0.004629	0.242718	0.030060	0.969631	0.156499	-0.987641	-0.008556	0.957390	0.153823	-0.244423
42599	9.547458	-0.102068	-2.419528	-0.000992	0.004517	-0.003639	0.242691	0.030072	0.969637	0.156494	-0.987642	-0.008538	0.957398	0.153815	-0.244398
42600	9.514379	-0.105425	-2.410234	0.001069	0.000173	0.001867	0.242716	0.030037	0.969632	0.156498	-0.987641	-0.008579	0.957391	0.153828	-0.244417
42601	9.519594	-0.076129	-2.380048	0.000185	0.003116	-0.001674	0.242705	0.030032	0.969635	0.156500	-0.987641	-0.008583	0.957393	0.153831	-0.244405
42602	9.544296	-0.077860	-2.421936	0.000293	0.001543	-0.001576	0.242708	0.030028	0.969634	0.156503	-0.987640	-0.008589	0.957392	0.153835	-0.244408
42603	9.523005	-0.099837	-2.376667	0.000293	0.001543	-0.001576	0.242713	0.030024	0.969633	0.156506	-0.987640	-0.008594	0.957390	0.153839	-0.244412
42604	9.532031	-0.076574	-2.400663	0.000801	-0.000061	-0.002956	0.242731	0.030037	0.969628	0.156514	-0.987638	-0.008586	0.957384	0.153845	-0.244432
42605	9.526938	-0.105776	-2.430387	0.001039	0.006436	-0.000002	0.242691	0.030010	0.969639	0.156520	-0.987637	-0.008609	0.957393	0.153857	-0.244388
42606	9.544490	-0.077377	-2.421187	-0.001362	-0.001716	-0.000292	0.242728	0.029998	0.969630	0.156502	-0.987640	-0.008622	0.957387	0.153841	-0.244423
42607	9.508071	-0.056605	-2.415002	-0.000992	0.004517	-0.003639	0.242701	0.030010	0.969637	0.156497	-0.987641	-0.008604	0.957395	0.153833	-0.244398
42608	9.523249	-0.099097	-2.375720	0.000000	0.000000	0.000000	0.242701	0.030010	0.969637	0.156496	-0.987641	-0.008603	0.957395	0.153832	-0.244398
42609	9.511466	-0.080384	-2.411694	0.001763	0.001685	-0.001186	0.242705	0.030003	0.969636	0.156512	-0.987639	-0.008616	0.957392	0.153851	-0.244400
42610	9.523830	-0.081180	-2.432600	-0.001177	0.001401	-0.001965	0.242711	0.030003	0.969635	0.156502	-0.987640	-0.008614	0.957391	0.153841	-0.244407
42611	9.535670	-0.099576	-2.396414	-0.000777	0.001370	-0.003443	0.242715	0.030018	0.969633	0.156499	-0.987641	-0.008598	0.957391	0.153834	-0.244413
42612	9.511577	-0.079650	-2.411279	0.000693	0.001513	-0.003053	0.242717	0.030029	0.969632	0.156509	-0.987639	-0.008590	0.957389	0.153841	-0.244417
42613	9.544753	-0.076126	-2.420193	-0.000509	0.001604	0.001380	0.242726	0.029996	0.969631	0.156496	-0.987641	-0.008622	0.957389	0.153837	-0.244420
42614	9.511635	-0.079436	-2.411058	0.001202	-0.000091	-0.004433	0.242744	0.030024	0.969626	0.156517	-0.987638	-0.008602	0.957381	0.153851	-0.244442
42615	9.535823	-0.098668	-2.395844	-0.000992	0.004517	-0.003639	0.242717	0.030036	0.969632	0.156513	-0.987639	-0.008584	0.957388	0.153843	-0.244418
42616	9.535918	-0.098441	-2.395473	0.001655	0.003259	-0.001284	0.242707	0.030027	0.969635	0.156530	-0.987636	-0.008596	0.957388	0.153863	-0.244407
42617	9.532653	-0.074227	-2.398265	-0.000776	0.001370	-0.003443	0.242711	0.030042	0.969633	0.156527	-0.987636	-0.008581	0.957388	0.153856	-0.244412
42618	9.544491	-0.092556	-2.362078	-0.000776	0.001370	-0.003443	0.242715	0.030058	0.969632	0.156524	-0.987637	-0.008564	0.957387	0.153849	-0.244419
42619	9.511919	-0.078060	-2.409981	0.001763	0.001686	-0.001186	0.242719	0.030050	0.969631	0.156539	-0.987634	-0.008577	0.957383	0.153867	-0.244421
42620	9.527591	-0.102820	-2.427954	-0.002539	-0.000316	-0.002257	0.242740	0.030056	0.969626	0.156517	-0.987638	-0.008569	0.957382	0.153843	-0.244444
42621	9.532799	-0.073146	-2.397719	0.000878	0.004629	-0.004727	0.242710	0.030078	0.969632	0.156533	-0.987636	-0.008545	0.957387	0.153853	-0.244418
42622	9.527685	-0.102223	-2.427611	-0.001362	-0.001716	-0.000292	0.242748	0.030066	0.969623	0.156517	-0.987638	-0.008559	0.957380	0.153840	-0.244453
42623	9.553678	-0.068295	-2.385454	-0.000993	0.004517	-0.003639	0.242721	0.030078	0.969630	0.156512	-0.987639	-0.008542	0.957387	0.153832	-0.244428
42624	9.512122	-0.076795	-2.409222	0.002271	0.000082	-0.002566	0.242738	0.030087	0.969625	0.156538	-0.987635	-0.008542	0.957379	0.153857	-0.244447
42625	9.527820	-0.101620	-2.427104	-0.000216	0.003147	-0.000196	0.242730	0.030067	0.969628	0.156532	-0.987636	-0.008560	0.957382	0.153856	-0.244435
42626	9.515526	-0.100507	-2.405914	-0.000668	-0.000203	-0.003345	0.242749	0.030083	0.969623	0.156530	-0.987636	-0.008545	0.957377	0.153849	-0.244456
42627	9.553847	-0.067416	-2.384801	0.000585	0.003086	-0.003151	0.242736	0.030093	0.969626	0.156539	-0.987635	-0.008536	0.957379	0.153856	-0.244445
42628	9.494799	-0.104352	-2.417620	0.002272	0.000082	-0.002566	0.242755	0.030102	0.969621	0.156564	-0.987631	-0.008536	0.957370	0.153880	-0.244465
42629	9.536445	-0.095351	-2.393497	-0.004626	0.002719	-0.001366	0.242748	0.030094	0.969622	0.156519	-0.987638	-0.008532	0.957379	0.153835	-0.244458
42630	9.524720	-0.076553	-2.429265	0.003124	0.003402	-0.000894	0.242737	0.030081	0.969626	0.156547	-0.987633	-0.008551	0.957378	0.153868	-0.244444
42631	9.494970	-0.103834	-2.416971	-0.000776	0.001370	-0.003443	0.242740	0.030096	0.969624	0.156544	-0.987634	-0.008535	0.957377	0.153861	-0.244450
42632	9.536633	-0.094825	-2.392770	-0.001686	0.003004	-0.000586	0.242734	0.030080	0.969626	0.156528	-0.987637	-0.008546	0.957382	0.153848	-0.244441
42633	9.533377	-0.070636	-2.395494	0.000585	0.003087	-0.003151	0.242721	0.030090	0.969629	0.156537	-0.987635	-0.008536	0.957383	0.153855	-0.244430
42634	9.524966	-0.075646	-2.428328	-0.000776	0.001370	-0.003443	0.242724	0.030105	0.969628	0.156535	-0.987636	-0.008521	0.957383	0.153849	-0.244435
42635	9.503661	-0.097435	-2.383089	-0.000776	0.001370	-0.003443	0.242727	0.030120	0.969627	0.156532	-0.987636	-0.008506	0.957383	0.153842	-0.244441
42636	9.525037	-0.075017	-2.428067	-0.001177	0.001400	-0.001966	0.242731	0.030120	0.969626	0.156520	-0.987638	-0.008503	0.957383	0.153829	-0.244445
42637	9.516088	-0.097798	-2.403800	-0.000884	0.002944	-0.003541	0.242720	0.030133	0.969628	0.156516	-0.987639	-0.008486	0.957387	0.153822	-0.244436
42638	9.524587	-0.092155	-2.370630	-0.002538	-0.000316	-0.002258	0.242741	0.030139	0.969623	0.156492	-0.987643	-0.008478	0.957385	0.153796	-0.244458
42639	9.524571	-0.092000	-2.370701	0.005320	-0.001205	-0.001687	0.242772	0.030141	0.969615	0.156543	-0.987635	-0.008494	0.957369	0.153849	-0.244489
42640	9.536931	-0.092799	-2.391662	-0.001286	0.002974	-0.002064	0.242763	0.030140	0.969617	0.156533	-0.987636	-0.008491	0.957373	0.153838	-0.244480
42641	9.528504	-0.097946	-2.424569	0.000401	-0.000030	-0.001478	0.242783	0.030138	0.969612	0.156536	-0.987636	-0.008497	0.957368	0.153843	-0.244499
42642	9.546009	-0.069342	-2.415436	0.000585	0.003087	-0.003151	0.242772	0.030148	0.969615	0.156546	-0.987634	-0.008488	0.957369	0.153850	-0.244489
42643	9.503962	-0.095720	-2.381958	-0.000325	0.004721	-0.000294	0.242748	0.030126	0.969621	0.156540	-0.987635	-0.008504	0.957376	0.153849	-0.244462
42644	9.533841	-0.068097	-2.393720	0.000694	0.001513	-0.003053	0.242753	0.030138	0.969620	0.156552	-0.987633	-0.008496	0.957373	0.153858	-0.244469
42645	9.500740	-0.071361	-2.384531	0.000293	0.001543	-0.001576	0.242757	0.030135	0.969619	0.156554	-0.987633	-0.008501	0.957371	0.153862	-0.244473
42646	9.558069	-0.087395	-2.378347	-0.003558	0.002891	0.000501	0.242754	0.030108	0.969621	0.156519	-0.987638	-0.008518	0.957378	0.153832	-0.244465
42647	9.513151	-0.072090	-2.405300	0.002380	-0.001491	-0.002467	0.242786	0.030118	0.969612	0.156544	-0.987634	-0.008520	0.957366	0.153855	-0.244499
42648	9.533970	-0.067487	-2.393226	-0.001286	0.002974	-0.002064	0.242778	0.030118	0.969614	0.156535	-0.987636	-0.008516	0.957369	0.153846	-0.244491
42649	9.537363	-0.091364	-2.389996	-0.000108	0.001574	-0.000098	0.242785	0.030100	0.969613	0.156530	-0.987636	-0.008535	0.957368	0.153846	-0.244495
42650	9.537423	-0.091353	-2.389757	0.003124	0.003403	-0.000893	0.242775	0.030088	0.969616	0.156558	-0.987632	-0.008553	0.957366	0.153878	-0.244482
42651	9.516724	-0.095702	-2.401367	0.001545	0.004834	-0.001381	0.242748	0.030077	0.969623	0.156572	-0.987629	-0.008563	0.957371	0.153895	-0.244454
42652	9.510105	-0.047561	-2.407176	-0.001068	-0.000173	-0.001868	0.242769	0.030078	0.969618	0.156564	-0.987631	-0.008563	0.957367	0.153886	-0.244475
42653	9.537617	-0.091073	-2.388991	0.001253	0.003290	0.000194	0.242760	0.030055	0.969621	0.156572	-0.987629	-0.008588	0.957368	0.153900	-0.244462
42654	9.520199	-0.119299	-2.397827	0.001204	-0.000090	-0.004433	0.242777	0.030082	0.969616	0.156593	-0.987626	-0.008568	0.957360	0.153915	-0.244483
42655	9.534360	-0.066702	-2.391694	0.003124	0.003403	-0.000893	0.242765	0.030068	0.969619	0.156621	-0.987621	-0.008587	0.957359	0.153947	-0.244469
42656	9.529286	-0.095886	-2.421579	-0.002538	-0.000316	-0.002258	0.242786	0.030074	0.969614	0.156598	-0.987625	-0.008578	0.957357	0.153922	-0.244491
42657	9.513600	-0.070665	-2.403565	0.002674	0.000053	-0.004043	0.242801	0.030097	0.969609	0.156630	-0.987620	-0.008566	0.957348	0.153949	-0.244510
42658	9.525431	-0.089055	-2.367355	-0.001286	0.002974	-0.002064	0.242791	0.030095	0.969612	0.156618	-0.987622	-0.008563	0.957352	0.153938	-0.244499
42659	9.570991	-0.086208	-2.397151	-0.000884	0.002944	-0.003542	0.242779	0.030109	0.969614	0.156614	-0.987623	-0.008546	0.957356	0.153930	-0.244490
42660	9.483950	-0.097330	-2.390950	0.000401	-0.000030	-0.001478	0.242800	0.030106	0.969609	0.156619	-0.987622	-0.008554	0.957350	0.153936	-0.244509
42661	9.553630	-0.114142	-2.405795	-0.002864	0.004404	-0.002553	0.242775	0.030107	0.969615	0.156594	-0.987626	-0.008542	0.957360	0.153909	-0.244486
42662	9.513877	-0.069245	-2.402509	0.002966	0.001597	-0.005618	0.242775	0.030143	0.969614	0.156635	-0.987620	-0.008515	0.957354	0.153943	-0.244491
42663	9.550419	-0.089506	-2.408311	-0.003558	0.002891	0.000501	0.242770	0.030117	0.969616	0.156596	-0.987626	-0.008531	0.957361	0.153909	-0.244482
42664	9.517332	-0.092768	-2.399072	0.001096	0.001484	-0.004531	0.242772	0.030143	0.969615	0.156617	-0.987623	-0.008511	0.957357	0.153925	-0.244488
42665	9.514041	-0.068421	-2.401884	-0.002755	0.002831	-0.002455	0.242763	0.030146	0.969617	0.156593	-0.987627	-0.008500	0.957363	0.153899	-0.244480
42666	9.529809	-0.093111	-2.419626	0.000184	0.003117	-0.001674	0.242752	0.030140	0.969620	0.156597	-0.987626	-0.008505	0.957366	0.153904	-0.244468
42667	9.538308	-0.087594	-2.386360	-0.001177	0.001400	-0.001966	0.242758	0.030141	0.969619	0.156586	-0.987628	-0.008503	0.957366	0.153893	-0.244474
42668	9.517592	-0.091849	-2.398074	0.001545	0.004834	-0.001381	0.242731	0.030130	0.969626	0.156600	-0.987625	-0.008513	0.957371	0.153909	-0.244445
42669	9.550789	-0.088073	-2.406895	-0.003606	-0.000490	-0.004127	0.242751	0.030154	0.969620	0.156571	-0.987630	-0.008484	0.957370	0.153874	-0.244469
42670	9.517666	-0.091425	-2.397796	0.004300	0.002004	0.001073	0.242755	0.030123	0.969620	0.156607	-0.987624	-0.008526	0.957363	0.153919	-0.244468
42671	9.550889	-0.087853	-2.406510	-0.000993	0.004518	-0.003640	0.242728	0.030135	0.969626	0.156602	-0.987625	-0.008508	0.957371	0.153911	-0.244444
42672	9.484659	-0.094582	-2.388246	0.000402	-0.000030	-0.001478	0.242750	0.030134	0.969621	0.156608	-0.987624	-0.008514	0.957364	0.153917	-0.244465
42673	9.550983	-0.087458	-2.406148	0.000184	0.003118	-0.001674	0.242739	0.030129	0.969624	0.156610	-0.987624	-0.008518	0.957367	0.153920	-0.244454
42674	9.502213	-0.065842	-2.378813	-0.001286	0.002974	-0.002064	0.242731	0.030129	0.969626	0.156603	-0.987625	-0.008515	0.957370	0.153913	-0.244446
42675	9.506205	-0.071905	-2.432614	0.000184	0.003118	-0.001674	0.242721	0.030124	0.969628	0.156605	-0.987625	-0.008519	0.957372	0.153917	-0.244435
42676	9.509041	-0.113456	-2.372276	-0.001177	0.001400	-0.001966	0.242729	0.030125	0.969626	0.156598	-0.987626	-0.008518	0.957371	0.153909	-0.244443
42677	9.506333	-0.071456	-2.432125	-0.002864	0.004404	-0.002553	0.242705	0.030126	0.969632	0.156573	-0.987630	-0.008506	0.957382	0.153883	-0.244419
42678	9.551353	-0.086522	-2.404716	-0.000620	0.003177	0.001282	0.242699	0.030093	0.969635	0.156561	-0.987631	-0.008536	0.957385	0.153879	-0.244408
42679	9.518267	-0.089968	-2.395466	0.002164	0.001657	-0.002663	0.242701	0.030100	0.969634	0.156584	-0.987628	-0.008535	0.957381	0.153901	-0.244411
42680	9.530664	-0.090584	-2.416351	0.001096	0.001484	-0.004531	0.242703	0.030125	0.969633	0.156604	-0.987625	-0.008515	0.957377	0.153915	-0.244417
42681	9.521699	-0.113320	-2.392155	0.000694	0.001514	-0.003053	0.242706	0.030136	0.969632	0.156614	-0.987623	-0.008507	0.957375	0.153922	-0.244421
42682	9.515013	-0.065028	-2.398126	-0.000666	-0.000203	-0.003346	0.242725	0.030153	0.969626	0.156613	-0.987623	-0.008493	0.957370	0.153918	-0.244444
42683	9.542524	-0.108360	-2.380010	0.000293	0.001544	-0.001576	0.242730	0.030149	0.969625	0.156616	-0.987623	-0.008498	0.957368	0.153922	-0.244448
42684	9.497635	-0.093122	-2.406916	-0.000109	0.001574	-0.000098	0.242737	0.030131	0.969624	0.156612	-0.987623	-0.008516	0.957367	0.153922	-0.244452
42685	9.560609	-0.061921	-2.427819	0.001096	0.001484	-0.004531	0.242738	0.030156	0.969623	0.156630	-0.987621	-0.008495	0.957364	0.153934	-0.244456
42686	9.521834	-0.112353	-2.391661	-0.000402	0.000030	0.001478	0.242763	0.030125	0.969618	0.156621	-0.987622	-0.008529	0.957359	0.153933	-0.244476
42687	9.506197	-0.087288	-2.373347	0.000769	0.006206	-0.004825	0.242718	0.030146	0.969628	0.156636	-0.987620	-0.008504	0.957368	0.153943	-0.244435
42688	9.551778	-0.084483	-2.403100	0.000000	0.000000	0.000000	0.242716	0.030146	0.969629	0.156634	-0.987620	-0.008504	0.957368	0.153941	-0.244433
42689	9.518652	-0.087847	-2.394014	0.000695	0.001514	-0.003053	0.242719	0.030156	0.969628	0.156644	-0.987619	-0.008496	0.957366	0.153949	-0.244438
42690	9.527716	-0.064658	-2.417836	0.001251	0.003291	0.000195	0.242709	0.030132	0.969631	0.156650	-0.987617	-0.008520	0.957368	0.153960	-0.244423
42691	9.515414	-0.063694	-2.396571	0.000293	0.001544	-0.001576	0.242713	0.030129	0.969630	0.156652	-0.987617	-0.008525	0.957366	0.153964	-0.244427
42692	9.531168	-0.088359	-2.414448	-0.000775	0.001370	-0.003444	0.242719	0.030144	0.969628	0.156654	-0.987617	-0.008510	0.957365	0.153961	-0.244436
42693	9.531225	-0.088210	-2.414226	0.001251	0.003291	0.000195	0.242710	0.030120	0.969631	0.156661	-0.987616	-0.008535	0.957366	0.153975	-0.244423
42694	9.506555	-0.086287	-2.371950	-0.004517	0.001143	-0.001271	0.242719	0.030114	0.969629	0.156616	-0.987623	-0.008532	0.957371	0.153931	-0.244431
42695	9.547034	-0.112813	-2.431899	0.002164	0.001658	-0.002662	0.242721	0.030120	0.969628	0.156640	-0.987619	-0.008531	0.957366	0.153953	-0.244434
42696	9.539775	-0.082461	-2.380672	-0.000109	0.001574	-0.000098	0.242728	0.030102	0.969627	0.156634	-0.987620	-0.008550	0.957366	0.153952	-0.244438
42697	9.498267	-0.091153	-2.404498	0.000586	0.003088	-0.003151	0.242715	0.030111	0.969630	0.156643	-0.987618	-0.008541	0.957367	0.153959	-0.244427
42698	9.540494	-0.064313	-2.437268	-0.001286	0.002974	-0.002065	0.242706	0.030111	0.969632	0.156636	-0.987620	-0.008538	0.957371	0.153951	-0.244418
42699	9.519180	-0.086291	-2.391971	0.000293	0.001544	-0.001576	0.242711	0.030107	0.969631	0.156639	-0.987619	-0.008543	0.957369	0.153955	-0.244422
42700	9.531585	-0.086968	-2.412850	0.002566	0.001628	-0.004140	0.242711	0.030128	0.969631	0.156670	-0.987614	-0.008530	0.957364	0.153982	-0.244425
42701	9.519261	-0.085815	-2.391667	0.000293	0.001544	-0.001576	0.242716	0.030124	0.969630	0.156672	-0.987614	-0.008535	0.957362	0.153986	-0.244429
42702	9.531645	-0.086592	-2.412625	0.000402	-0.000030	-0.001478	0.242736	0.030122	0.969625	0.156675	-0.987613	-0.008541	0.957357	0.153989	-0.244449
42703	9.514261	-0.114793	-2.421500	-0.002755	0.002830	-0.002456	0.242727	0.030125	0.969627	0.156651	-0.987617	-0.008530	0.957363	0.153963	-0.244441
42704	9.540167	-0.080709	-2.379162	-0.000884	0.002944	-0.003542	0.242715	0.030139	0.969629	0.156647	-0.987618	-0.008514	0.957367	0.153956	-0.244431
42705	9.511028	-0.090119	-2.424042	-0.000775	0.001371	-0.003444	0.242718	0.030154	0.969628	0.156644	-0.987619	-0.008498	0.957367	0.153949	-0.244436
42706	9.535225	-0.109399	-2.408790	-0.001286	0.002974	-0.002065	0.242707	0.030153	0.969631	0.156630	-0.987621	-0.008494	0.957371	0.153935	-0.244426
42707	9.519550	-0.084273	-2.390571	-0.001177	0.001400	-0.001967	0.242713	0.030153	0.969629	0.156620	-0.987622	-0.008491	0.957372	0.153924	-0.244431
42708	9.516202	-0.060137	-2.393530	-0.001469	-0.000144	-0.000391	0.242735	0.030140	0.969624	0.156603	-0.987625	-0.008504	0.957369	0.153911	-0.244451
42709	9.535298	-0.108901	-2.408527	0.002274	0.000085	-0.002564	0.242752	0.030149	0.969620	0.156627	-0.987621	-0.008505	0.957361	0.153934	-0.244469
42710	9.516204	-0.059846	-2.393529	0.000402	-0.000030	-0.001478	0.242772	0.030146	0.969615	0.156631	-0.987620	-0.008512	0.957355	0.153939	-0.244488
42711	9.535357	-0.108490	-2.408309	-0.000993	0.004518	-0.003641	0.242745	0.030158	0.969621	0.156627	-0.987621	-0.008494	0.957363	0.153931	-0.244463
42712	9.498919	-0.087787	-2.402045	-0.001579	0.001430	-0.000489	0.242754	0.030145	0.969619	0.156610	-0.987624	-0.008505	0.957363	0.153917	-0.244471
42713	9.552900	-0.079722	-2.398798	0.000183	0.003118	-0.001674	0.242743	0.030139	0.969622	0.156612	-0.987624	-0.008509	0.957365	0.153920	-0.244459
42714	9.528197	-0.077789	-2.356599	-0.001469	-0.000144	-0.000391	0.242767	0.030126	0.969617	0.156596	-0.987626	-0.008522	0.957362	0.153907	-0.244480
42715	9.499027	-0.087410	-2.401631	-0.001177	0.001400	-0.001967	0.242772	0.030127	0.969615	0.156585	-0.987628	-0.008519	0.957362	0.153896	-0.244486
42716	9.547947	-0.108577	-2.428507	-0.001177	0.001400	-0.001967	0.242779	0.030127	0.969614	0.156575	-0.987629	-0.008517	0.957362	0.153885	-0.244492
42717	9.519897	-0.082553	-2.389247	0.002055	0.003233	-0.002760	0.242765	0.030133	0.969617	0.156597	-0.987626	-0.008515	0.957362	0.153907	-0.244480
42718	9.535690	-0.107100	-2.407053	-0.003713	0.001083	-0.004227	0.242769	0.030155	0.969615	0.156566	-0.987631	-0.008485	0.957366	0.153869	-0.244488
42719	9.511600	-0.087084	-2.421906	0.000988	0.003059	-0.004629	0.242755	0.030179	0.969618	0.156583	-0.987629	-0.008462	0.957367	0.153880	-0.244477
42720	9.529046	-0.058519	-2.412743	-0.000402	0.000029	0.001478	0.242778	0.030148	0.969613	0.156570	-0.987630	-0.008495	0.957363	0.153875	-0.244496
42721	9.529064	-0.058411	-2.412677	-0.000774	0.001371	-0.003444	0.242782	0.030163	0.969612	0.156567	-0.987631	-0.008480	0.957363	0.153868	-0.244501
42722	9.511695	-0.086588	-2.421554	0.000293	0.001544	-0.001576	0.242788	0.030159	0.969610	0.156571	-0.987630	-0.008486	0.957361	0.153873	-0.244507
42723	9.535860	-0.105946	-2.406433	0.000805	-0.000059	-0.002955	0.242806	0.030171	0.969606	0.156582	-0.987629	-0.008479	0.957354	0.153882	-0.244526
42724	9.520135	-0.080810	-2.388359	-0.001177	0.001400	-0.001967	0.242812	0.030173	0.969604	0.156573	-0.987630	-0.008476	0.957354	0.153872	-0.244533
42725	9.548325	-0.106217	-2.427123	-0.002060	0.004345	-0.005509	0.242784	0.030204	0.969610	0.156563	-0.987632	-0.008437	0.957363	0.153853	-0.244510
42726	9.516912	-0.056240	-2.390801	0.004298	0.002006	0.001076	0.242788	0.030173	0.969610	0.156597	-0.987626	-0.008478	0.957356	0.153896	-0.244509
42727	9.524318	-0.086427	-2.441640	-0.002755	0.002830	-0.002456	0.242779	0.030176	0.969612	0.156573	-0.987630	-0.008467	0.957363	0.153871	-0.244501
42728	9.499625	-0.084432	-2.399374	0.001762	0.001689	-0.001184	0.242783	0.030167	0.969611	0.156588	-0.987628	-0.008481	0.957359	0.153889	-0.244503
42729	9.499682	-0.084349	-2.399151	-0.001689	0.003004	-0.000588	0.242775	0.030151	0.969614	0.156570	-0.987630	-0.008491	0.957364	0.153874	-0.244493
42730	9.532886	-0.080634	-2.407925	0.000695	0.001515	-0.003053	0.242780	0.030162	0.969612	0.156584	-0.987628	-0.008484	0.957361	0.153886	-0.244499
42731	9.536297	-0.104380	-2.404769	-0.001177	0.001400	-0.001967	0.242786	0.030163	0.969611	0.156574	-0.987630	-0.008482	0.957361	0.153875	-0.244505
42732	9.550358	-0.051849	-2.398625	-0.000110	0.001574	-0.000098	0.242793	0.030145	0.969610	0.156570	-0.987630	-0.008500	0.957359	0.153876	-0.244510
42733	9.536393	-0.104153	-2.404398	0.002055	0.003233	-0.002760	0.242780	0.030150	0.969613	0.156593	-0.987627	-0.008498	0.957359	0.153898	-0.244497
42734	9.512344	-0.084306	-2.419084	-0.000993	0.004519	-0.003641	0.242753	0.030163	0.969619	0.156585	-0.987628	-0.008479	0.957367	0.153886	-0.244473
42735	9.536547	-0.103478	-2.403816	0.001208	-0.000088	-0.004432	0.242769	0.030190	0.969614	0.156604	-0.987625	-0.008459	0.957360	0.153899	-0.244493
42736	9.533171	-0.079189	-2.406846	-0.001067	-0.000174	-0.001869	0.242791	0.030193	0.969609	0.156594	-0.987627	-0.008457	0.957356	0.153888	-0.244515
42737	9.515814	-0.107438	-2.415728	0.000183	0.003119	-0.001674	0.242781	0.030188	0.969611	0.156596	-0.987626	-0.008461	0.957358	0.153892	-0.244504
42738	9.533263	-0.078759	-2.406493	-0.000774	0.001371	-0.003445	0.242785	0.030204	0.969610	0.156595	-0.987627	-0.008445	0.957357	0.153886	-0.244511
42739	9.512513	-0.082995	-2.418461	0.001872	0.000115	-0.001086	0.242804	0.030198	0.969605	0.156612	-0.987624	-0.008459	0.957350	0.153905	-0.244529
42740	9.549041	-0.103382	-2.424428	-0.001469	-0.000144	-0.000391	0.242829	0.030186	0.969599	0.156598	-0.987626	-0.008472	0.957346	0.153894	-0.244552
42741	9.524950	-0.083580	-2.439272	0.000878	0.004634	-0.004727	0.242800	0.030208	0.969606	0.156614	-0.987624	-0.008448	0.957351	0.153905	-0.244526
42742	9.536776	-0.101949	-2.402970	0.000403	-0.000029	-0.001477	0.242820	0.030206	0.969601	0.156619	-0.987623	-0.008455	0.957345	0.153911	-0.244546
42743	9.554204	-0.073375	-2.393800	0.000183	0.003119	-0.001674	0.242810	0.030201	0.969604	0.156621	-0.987623	-0.008459	0.957347	0.153914	-0.244534
42744	9.512704	-0.082077	-2.417743	-0.001067	-0.000174	-0.001869	0.242830	0.030203	0.969599	0.156612	-0.987624	-0.008458	0.957343	0.153904	-0.244555
42745	9.524489	-0.100552	-2.381596	0.000293	0.001545	-0.001576	0.242835	0.030199	0.969597	0.156615	-0.987624	-0.008463	0.957342	0.153908	-0.244559
42746	9.533546	-0.077277	-2.405421	-0.001286	0.002974	-0.002065	0.242824	0.030197	0.969600	0.156603	-0.987625	-0.008461	0.957346	0.153897	-0.244549
42747	9.516235	-0.105452	-2.414157	0.000585	0.003089	-0.003151	0.242812	0.030207	0.969603	0.156612	-0.987624	-0.008451	0.957348	0.153904	-0.244538
42748	9.533680	-0.076842	-2.404904	0.001762	0.001689	-0.001184	0.242817	0.030199	0.969602	0.156628	-0.987621	-0.008464	0.957344	0.153922	-0.244541
42749	9.516350	-0.104987	-2.413723	-0.003822	0.002656	-0.004326	0.242807	0.030221	0.969604	0.156597	-0.987627	-0.008432	0.957352	0.153885	-0.244535
42750	9.512988	-0.080730	-2.416671	0.005323	-0.001199	-0.001682	0.242837	0.030222	0.969596	0.156649	-0.987618	-0.008449	0.957336	0.153938	-0.244564
42751	9.513030	-0.080660	-2.416509	-0.001799	0.004577	-0.000686	0.242814	0.030205	0.969603	0.156629	-0.987621	-0.008458	0.957345	0.153922	-0.244539
42752	9.524851	-0.099222	-2.380202	0.001872	0.000115	-0.001086	0.242832	0.030199	0.969598	0.156644	-0.987619	-0.008471	0.957338	0.153939	-0.244556
42753	9.513126	-0.080303	-2.416141	-0.000481	0.002916	-0.005020	0.242818	0.030227	0.969601	0.156648	-0.987618	-0.008441	0.957340	0.153935	-0.244547
42754	9.549716	-0.100392	-2.421892	-0.001176	0.001400	-0.001967	0.242823	0.030226	0.969600	0.156635	-0.987620	-0.008439	0.957341	0.153923	-0.244551
42755	9.509211	-0.073595	-2.361710	-0.000110	0.001574	-0.000098	0.242829	0.030208	0.969599	0.156630	-0.987621	-0.008458	0.957340	0.153922	-0.244555
42756	9.525626	-0.080736	-2.436727	0.003341	0.000260	-0.000694	0.242847	0.030198	0.969594	0.156659	-0.987616	-0.008478	0.957331	0.153955	-0.244571
42757	9.546432	-0.076117	-2.424527	-0.000884	0.002945	-0.003543	0.242835	0.030211	0.969597	0.156655	-0.987617	-0.008461	0.957335	0.153947	-0.244561
42758	9.512714	-0.097262	-2.358227	0.001359	0.001719	0.000294	0.242843	0.030189	0.969596	0.156667	-0.987615	-0.008488	0.957331	0.153965	-0.244565
42759	9.546545	-0.075848	-2.424088	-0.002756	0.002830	-0.002457	0.242834	0.030192	0.969598	0.156643	-0.987619	-0.008478	0.957337	0.153939	-0.244556
42760	9.516852	-0.103188	-2.411821	-0.001689	0.003003	-0.000588	0.242827	0.030177	0.969600	0.156624	-0.987622	-0.008487	0.957342	0.153924	-0.244547
42761	9.525283	-0.097658	-2.378539	0.000696	0.001516	-0.003053	0.242829	0.030188	0.969599	0.156634	-0.987620	-0.008479	0.957340	0.153931	-0.244552
42762	9.501170	-0.077807	-2.393470	-0.000774	0.001371	-0.003445	0.242833	0.030204	0.969598	0.156634	-0.987621	-0.008463	0.957339	0.153927	-0.244558
42763	9.513598	-0.078430	-2.414344	0.002165	0.001660	-0.002661	0.242835	0.030211	0.969597	0.156657	-0.987617	-0.008462	0.957335	0.153949	-0.244561
42764	9.529438	-0.103042	-2.432107	0.002457	0.003205	-0.004237	0.242821	0.030230	0.969600	0.156689	-0.987612	-0.008448	0.957333	0.153977	-0.244549
42765	9.522105	-0.072387	-2.380765	-0.003822	0.002656	-0.004327	0.242810	0.030252	0.969602	0.156659	-0.987617	-0.008417	0.957341	0.153940	-0.244543
42766	9.513767	-0.077547	-2.413706	-0.000403	0.000029	0.001477	0.242834	0.030220	0.969597	0.156647	-0.987618	-0.008450	0.957336	0.153937	-0.244562
42767	9.517195	-0.101523	-2.410536	0.000182	0.003119	-0.001674	0.242824	0.030215	0.969600	0.156649	-0.987618	-0.008454	0.957339	0.153940	-0.244550
42768	9.550426	-0.097848	-2.419197	0.001652	0.003264	-0.001282	0.242814	0.030206	0.969603	0.156665	-0.987615	-0.008466	0.957339	0.153959	-0.244539
42769	9.529724	-0.102085	-2.431027	-0.000773	0.001371	-0.003445	0.242817	0.030221	0.969601	0.156662	-0.987616	-0.008450	0.957338	0.153952	-0.244545
42770	9.513977	-0.076921	-2.412900	-0.001176	0.001400	-0.001968	0.242822	0.030222	0.969600	0.156654	-0.987617	-0.008448	0.957339	0.153943	-0.244550
42771	9.538204	-0.096302	-2.397530	0.001541	0.004838	-0.001380	0.242795	0.030211	0.969607	0.156668	-0.987615	-0.008459	0.957343	0.153960	-0.244522
42772	9.493350	-0.080969	-2.424443	-0.002132	-0.000348	-0.003739	0.242815	0.030231	0.969601	0.156653	-0.987618	-0.008437	0.957340	0.153940	-0.244544
42773	9.550709	-0.096656	-2.418125	0.000072	0.004693	-0.001772	0.242789	0.030225	0.969608	0.156654	-0.987617	-0.008440	0.957347	0.153942	-0.244518
42774	9.501864	-0.075175	-2.390798	0.000182	0.003119	-0.001674	0.242780	0.030220	0.969611	0.156658	-0.987617	-0.008444	0.957348	0.153947	-0.244508
42775	9.554241	-0.120412	-2.414568	0.003341	0.000261	-0.000693	0.242799	0.030210	0.969606	0.156688	-0.987612	-0.008465	0.957339	0.153981	-0.244524
42776	9.523343	-0.052797	-2.435531	-0.001287	0.002974	-0.002066	0.242787	0.030207	0.969609	0.156673	-0.987614	-0.008462	0.957344	0.153966	-0.244512
42777	9.517791	-0.099628	-2.408261	0.000696	0.001516	-0.003053	0.242789	0.030218	0.969608	0.156683	-0.987613	-0.008454	0.957342	0.153973	-0.244517
42778	9.538605	-0.094922	-2.395991	-0.001287	0.002974	-0.002066	0.242779	0.030218	0.969611	0.156670	-0.987615	-0.008450	0.957347	0.153961	-0.244506
42779	9.530303	-0.100055	-2.428840	0.002165	0.001661	-0.002661	0.242781	0.030224	0.969610	0.156694	-0.987611	-0.008449	0.957342	0.153983	-0.244509
42780	9.535326	-0.070607	-2.398561	-0.000221	0.003148	-0.000197	0.242772	0.030205	0.969613	0.156688	-0.987612	-0.008466	0.957346	0.153982	-0.244497
42781	9.505601	-0.097907	-2.386459	-0.003601	-0.000493	-0.004131	0.242792	0.030229	0.969607	0.156660	-0.987617	-0.008437	0.957345	0.153947	-0.244521
42782	9.517978	-0.098601	-2.407564	0.001579	-0.001429	0.000490	0.242829	0.030210	0.969599	0.156671	-0.987615	-0.008466	0.957334	0.153964	-0.244555
42783	9.538755	-0.094108	-2.395426	0.000182	0.003119	-0.001674	0.242819	0.030205	0.969601	0.156673	-0.987614	-0.008470	0.957336	0.153967	-0.244543
42784	9.518053	-0.098410	-2.407275	-0.003048	0.001284	-0.000883	0.242827	0.030194	0.969600	0.156642	-0.987619	-0.008474	0.957339	0.153938	-0.244550
42785	9.523049	-0.068961	-2.377085	0.001762	0.001690	-0.001183	0.242831	0.030186	0.969599	0.156658	-0.987616	-0.008487	0.957336	0.153956	-0.244553
42786	9.538885	-0.093731	-2.394921	0.000293	0.001545	-0.001576	0.242836	0.030183	0.969598	0.156661	-0.987616	-0.008492	0.957334	0.153961	-0.244557
42787	9.523145	-0.068639	-2.376709	0.000586	0.003090	-0.003151	0.242823	0.030192	0.969601	0.156671	-0.987614	-0.008483	0.957335	0.153968	-0.244546
42788	9.497514	-0.102120	-2.418516	0.002458	0.003206	-0.004236	0.242806	0.030212	0.969604	0.156698	-0.987610	-0.008466	0.957335	0.153991	-0.244532
42789	9.518343	-0.097236	-2.406179	-0.003821	0.002655	-0.004328	0.242796	0.030234	0.969606	0.156668	-0.987615	-0.008435	0.957343	0.153954	-0.244526
42790	9.551517	-0.093528	-2.415057	0.004517	-0.001139	0.001275	0.242831	0.030206	0.969598	0.156703	-0.987609	-0.008479	0.957328	0.153998	-0.244555
42791	9.505965	-0.096151	-2.385082	-0.000773	0.001371	-0.003445	0.242834	0.030221	0.969597	0.156700	-0.987610	-0.008463	0.957328	0.153991	-0.244561
42792	9.497649	-0.101287	-2.418022	-0.001580	0.001429	-0.000491	0.242842	0.030206	0.969596	0.156681	-0.987613	-0.008475	0.957329	0.153976	-0.244566
42793	9.535792	-0.068234	-2.396775	0.002165	0.001661	-0.002661	0.242843	0.030213	0.969595	0.156705	-0.987609	-0.008474	0.957325	0.153998	-0.244569
42794	9.526832	-0.091261	-2.372580	0.001358	0.001719	0.000294	0.242851	0.030191	0.969594	0.156714	-0.987607	-0.008499	0.957321	0.154013	-0.244573
42795	9.518522	-0.096506	-2.405496	0.000696	0.001516	-0.003053	0.242854	0.030202	0.969593	0.156725	-0.987606	-0.008491	0.957319	0.154021	-0.244577
42796	9.539333	-0.091762	-2.393214	0.000585	0.003090	-0.003151	0.242840	0.030211	0.969596	0.156731	-0.987605	-0.008482	0.957321	0.154025	-0.244565
42797	9.551808	-0.092386	-2.413949	-0.004628	0.002713	-0.001374	0.242833	0.030204	0.969598	0.156686	-0.987612	-0.008477	0.957330	0.153981	-0.244558
42798	9.506282	-0.094888	-2.383867	0.000403	-0.000029	-0.001477	0.242758	0.030125	0.969619	0.156554	-0.987633	-0.008510	0.957371	0.153864	-0.244472
42799	9.536035	-0.067063	-2.395841	0.001210	-0.000087	-0.004432	0.242774	0.030152	0.969614	0.156572	-0.987630	-0.008490	0.957364	0.153876	-0.244491
42800	9.518689	-0.095252	-2.404886	0.000403	-0.000029	-0.001477	0.242793	0.030150	0.969610	0.156574	-0.987630	-0.008496	0.957359	0.153879	-0.244510
42801	9.551885	-0.091501	-2.413678	0.002054	0.003236	-0.002759	0.242779	0.030156	0.969613	0.156597	-0.987626	-0.008494	0.957359	0.153900	-0.244498
42802	9.527135	-0.089548	-2.371431	0.000293	0.001545	-0.001576	0.242785	0.030151	0.969611	0.156600	-0.987626	-0.008500	0.957357	0.153905	-0.244503
42803	9.518827	-0.094722	-2.404364	-0.001176	0.001400	-0.001968	0.242791	0.030152	0.969610	0.156590	-0.987627	-0.008498	0.957357	0.153894	-0.244508
42804	9.536207	-0.066156	-2.395182	-0.000111	0.001574	-0.000098	0.242797	0.030133	0.969609	0.156586	-0.987628	-0.008518	0.957356	0.153895	-0.244511
42805	9.506496	-0.093513	-2.383068	0.001100	0.001488	-0.004530	0.242797	0.030158	0.969608	0.156603	-0.987625	-0.008496	0.957353	0.153907	-0.244515
42806	9.552060	-0.090658	-2.413016	0.001580	-0.001429	0.000491	0.242833	0.030138	0.969600	0.156615	-0.987623	-0.008525	0.957342	0.153924	-0.244547
42807	9.518922	-0.094263	-2.404004	-0.003563	0.002886	0.000496	0.242828	0.030112	0.969602	0.156575	-0.987629	-0.008541	0.957350	0.153890	-0.244539
42808	9.531421	-0.094981	-2.424654	0.000475	0.004665	-0.003250	0.242799	0.030118	0.969609	0.156584	-0.987628	-0.008532	0.957356	0.153897	-0.244511
42809	9.539856	-0.089364	-2.391217	-0.001287	0.002974	-0.002066	0.242789	0.030117	0.969611	0.156573	-0.987630	-0.008529	0.957360	0.153885	-0.244501
42810	9.515776	-0.069525	-2.406019	0.000989	0.003062	-0.004629	0.242773	0.030141	0.969615	0.156588	-0.987627	-0.008506	0.957362	0.153895	-0.244489
42811	9.535062	-0.118071	-2.420752	0.002165	0.001662	-0.002660	0.242775	0.030147	0.969614	0.156611	-0.987624	-0.008506	0.957357	0.153917	-0.244492
42812	9.519264	-0.092933	-2.402699	-0.000662	-0.000203	-0.003347	0.242794	0.030164	0.969609	0.156609	-0.987624	-0.008491	0.957353	0.153911	-0.244513
42813	9.540064	-0.088138	-2.390433	-0.002867	0.004403	-0.002557	0.242770	0.030165	0.969615	0.156584	-0.987628	-0.008479	0.957363	0.153885	-0.244490
42814	9.498649	-0.097028	-2.414264	0.004296	0.002010	0.001079	0.242775	0.030135	0.969615	0.156618	-0.987622	-0.008520	0.957356	0.153928	-0.244489
42815	9.540162	-0.088050	-2.390045	-0.002534	-0.000320	-0.002262	0.242796	0.030140	0.969609	0.156595	-0.987626	-0.008512	0.957355	0.153903	-0.244511
42816	9.531862	-0.093255	-2.422986	-0.000222	0.003148	-0.000197	0.242788	0.030121	0.969612	0.156589	-0.987627	-0.008529	0.957358	0.153901	-0.244500
42817	9.512041	-0.062028	-2.350620	0.002054	0.003236	-0.002759	0.242774	0.030126	0.969615	0.156612	-0.987623	-0.008527	0.957358	0.153923	-0.244488
42818	9.560253	-0.118798	-2.461367	-0.002094	0.003032	0.000888	0.242769	0.030096	0.969617	0.156585	-0.987627	-0.008550	0.957363	0.153904	-0.244477
42819	9.527993	-0.086687	-2.368086	0.000697	0.001517	-0.003053	0.242771	0.030107	0.969616	0.156595	-0.987626	-0.008542	0.957361	0.153911	-0.244482
42820	9.519698	-0.091798	-2.401023	-0.001176	0.001400	-0.001968	0.242777	0.030107	0.969615	0.156585	-0.987628	-0.008540	0.957361	0.153900	-0.244487
42821	9.561223	-0.082672	-2.376740	0.000293	0.001545	-0.001576	0.242781	0.030103	0.969614	0.156588	-0.987627	-0.008545	0.957360	0.153904	-0.244491
42822	9.511463	-0.096826	-2.433737	0.000182	0.003120	-0.001674	0.242771	0.030098	0.969617	0.156589	-0.987627	-0.008549	0.957362	0.153907	-0.244480
42823	9.540558	-0.086830	-2.388510	0.002387	-0.001486	-0.002463	0.242803	0.030108	0.969608	0.156614	-0.987623	-0.008551	0.957350	0.153931	-0.244513
42824	9.519856	-0.091168	-2.400421	0.001540	0.004839	-0.001380	0.242776	0.030097	0.969615	0.156628	-0.987621	-0.008562	0.957354	0.153948	-0.244485
42825	9.553092	-0.087391	-2.409047	0.000697	0.001517	-0.003053	0.242779	0.030108	0.969614	0.156638	-0.987619	-0.008553	0.957352	0.153955	-0.244489
42826	9.532369	-0.091562	-2.421057	-0.000661	-0.000203	-0.003347	0.242798	0.030124	0.969609	0.156636	-0.987619	-0.008539	0.957348	0.153949	-0.244510
42827	9.519989	-0.090399	-2.399923	-0.001287	0.002974	-0.002067	0.242788	0.030123	0.969612	0.156625	-0.987621	-0.008536	0.957352	0.153938	-0.244500
42828	9.523476	-0.114184	-2.396623	-0.003160	0.002857	-0.000982	0.242781	0.030111	0.969614	0.156593	-0.987626	-0.008539	0.957359	0.153908	-0.244492
42829	9.511775	-0.095582	-2.432567	0.004406	0.000437	0.001178	0.242800	0.030082	0.969610	0.156628	-0.987620	-0.008581	0.957348	0.153952	-0.244506
42830	9.540882	-0.085575	-2.387262	-0.001948	0.002771	-0.005414	0.242787	0.030114	0.969612	0.156619	-0.987622	-0.008543	0.957353	0.153934	-0.244499
42831	9.536066	-0.114450	-2.416967	-0.000994	0.004520	-0.003642	0.242760	0.030126	0.969618	0.156614	-0.987623	-0.008525	0.957361	0.153925	-0.244474
42832	9.516852	-0.065357	-2.401878	0.000515	-0.001603	-0.001379	0.242795	0.030125	0.969610	0.156618	-0.987622	-0.008533	0.957351	0.153930	-0.244508
42833	9.558333	-0.056203	-2.377730	0.000697	0.001517	-0.003053	0.242798	0.030136	0.969609	0.156628	-0.987621	-0.008525	0.957349	0.153938	-0.244513
42834	9.547885	-0.132424	-2.380582	0.000293	0.001546	-0.001576	0.242803	0.030132	0.969608	0.156631	-0.987620	-0.008530	0.957347	0.153942	-0.244517
42835	9.506446	-0.141276	-2.404579	0.001761	0.001691	-0.001183	0.242807	0.030125	0.969607	0.156647	-0.987618	-0.008543	0.957344	0.153960	-0.244519
42836	9.522335	-0.166019	-2.422360	0.008848	0.002188	-0.004043	0.242801	0.030144	0.969608	0.156737	-0.987603	-0.008545	0.957330	0.154048	-0.244516
42837	9.522389	-0.166015	-2.422149	0.021517	0.001724	-0.003757	0.242801	0.030162	0.969607	0.156948	-0.987570	-0.008581	0.957296	0.154262	-0.244516
42838	9.525887	-0.190039	-2.418808	0.028897	0.003767	-0.008193	0.242774	0.030220	0.969612	0.157241	-0.987523	-0.008592	0.957255	0.154549	-0.244496
42839	9.543265	-0.161428	-2.409537	0.041532	-0.000076	-0.012534	0.242777	0.030327	0.969608	0.157665	-0.987455	-0.008592	0.957184	0.154959	-0.244513
42840	9.506742	-0.141156	-2.403415	0.047845	0.003865	-0.007815	0.242749	0.030381	0.969613	0.158138	-0.987379	-0.008653	0.957113	0.155433	-0.244490
42841	9.522686	-0.166239	-2.420965	0.054384	0.002587	-0.013925	0.242724	0.030497	0.969616	0.158688	-0.987291	-0.008671	0.957028	0.155971	-0.244479
42842	9.569664	-0.258506	-2.417202	0.059599	0.002973	-0.015703	0.242693	0.030631	0.969619	0.159292	-0.987193	-0.008684	0.956936	0.156561	-0.244464
42843	9.527734	-0.136840	-2.390316	0.079469	0.001448	-0.018179	0.242672	0.030791	0.969620	0.160093	-0.987063	-0.008722	0.956807	0.157346	-0.244462
42844	9.560952	-0.133512	-2.398991	0.080535	0.001635	-0.016312	0.242652	0.030933	0.969620	0.160899	-0.986932	-0.008781	0.956677	0.158142	-0.244458
42845	9.539624	-0.155882	-2.353540	0.094308	0.002676	-0.020563	0.242615	0.031115	0.969623	0.161847	-0.986776	-0.008832	0.956527	0.159073	-0.244443
42846	9.491326	-0.117423	-2.383701	0.099345	-0.000045	-0.020663	0.242604	0.031302	0.969620	0.162843	-0.986612	-0.008894	0.956360	0.160054	-0.244454
42847	9.556300	-0.164149	-2.427995	0.114475	0.002726	-0.024628	0.242560	0.031523	0.969624	0.163994	-0.986421	-0.008955	0.956175	0.161184	-0.244436
42848	9.539158	-0.193243	-2.436294	0.130784	0.004114	-0.026625	0.242499	0.031762	0.969632	0.165305	-0.986201	-0.009036	0.955965	0.162476	-0.244403
42849	9.534463	-0.223013	-2.465534	0.113566	0.002296	-0.032811	0.242445	0.032066	0.969635	0.166466	-0.986006	-0.009016	0.955777	0.163597	-0.244390
42850	9.571930	-0.206824	-2.386877	0.132409	0.004028	-0.032550	0.242374	0.032363	0.969643	0.167806	-0.985779	-0.009044	0.955561	0.164904	-0.244358
42851	9.502950	-0.172922	-2.428972	0.140020	0.002949	-0.036795	0.242306	0.032704	0.969649	0.169229	-0.985535	-0.009049	0.955327	0.166285	-0.244335
42852	9.535576	-0.186316	-2.380115	0.146419	0.001980	-0.036608	0.242247	0.033045	0.969652	0.170712	-0.985279	-0.009071	0.955078	0.167729	-0.244322
42853	9.549195	0.014458	-2.382347	0.165733	0.008393	-0.039641	0.242121	0.033405	0.969671	0.172387	-0.984987	-0.009112	0.954809	0.169365	-0.244245
42854	9.532841	-0.331073	-2.514299	0.174755	0.002801	-0.041689	0.242044	0.033794	0.969677	0.174152	-0.984676	-0.009154	0.954508	0.171087	-0.244220
42855	9.520198	-0.161193	-2.360285	0.132875	0.005398	-0.040491	0.241944	0.034166	0.969688	0.175514	-0.984435	-0.009106	0.954284	0.172397	-0.244175
42856	9.537548	-0.132169	-2.351119	0.179987	0.003277	-0.043496	0.241858	0.034572	0.969695	0.177333	-0.984108	-0.009144	0.953969	0.174170	-0.244146
42857	9.509889	-0.089404	-2.369652	0.193078	0.002890	-0.044707	0.241773	0.034991	0.969702	0.179278	-0.983755	-0.009201	0.953627	0.176071	-0.244119
42858	9.546707	-0.110024	-2.374548	0.204991	0.003888	-0.047905	0.241672	0.035438	0.969711	0.181345	-0.983376	-0.009257	0.953262	0.178089	-0.244081
42859	9.562346	-0.173126	-2.474438	0.197137	0.004764	-0.048515	0.241561	0.035891	0.969722	0.183337	-0.983006	-0.009288	0.952909	0.180029	-0.244036
42860	9.520506	-0.199288	-2.440140	0.200066	0.001705	-0.052339	0.241471	0.036385	0.969726	0.185365	-0.982626	-0.009288	0.952540	0.181996	-0.244020
42861	9.561594	-0.226921	-2.498653	0.186623	0.003449	-0.056105	0.241356	0.036914	0.969734	0.187274	-0.982264	-0.009219	0.952195	0.183831	-0.243988
42862	9.534810	-0.107433	-2.351444	0.198504	0.003234	-0.052888	0.241248	0.037411	0.969742	0.189288	-0.981878	-0.009211	0.951824	0.185782	-0.243957
42863	9.509669	0.059390	-2.377625	0.231513	0.004934	-0.052010	0.241124	0.037896	0.969754	0.191612	-0.981427	-0.009291	0.951391	0.188057	-0.243907
42864	9.563916	-0.359637	-2.542387	0.227275	0.004153	-0.059502	0.240993	0.038456	0.969765	0.193913	-0.980975	-0.009288	0.950958	0.190289	-0.243865
42865	9.533362	-0.215330	-2.399606	0.174514	0.002363	-0.057814	0.240880	0.039002	0.969771	0.195708	-0.980619	-0.009173	0.950618	0.192001	-0.243845
42866	9.488357	0.063449	-2.190718	0.251609	0.003424	-0.060864	0.240750	0.039576	0.969780	0.198242	-0.980110	-0.009216	0.950126	0.194470	-0.243807
42867	9.536690	-0.075579	-2.464035	0.254449	0.005425	-0.060253	0.240601	0.040140	0.969794	0.200800	-0.979588	-0.009272	0.949627	0.196965	-0.243750
42868	9.578720	-0.267845	-2.451702	0.218612	0.000673	-0.055371	0.240506	0.040665	0.969796	0.203004	-0.979134	-0.009288	0.949182	0.199107	-0.243742
42869	9.475997	0.002199	-2.391928	0.237108	0.003874	-0.060143	0.240369	0.041230	0.969806	0.205395	-0.978635	-0.009302	0.948702	0.201429	-0.243702
42870	9.526204	-0.222018	-2.428245	0.234880	0.005066	-0.064038	0.240211	0.041830	0.969819	0.207773	-0.978133	-0.009274	0.948224	0.203730	-0.243650
42871	9.518965	-0.173986	-2.435991	0.237951	0.000437	-0.067701	0.240088	0.042476	0.969821	0.210187	-0.977618	-0.009217	0.947723	0.206057	-0.243642
42872	9.481011	-0.222410	-2.396852	0.218063	0.001842	-0.065252	0.239956	0.043094	0.969827	0.212406	-0.977139	-0.009135	0.947262	0.208189	-0.243624
42873	9.539079	0.115762	-2.249392	0.250568	0.005397	-0.063095	0.239793	0.043683	0.969841	0.214926	-0.976587	-0.009153	0.946734	0.210639	-0.243567
42874	9.541372	-0.098529	-2.456092	0.299806	0.006976	-0.069026	0.239600	0.044327	0.969859	0.217925	-0.975922	-0.009234	0.946097	0.213569	-0.243491
42875	9.599038	-0.154126	-2.529808	0.249964	0.005279	-0.066511	0.239428	0.044949	0.969873	0.220444	-0.975356	-0.009217	0.945557	0.216010	-0.243436
42876	9.473978	-0.188713	-2.343654	0.243826	0.003138	-0.066457	0.239274	0.045574	0.969882	0.222904	-0.974797	-0.009186	0.945019	0.218389	-0.243402
42877	9.575122	-0.012469	-2.299885	0.258175	0.006244	-0.067619	0.239086	0.046204	0.969898	0.225501	-0.974200	-0.009179	0.944451	0.220908	-0.243337
42878	9.446150	-0.146638	-2.362905	0.288665	0.003241	-0.067153	0.238926	0.046835	0.969908	0.228383	-0.973527	-0.009250	0.943798	0.223721	-0.243298
42879	9.555263	-0.045990	-2.450103	0.263986	0.008751	-0.066326	0.238714	0.047446	0.969930	0.231028	-0.972903	-0.009268	0.943208	0.226294	-0.243207
42880	9.500842	-0.124389	-2.416601	0.296897	0.004274	-0.068278	0.238539	0.048085	0.969942	0.233987	-0.972195	-0.009348	0.942523	0.229183	-0.243157
42881	9.595913	-0.284875	-2.655938	0.261111	0.005032	-0.071682	0.238346	0.048755	0.969956	0.236614	-0.971559	-0.009308	0.941916	0.231723	-0.243103
42882	9.509824	-0.102544	-2.440878	0.248563	0.003752	-0.071820	0.238163	0.049428	0.969967	0.239122	-0.970946	-0.009235	0.941328	0.234139	-0.243063
42883	9.491523	-0.183353	-2.213258	0.275624	0.006736	-0.072763	0.237948	0.050104	0.969985	0.241885	-0.970261	-0.009219	0.940677	0.236818	-0.242991
