// General information: 
//  MT Manager version: 2019.2.0 
//  XDA version: 2019.2.0 build 3853 rev 94535 built on 2019-09-09
// Device information: 
//  DeviceId: 00B44058
//  ProductCode: MTW2-3A7G6
//  Firmware Version: 4.3.5
//  Hardware Version: 1.1.0
// Device settings: 
//  Filter Profile: human(46.1)
//  Option Flags: Orientation Smoother Disabled, AHS Disabled, ICC Disabled
// Coordinate system: ENU
PacketCounter	Acc_X	Acc_Y	Acc_Z	Gyr_X	Gyr_Y	Gyr_Z	Mat[1][1]	Mat[2][1]	Mat[3][1]	Mat[1][2]	Mat[2][2]	Mat[3][2]	Mat[1][3]	Mat[2][3]	Mat[3][3]
42075	9.439543	-0.272544	2.588703	-0.002237	0.002956	0.005851	-0.207948	-0.166971	0.963783	0.542809	-0.839379	-0.028300	0.813705	0.517265	0.265181
42076	9.398407	-0.263014	2.588891	-0.002983	0.003941	0.007801	-0.207950	-0.166992	0.963779	0.542805	-0.839381	-0.028319	0.813707	0.517256	0.265193
42077	9.379943	-0.278942	2.584541	-0.000420	0.003274	0.002541	-0.207975	-0.166965	0.963779	0.542811	-0.839379	-0.028280	0.813697	0.517268	0.265200
42078	9.445269	-0.249873	2.613274	-0.004795	0.000405	0.004854	-0.207965	-0.166943	0.963785	0.542786	-0.839395	-0.028275	0.813716	0.517249	0.265179
42079	9.379817	-0.279995	2.584884	-0.001493	0.003579	0.007029	-0.207968	-0.166956	0.963782	0.542792	-0.839391	-0.028282	0.813711	0.517251	0.265189
42080	9.439109	-0.275457	2.589976	-0.002980	0.002332	0.004672	-0.207976	-0.166942	0.963782	0.542781	-0.839398	-0.028269	0.813716	0.517244	0.265188
42081	9.389967	-0.297896	2.599830	-0.001819	0.001290	0.006438	-0.207964	-0.166938	0.963786	0.542783	-0.839397	-0.028272	0.813718	0.517247	0.265175
42082	9.397951	-0.266421	2.590200	-0.002236	0.002955	0.005851	-0.207967	-0.166937	0.963785	0.542781	-0.839398	-0.028269	0.813719	0.517245	0.265177
42083	9.410217	-0.275964	2.571407	-0.002236	0.002955	0.005851	-0.207972	-0.166936	0.963784	0.542778	-0.839400	-0.028267	0.813719	0.517243	0.265181
42084	9.414078	-0.260148	2.628977	-0.002564	0.002274	0.008389	-0.207956	-0.166953	0.963785	0.542779	-0.839399	-0.028290	0.813723	0.517239	0.265177
42085	9.407998	-0.285170	2.605416	-0.005212	0.002070	0.004266	-0.207963	-0.166934	0.963787	0.542749	-0.839419	-0.028280	0.813741	0.517213	0.265171
42086	9.409944	-0.277977	2.572190	0.000323	0.005504	0.006848	-0.207981	-0.166955	0.963779	0.542770	-0.839405	-0.028281	0.813723	0.517228	0.265199
42087	9.420141	-0.295283	2.587003	-0.000330	0.000927	0.005666	-0.207971	-0.166943	0.963783	0.542783	-0.839397	-0.028272	0.813717	0.517245	0.265183
42088	9.409768	-0.279187	2.572701	-0.001492	0.003577	0.007029	-0.207976	-0.166954	0.963780	0.542789	-0.839393	-0.028277	0.813711	0.517248	0.265194
42089	9.409651	-0.279763	2.573066	-0.001163	0.004257	0.004491	-0.207999	-0.166949	0.963776	0.542792	-0.839392	-0.028259	0.813703	0.517252	0.265211
42090	9.432199	-0.305960	2.568833	-0.004468	0.002693	0.005444	-0.208004	-0.166944	0.963776	0.542771	-0.839405	-0.028258	0.813716	0.517232	0.265212
42091	9.427843	-0.265617	2.578275	-0.003307	0.001650	0.007210	-0.207991	-0.166948	0.963778	0.542762	-0.839410	-0.028272	0.813725	0.517222	0.265203
42092	9.413320	-0.265240	2.631183	-0.000748	0.004199	0.008208	-0.207988	-0.166972	0.963775	0.542777	-0.839400	-0.028290	0.813716	0.517231	0.265214
42093	9.407250	-0.290267	2.607554	-0.004378	-0.001261	0.005440	-0.207961	-0.166946	0.963785	0.542756	-0.839414	-0.028289	0.813737	0.517217	0.265176
42094	9.409248	-0.283114	2.574173	0.000325	0.005502	0.006849	-0.207978	-0.166967	0.963778	0.542778	-0.839400	-0.028291	0.813718	0.517233	0.265203
42095	9.407058	-0.291475	2.608112	-0.002978	0.002331	0.004672	-0.207984	-0.166954	0.963779	0.542767	-0.839407	-0.028279	0.813724	0.517225	0.265200
42096	9.404779	-0.243212	2.584031	-0.002234	0.002953	0.005851	-0.207988	-0.166955	0.963777	0.542766	-0.839408	-0.028278	0.813723	0.517224	0.265204
42097	9.406901	-0.292668	2.608546	-0.001818	0.001287	0.006438	-0.207977	-0.166950	0.963781	0.542768	-0.839406	-0.028280	0.813725	0.517228	0.265192
42098	9.414905	-0.261301	2.598976	-0.002979	0.003937	0.007801	-0.207978	-0.166972	0.963777	0.542764	-0.839408	-0.028299	0.813727	0.517218	0.265204
42099	9.425071	-0.278796	2.613819	-0.003722	0.003314	0.006622	-0.207981	-0.166979	0.963775	0.542751	-0.839416	-0.028309	0.813735	0.517202	0.265211
42100	9.408671	-0.286919	2.575862	-0.001905	0.003634	0.003313	-0.208004	-0.166963	0.963773	0.542748	-0.839419	-0.028283	0.813731	0.517203	0.265221
42101	9.404326	-0.246431	2.585375	-0.001074	0.001909	0.007617	-0.207990	-0.166972	0.963774	0.542759	-0.839412	-0.028295	0.813728	0.517212	0.265215
42102	9.408492	-0.288194	2.576373	-0.001490	0.003574	0.007029	-0.207994	-0.166984	0.963771	0.542765	-0.839408	-0.028301	0.813723	0.517215	0.265225
42103	9.402017	-0.255609	2.619627	0.000327	0.005499	0.006849	-0.208015	-0.167005	0.963763	0.542785	-0.839395	-0.028301	0.813704	0.517229	0.265254
42104	9.449262	-0.299827	2.577256	-0.004050	0.001026	0.006031	-0.208001	-0.166994	0.963768	0.542768	-0.839406	-0.028305	0.813719	0.517215	0.265236
42105	9.397923	-0.273376	2.562737	-0.002977	0.002330	0.004672	-0.208007	-0.166981	0.963769	0.542757	-0.839413	-0.028293	0.813725	0.517207	0.265234
42106	9.426491	-0.275309	2.582197	-0.002233	0.002951	0.005851	-0.208014	-0.166981	0.963767	0.542756	-0.839414	-0.028291	0.813724	0.517206	0.265240
42107	9.414071	-0.266951	2.601422	-0.002561	0.000664	0.005259	-0.208003	-0.166964	0.963773	0.542749	-0.839418	-0.028284	0.813731	0.517204	0.265221
42108	9.424291	-0.284351	2.616032	-0.003306	0.001648	0.007209	-0.207993	-0.166965	0.963775	0.542740	-0.839424	-0.028294	0.813740	0.517194	0.265213
42109	9.426311	-0.277190	2.582656	-0.000744	0.002589	0.005079	-0.207999	-0.166956	0.963775	0.542747	-0.839420	-0.028280	0.813733	0.517204	0.265214
42110	9.395492	-0.284111	2.597232	-0.002977	0.002329	0.004672	-0.208005	-0.166940	0.963776	0.542736	-0.839428	-0.028266	0.813740	0.517196	0.265209
42111	9.426160	-0.278215	2.583094	-0.002977	0.002329	0.004672	-0.208011	-0.166926	0.963777	0.542724	-0.839435	-0.028255	0.813745	0.517188	0.265207
42112	9.395325	-0.285235	2.597713	-0.001488	0.003572	0.007030	-0.208015	-0.166939	0.963774	0.542731	-0.839431	-0.028261	0.813740	0.517192	0.265217
42113	9.444367	-0.264202	2.588319	-0.003305	0.001647	0.007209	-0.208002	-0.166943	0.963777	0.542722	-0.839436	-0.028275	0.813749	0.517182	0.265208
42114	9.413536	-0.271344	2.602905	-0.001488	0.003571	0.007030	-0.208007	-0.166955	0.963773	0.542729	-0.839432	-0.028280	0.813744	0.517185	0.265219
42115	9.397145	-0.279553	2.564921	-0.002232	0.002950	0.005851	-0.208012	-0.166954	0.963772	0.542726	-0.839434	-0.028278	0.813744	0.517182	0.265223
42116	9.425694	-0.281544	2.584433	0.000001	0.003209	0.006258	-0.208015	-0.166959	0.963771	0.542744	-0.839422	-0.028275	0.813731	0.517199	0.265229
42117	9.402991	-0.256396	2.589256	-0.000744	0.002588	0.005079	-0.208021	-0.166951	0.963771	0.542752	-0.839417	-0.028261	0.813724	0.517210	0.265230
42118	9.435796	-0.299354	2.599378	-0.000329	0.000922	0.005666	-0.208010	-0.166938	0.963776	0.542766	-0.839409	-0.028253	0.813718	0.517228	0.265213
42119	9.413117	-0.274301	2.604107	-0.005952	0.003053	0.006214	-0.208013	-0.166941	0.963774	0.542733	-0.839429	-0.028264	0.813739	0.517193	0.265217
42120	9.427462	-0.276272	2.551826	-0.002231	0.004553	0.008980	-0.208013	-0.166976	0.963768	0.542739	-0.839425	-0.028292	0.813735	0.517190	0.265236
42121	9.373989	-0.257726	2.571063	-0.002231	0.002949	0.005851	-0.208018	-0.166976	0.963767	0.542736	-0.839427	-0.028290	0.813736	0.517187	0.265239
42122	9.461922	-0.254797	2.595487	-0.001487	0.003570	0.007030	-0.208021	-0.166987	0.963765	0.542743	-0.839422	-0.028296	0.813731	0.517190	0.265249
42123	9.384030	-0.275770	2.586188	0.000001	0.003207	0.006258	-0.208026	-0.166991	0.963763	0.542759	-0.839412	-0.028292	0.813719	0.517206	0.265255
42124	9.433096	-0.311380	2.634583	-0.002890	-0.000021	0.007796	-0.207997	-0.166992	0.963769	0.542756	-0.839413	-0.028309	0.813728	0.517203	0.265231
42125	9.394161	-0.293870	2.600958	-0.000743	0.002586	0.005079	-0.208003	-0.166983	0.963769	0.542764	-0.839409	-0.028295	0.813721	0.517214	0.265232
42126	9.414560	-0.271315	2.572463	-0.004133	0.004976	0.006035	-0.208023	-0.166995	0.963763	0.542748	-0.839419	-0.028300	0.813727	0.517193	0.265255
42127	9.424671	-0.288757	2.587367	-0.001486	0.003569	0.007030	-0.208027	-0.167008	0.963760	0.542753	-0.839415	-0.028307	0.813722	0.517195	0.265265
42128	9.424614	-0.289466	2.587497	-0.003634	-0.000642	0.006617	-0.207999	-0.166997	0.963768	0.542742	-0.839422	-0.028317	0.813736	0.517188	0.265235
42129	9.412209	-0.281178	2.606656	-0.002230	0.002948	0.005851	-0.208004	-0.166996	0.963767	0.542740	-0.839424	-0.028314	0.813737	0.517185	0.265239
42130	9.424498	-0.290885	2.587758	-0.002145	0.000599	0.008975	-0.207974	-0.167008	0.963771	0.542744	-0.839420	-0.028339	0.813742	0.517187	0.265220
42131	9.403984	-0.258145	2.558826	-0.001815	0.001282	0.006438	-0.207963	-0.167003	0.963775	0.542746	-0.839419	-0.028342	0.813744	0.517191	0.265208
42132	9.389462	-0.257594	2.611551	-0.000328	0.000919	0.005667	-0.207954	-0.166990	0.963779	0.542758	-0.839411	-0.028331	0.813738	0.517207	0.265194
42133	9.442754	-0.277576	2.592802	-0.001071	0.001902	0.007617	-0.207941	-0.166999	0.963780	0.542769	-0.839404	-0.028342	0.813734	0.517216	0.265188
42134	9.399567	-0.275626	2.626382	-0.002974	0.002327	0.004671	-0.207947	-0.166984	0.963781	0.542758	-0.839411	-0.028329	0.813739	0.517209	0.265185
42135	9.413938	-0.277370	2.574092	-0.004130	0.004975	0.006035	-0.207968	-0.166995	0.963775	0.542740	-0.839423	-0.028334	0.813746	0.517187	0.265208
42136	9.401474	-0.269011	2.593484	-0.002973	0.002327	0.004671	-0.207976	-0.166980	0.963776	0.542729	-0.839430	-0.028320	0.813751	0.517179	0.265207
42137	9.403532	-0.261832	2.560113	-0.001070	0.001901	0.007617	-0.207963	-0.166989	0.963777	0.542739	-0.839423	-0.028331	0.813748	0.517188	0.265201
42138	9.432085	-0.263950	2.579577	-0.002228	0.002947	0.005851	-0.207970	-0.166989	0.963776	0.542737	-0.839425	-0.028327	0.813747	0.517186	0.265206
42139	9.423786	-0.296624	2.589699	-0.002642	0.004612	0.005264	-0.207992	-0.166992	0.963770	0.542730	-0.839430	-0.028320	0.813747	0.517177	0.265226
42140	9.405273	-0.312599	2.585264	-0.001070	0.001900	0.007617	-0.207977	-0.167004	0.963771	0.542744	-0.839420	-0.028335	0.813741	0.517188	0.265221
42141	9.429644	-0.273613	2.614065	-0.003386	0.003992	0.004084	-0.208000	-0.166995	0.963768	0.542728	-0.839431	-0.028319	0.813746	0.517174	0.265234
42142	9.441916	-0.283313	2.595231	-0.003631	0.000958	0.009745	-0.207965	-0.167014	0.963772	0.542722	-0.839434	-0.028357	0.813759	0.517163	0.265215
42143	9.413248	-0.282657	2.576040	-0.004791	0.000403	0.004850	-0.207955	-0.166991	0.963778	0.542696	-0.839450	-0.028351	0.813778	0.517143	0.265194
42144	9.413165	-0.283219	2.576281	-0.000409	0.004869	0.005672	-0.207977	-0.167000	0.963772	0.542710	-0.839442	-0.028343	0.813764	0.517154	0.265217
42145	9.402809	-0.266992	2.562232	-0.000408	0.004869	0.005672	-0.207999	-0.167008	0.963766	0.542722	-0.839435	-0.028334	0.813750	0.517163	0.265240
42146	9.425251	-0.293230	2.558093	-0.003385	0.003992	0.004084	-0.208022	-0.167000	0.963762	0.542708	-0.839444	-0.028319	0.813754	0.517151	0.265255
42147	9.431228	-0.269522	2.582132	-0.001814	0.001279	0.006437	-0.208010	-0.166996	0.963766	0.542710	-0.839443	-0.028321	0.813755	0.517154	0.265243
42148	9.400411	-0.276652	2.596529	-0.002144	0.000595	0.008974	-0.207977	-0.167011	0.963770	0.542716	-0.839438	-0.028350	0.813760	0.517158	0.265223
42149	9.400370	-0.277258	2.596614	-0.002230	0.001344	0.002721	-0.207986	-0.166976	0.963774	0.542707	-0.839445	-0.028317	0.813763	0.517158	0.265211
42150	9.425043	-0.295728	2.558571	-0.000656	0.000232	0.008203	-0.207956	-0.166981	0.963780	0.542723	-0.839434	-0.028333	0.813760	0.517174	0.265190
42151	9.390041	-0.261763	2.582417	-0.004127	0.004973	0.006035	-0.207977	-0.166993	0.963773	0.542706	-0.839445	-0.028338	0.813767	0.517152	0.265213
42152	9.453461	-0.298575	2.578424	-0.002227	0.002944	0.005851	-0.207979	-0.166993	0.963773	0.542704	-0.839446	-0.028336	0.813767	0.517150	0.265215
42153	9.406101	-0.255525	2.621358	-0.002226	0.002944	0.005851	-0.207984	-0.166992	0.963772	0.542702	-0.839447	-0.028334	0.813767	0.517148	0.265219
42154	9.399942	-0.280397	2.597826	-0.002226	0.002944	0.005851	-0.207987	-0.166988	0.963772	0.542698	-0.839450	-0.028331	0.813769	0.517145	0.265219
42155	9.420416	-0.257929	2.569315	-0.001481	0.003563	0.007030	-0.207990	-0.167001	0.963769	0.542704	-0.839446	-0.028338	0.813764	0.517148	0.265229
42156	9.399738	-0.281818	2.598410	-0.000323	0.002515	0.008796	-0.207976	-0.167021	0.963769	0.542723	-0.839433	-0.028357	0.813755	0.517162	0.265228
42157	9.418126	-0.267249	2.603212	-0.004378	-0.001264	0.005436	-0.207949	-0.166995	0.963779	0.542702	-0.839447	-0.028356	0.813776	0.517148	0.265190
42158	9.395560	-0.241963	2.607773	0.000003	0.001600	0.003130	-0.207956	-0.166965	0.963783	0.542713	-0.839441	-0.028322	0.813767	0.517167	0.265181
42159	9.430347	-0.277249	2.584531	-0.002635	0.006209	0.008394	-0.207974	-0.167003	0.963772	0.542712	-0.839440	-0.028346	0.813763	0.517156	0.265216
42160	9.399485	-0.284438	2.599040	-0.002476	-0.001693	0.008381	-0.207929	-0.166999	0.963783	0.542713	-0.839439	-0.028367	0.813774	0.517159	0.265176
42161	9.407705	-0.253109	2.589262	-0.001813	0.001277	0.006437	-0.207917	-0.166995	0.963786	0.542715	-0.839438	-0.028369	0.813776	0.517163	0.265164
42162	9.442547	-0.288469	2.565786	0.000419	0.001533	0.006846	-0.207902	-0.166990	0.963790	0.542734	-0.839425	-0.028367	0.813767	0.517184	0.265149
42163	9.389152	-0.269674	2.584833	-0.004457	0.002687	0.005442	-0.207907	-0.166985	0.963790	0.542713	-0.839439	-0.028367	0.813780	0.517163	0.265150
42164	9.423941	-0.305111	2.561527	-0.002966	0.003924	0.007801	-0.207906	-0.167006	0.963786	0.542710	-0.839440	-0.028387	0.813782	0.517154	0.265161
42165	9.376603	-0.262098	2.604459	-0.005202	0.002068	0.004262	-0.207913	-0.166988	0.963788	0.542680	-0.839460	-0.028377	0.813800	0.517128	0.265156
42166	9.419615	-0.265436	2.571483	-0.002632	0.006208	0.008394	-0.207929	-0.167026	0.963778	0.542680	-0.839459	-0.028401	0.813796	0.517118	0.265190
42167	9.429683	-0.282806	2.586350	0.000004	0.001599	0.003130	-0.207938	-0.166995	0.963781	0.542690	-0.839454	-0.028366	0.813787	0.517136	0.265181
42168	9.401032	-0.281849	2.567160	-0.002887	-0.000028	0.007794	-0.207908	-0.166992	0.963788	0.542685	-0.839457	-0.028382	0.813798	0.517133	0.265153
42169	9.448035	-0.268853	2.591261	-0.001067	0.001893	0.007617	-0.207894	-0.167001	0.963790	0.542695	-0.839450	-0.028393	0.813795	0.517141	0.265147
42170	9.386365	-0.282084	2.620139	-0.001149	0.004246	0.004494	-0.207916	-0.166997	0.963786	0.542701	-0.839447	-0.028377	0.813786	0.517147	0.265164
42171	9.437670	-0.253268	2.577317	-0.003299	0.001638	0.007208	-0.207903	-0.167001	0.963788	0.542692	-0.839452	-0.028390	0.813795	0.517138	0.265155
42172	9.392490	-0.316568	2.577639	-0.002558	0.000657	0.005257	-0.207893	-0.166986	0.963793	0.542688	-0.839455	-0.028384	0.813800	0.517138	0.265138
42173	9.429313	-0.286662	2.587275	-0.001066	0.001893	0.007617	-0.207880	-0.166995	0.963794	0.542698	-0.839448	-0.028395	0.813796	0.517146	0.265132
42174	9.429197	-0.287354	2.587622	0.000343	0.005480	0.006853	-0.207899	-0.167015	0.963786	0.542719	-0.839434	-0.028395	0.813778	0.517162	0.265160
42175	9.394204	-0.253193	2.611590	-0.002969	0.002323	0.004671	-0.207905	-0.167001	0.963787	0.542708	-0.839442	-0.028384	0.813783	0.517154	0.265157
42176	9.435095	-0.264319	2.611995	-0.001066	0.001892	0.007617	-0.207893	-0.167011	0.963788	0.542720	-0.839433	-0.028396	0.813779	0.517164	0.265152
42177	9.416594	-0.280292	2.607377	-0.001812	0.001274	0.006437	-0.207881	-0.167007	0.963792	0.542722	-0.839432	-0.028398	0.813780	0.517168	0.265140
42178	9.416522	-0.280924	2.607570	-0.002223	0.002941	0.005851	-0.207887	-0.167007	0.963790	0.542720	-0.839433	-0.028395	0.813780	0.517166	0.265146
42179	9.410341	-0.305784	2.584006	-0.004455	0.002686	0.005441	-0.207892	-0.167002	0.963790	0.542699	-0.839447	-0.028394	0.813793	0.517145	0.265146
42180	9.424622	-0.250086	2.598346	-0.002222	0.002940	0.005851	-0.207897	-0.167000	0.963789	0.542696	-0.839449	-0.028391	0.813793	0.517142	0.265149
42181	9.430775	-0.283943	2.555789	0.000756	0.003812	0.007440	-0.207900	-0.167017	0.963786	0.542721	-0.839433	-0.028396	0.813776	0.517163	0.265162
42182	9.377447	-0.265024	2.574632	-0.000994	-0.003657	0.004480	-0.207856	-0.166969	0.963804	0.542726	-0.839430	-0.028377	0.813784	0.517183	0.265099
42183	9.406030	-0.267248	2.593924	-0.004449	0.004283	0.008571	-0.207857	-0.166998	0.963798	0.542711	-0.839439	-0.028407	0.813794	0.517159	0.265115
42184	9.446858	-0.278631	2.594517	-0.002962	0.003920	0.007801	-0.207860	-0.167019	0.963794	0.542707	-0.839441	-0.028425	0.813796	0.517149	0.265128
42185	9.389544	-0.276194	2.556276	-0.000735	0.002577	0.005080	-0.207866	-0.167010	0.963794	0.542715	-0.839436	-0.028411	0.813789	0.517160	0.265129
42186	9.418084	-0.278316	2.575725	-0.001811	0.001273	0.006437	-0.207855	-0.167005	0.963797	0.542718	-0.839435	-0.028412	0.813790	0.517164	0.265117
42187	9.428159	-0.295804	2.590449	-0.001475	0.003556	0.007031	-0.207859	-0.167018	0.963794	0.542724	-0.839430	-0.028419	0.813785	0.517167	0.265127
42188	9.387116	-0.286009	2.590466	-0.003297	0.001635	0.007207	-0.207846	-0.167020	0.963797	0.542715	-0.839436	-0.028431	0.813794	0.517158	0.265117
42189	9.409521	-0.312395	2.586200	0.001087	0.004497	0.004904	-0.207868	-0.167020	0.963792	0.542737	-0.839422	-0.028411	0.813773	0.517180	0.265137
42190	9.417725	-0.280922	2.576757	-0.003297	0.001635	0.007207	-0.207854	-0.167023	0.963794	0.542730	-0.839426	-0.028424	0.813782	0.517172	0.265127
42191	9.405338	-0.272742	2.595861	-0.005118	-0.000286	0.007383	-0.207825	-0.167019	0.963802	0.542707	-0.839440	-0.028444	0.813805	0.517150	0.265099
42192	9.396929	-0.305466	2.605887	0.001423	0.006780	0.005498	-0.207861	-0.167034	0.963791	0.542733	-0.839424	-0.028428	0.813778	0.517172	0.265138
42193	9.405104	-0.273894	2.596587	-0.002966	0.002322	0.004671	-0.207867	-0.167020	0.963792	0.542722	-0.839431	-0.028417	0.813784	0.517165	0.265135
42194	9.427506	-0.300297	2.592307	-0.001474	0.003555	0.007031	-0.207871	-0.167034	0.963789	0.542730	-0.839426	-0.028424	0.813778	0.517168	0.265146
42195	9.407116	-0.267314	2.563606	-0.002220	0.002938	0.005851	-0.207876	-0.167033	0.963788	0.542727	-0.839428	-0.028422	0.813778	0.517166	0.265150
42196	9.417197	-0.284717	2.578269	-0.002556	0.000655	0.005257	-0.207874	-0.166929	0.963807	0.542886	-0.839330	-0.028280	0.813672	0.517359	0.265098
42197	9.394650	-0.259448	2.582967	-0.000734	0.002575	0.005080	-0.207880	-0.166920	0.963807	0.542894	-0.839325	-0.028266	0.813666	0.517369	0.265099
42198	9.404683	-0.276978	2.597783	-0.004446	0.004280	0.008571	-0.207881	-0.166948	0.963802	0.542880	-0.839333	-0.028295	0.813675	0.517347	0.265114
42199	9.427059	-0.303479	2.593563	0.001499	0.002828	0.005491	-0.207887	-0.166944	0.963801	0.542907	-0.839316	-0.028279	0.813655	0.517376	0.265118
42200	9.406718	-0.270408	2.564739	-0.004042	0.001017	0.006027	-0.207874	-0.166932	0.963806	0.542890	-0.839327	-0.028282	0.813670	0.517362	0.265100
42201	9.422914	-0.263547	2.603205	-0.001480	0.001958	0.003900	-0.207881	-0.166910	0.963808	0.542890	-0.839329	-0.028259	0.813668	0.517367	0.265094
42202	9.398257	-0.303574	2.574829	-0.003705	0.003300	0.006621	-0.207883	-0.166917	0.963807	0.542877	-0.839336	-0.028268	0.813676	0.517353	0.265099
42203	9.422749	-0.264853	2.603669	-0.003295	0.001633	0.007207	-0.207870	-0.166921	0.963809	0.542869	-0.839341	-0.028281	0.813685	0.517343	0.265090
42204	9.416564	-0.289704	2.580027	-0.000733	0.002574	0.005081	-0.207874	-0.166914	0.963809	0.542880	-0.839334	-0.028269	0.813677	0.517356	0.265090
42205	9.406341	-0.273484	2.565797	-0.003705	0.003300	0.006621	-0.207878	-0.166922	0.963807	0.542867	-0.839343	-0.028278	0.813684	0.517341	0.265097
42206	9.432595	-0.283744	2.618978	-0.004444	0.004278	0.008571	-0.207878	-0.166948	0.963802	0.542851	-0.839352	-0.028306	0.813695	0.517317	0.265111
42207	9.412254	-0.250817	2.590217	-0.000323	0.000906	0.005667	-0.207868	-0.166935	0.963807	0.542864	-0.839344	-0.028296	0.813689	0.517334	0.265096
42208	9.416204	-0.292498	2.581023	0.001169	0.002138	0.008027	-0.207855	-0.166948	0.963807	0.542894	-0.839324	-0.028305	0.813672	0.517362	0.265093
42209	9.409876	-0.260002	2.624193	0.000760	0.003804	0.007441	-0.207858	-0.166965	0.963804	0.542919	-0.839308	-0.028310	0.813655	0.517383	0.265106
42210	9.434473	-0.278559	2.586395	-0.000732	0.002573	0.005081	-0.207861	-0.166954	0.963805	0.542927	-0.839303	-0.028296	0.813648	0.517394	0.265103
42211	9.405821	-0.277541	2.567268	-0.004041	0.001016	0.006026	-0.207850	-0.166945	0.963809	0.542910	-0.839314	-0.028300	0.813663	0.517380	0.265087
42212	9.436557	-0.272037	2.553233	-0.002957	0.003914	0.007801	-0.207851	-0.166966	0.963805	0.542907	-0.839315	-0.028318	0.813664	0.517371	0.265100
42213	9.411791	-0.254878	2.591505	-0.002885	-0.000036	0.007792	-0.207821	-0.166966	0.963812	0.542903	-0.839317	-0.028336	0.813675	0.517368	0.265074
42214	9.434143	-0.281285	2.587304	-0.001958	0.007573	0.003323	-0.207878	-0.166966	0.963799	0.542897	-0.839322	-0.028307	0.813664	0.517360	0.265122
42215	9.434026	-0.281863	2.587668	-0.000653	0.000216	0.008203	-0.207848	-0.166971	0.963805	0.542912	-0.839312	-0.028323	0.813662	0.517375	0.265100
42216	9.390778	-0.279803	2.621177	-0.004858	0.004350	0.004854	-0.207869	-0.166967	0.963801	0.542886	-0.839329	-0.028316	0.813674	0.517348	0.265115
42217	9.403037	-0.289406	2.602384	-0.001808	0.001268	0.006436	-0.207857	-0.166962	0.963804	0.542888	-0.839328	-0.028318	0.813676	0.517352	0.265102
42218	9.436001	-0.275914	2.554870	-0.000393	0.004854	0.005675	-0.207879	-0.166972	0.963798	0.542902	-0.839319	-0.028309	0.813661	0.517363	0.265126
42219	9.402812	-0.290625	2.603061	-0.001470	0.003550	0.007031	-0.207883	-0.166984	0.963795	0.542908	-0.839315	-0.028316	0.813656	0.517366	0.265136
42220	9.421228	-0.276105	2.608002	-0.001400	-0.000400	0.007022	-0.207857	-0.166974	0.963803	0.542914	-0.839311	-0.028320	0.813659	0.517375	0.265109
42221	9.423413	-0.268958	2.574586	-0.003702	0.003298	0.006620	-0.207860	-0.166981	0.963801	0.542901	-0.839319	-0.028328	0.813666	0.517360	0.265115
42222	9.421082	-0.277432	2.608387	-0.002963	0.002319	0.004670	-0.207867	-0.166966	0.963802	0.542890	-0.839326	-0.028315	0.813672	0.517353	0.265113
42223	9.404730	-0.285368	2.570404	0.000354	0.005468	0.006856	-0.207887	-0.166987	0.963794	0.542911	-0.839313	-0.028315	0.813653	0.517368	0.265142
42224	9.420832	-0.278508	2.609176	-0.001886	0.003623	0.003314	-0.207910	-0.166971	0.963792	0.542908	-0.839316	-0.028289	0.813649	0.517368	0.265152
42225	9.402226	-0.294240	2.604770	-0.004110	0.004964	0.006034	-0.207931	-0.166982	0.963785	0.542890	-0.839327	-0.028293	0.813655	0.517347	0.265175
42226	9.422855	-0.271824	2.576328	0.000424	0.001518	0.006847	-0.207920	-0.166983	0.963787	0.542912	-0.839313	-0.028293	0.813643	0.517370	0.265166
42227	9.426728	-0.313595	2.567230	-0.002954	0.003911	0.007800	-0.207922	-0.167003	0.963783	0.542908	-0.839315	-0.028311	0.813646	0.517359	0.265179
42228	9.373364	-0.294820	2.586235	0.000094	0.000828	0.009383	-0.207890	-0.167021	0.963787	0.542932	-0.839298	-0.028336	0.813638	0.517381	0.265162
42229	9.434943	-0.282937	2.558009	-0.003040	0.004676	0.001548	-0.207932	-0.166993	0.963783	0.542914	-0.839311	-0.028294	0.813639	0.517368	0.265183
42230	9.391643	-0.280624	2.591674	-0.001469	0.003547	0.007031	-0.207938	-0.167004	0.963780	0.542920	-0.839307	-0.028299	0.813634	0.517371	0.265193
42231	9.420125	-0.282981	2.611247	0.001171	0.002131	0.008028	-0.207924	-0.167017	0.963780	0.542950	-0.839288	-0.028308	0.813617	0.517399	0.265190
42232	9.409944	-0.266851	2.597000	-0.003700	0.003296	0.006620	-0.207930	-0.167028	0.963777	0.542940	-0.839294	-0.028318	0.813622	0.517385	0.265201
42233	9.419934	-0.284368	2.611784	-0.002215	0.002933	0.005850	-0.207935	-0.167028	0.963776	0.542937	-0.839296	-0.028316	0.813623	0.517383	0.265204
42234	9.422094	-0.277162	2.578541	-0.001468	0.003547	0.007031	-0.207934	-0.167041	0.963774	0.542945	-0.839290	-0.028325	0.813618	0.517387	0.265211
42235	9.368721	-0.258173	2.597618	-0.002215	0.002932	0.005850	-0.207939	-0.167040	0.963773	0.542943	-0.839292	-0.028323	0.813618	0.517385	0.265215
42236	9.440400	-0.263179	2.583892	-0.002962	0.002318	0.004669	-0.207947	-0.167025	0.963774	0.542932	-0.839299	-0.028309	0.813623	0.517377	0.265213
42237	9.413388	-0.311020	2.589116	-0.001875	0.005213	0.006445	-0.207967	-0.167041	0.963767	0.542934	-0.839298	-0.028311	0.813617	0.517374	0.265239
42238	9.409292	-0.270616	2.598973	0.000358	0.005464	0.006857	-0.207989	-0.167062	0.963759	0.542955	-0.839284	-0.028310	0.813597	0.517390	0.265269
42239	9.396843	-0.262209	2.618315	-0.000322	0.000901	0.005667	-0.207979	-0.167049	0.963763	0.542968	-0.839277	-0.028300	0.813591	0.517406	0.265254
42240	9.390603	-0.286997	2.594742	-0.001874	0.005213	0.006445	-0.207998	-0.167063	0.963757	0.542969	-0.839276	-0.028301	0.813586	0.517403	0.265278
42241	9.462242	-0.292095	2.581167	-0.002214	0.002932	0.005850	-0.208003	-0.167062	0.963756	0.542967	-0.839277	-0.028298	0.813586	0.517401	0.265281
42242	9.390392	-0.288358	2.595354	-0.002545	0.002241	0.008386	-0.207991	-0.167078	0.963756	0.542966	-0.839277	-0.028319	0.813589	0.517397	0.265279
42243	9.421129	-0.282873	2.581444	-0.002621	0.004599	0.005264	-0.208012	-0.167081	0.963751	0.542960	-0.839281	-0.028312	0.813588	0.517388	0.265299
42244	9.402535	-0.298547	2.576928	-0.001476	0.001954	0.003900	-0.208019	-0.167060	0.963752	0.542961	-0.839281	-0.028289	0.813586	0.517395	0.265294
42245	9.398535	-0.258181	2.586496	-0.004030	0.002604	0.009155	-0.208004	-0.167085	0.963752	0.542950	-0.839287	-0.028323	0.813596	0.517378	0.265294
42246	9.418545	-0.292712	2.615870	0.000359	0.005462	0.006857	-0.208023	-0.167105	0.963744	0.542971	-0.839274	-0.028323	0.813578	0.517393	0.265321
42247	9.379807	-0.274631	2.582380	0.000009	0.001590	0.003131	-0.208032	-0.167074	0.963747	0.542981	-0.839268	-0.028288	0.813569	0.517412	0.265313
42248	9.418369	-0.293639	2.616397	-0.004445	0.002681	0.005438	-0.208034	-0.167069	0.963748	0.542961	-0.839281	-0.028289	0.813582	0.517392	0.265311
42249	9.379633	-0.275797	2.582888	-0.000719	0.004157	0.008212	-0.208036	-0.167095	0.963743	0.542976	-0.839271	-0.028305	0.813571	0.517401	0.265327
42250	9.418129	-0.295038	2.617104	-0.004852	0.004348	0.004852	-0.208057	-0.167095	0.963738	0.542952	-0.839286	-0.028302	0.813582	0.517376	0.265344
42251	9.407958	-0.278764	2.602936	-0.002213	0.002930	0.005850	-0.208061	-0.167095	0.963737	0.542950	-0.839288	-0.028300	0.813582	0.517373	0.265347
42252	9.426395	-0.264159	2.607939	-0.000322	0.000899	0.005667	-0.208049	-0.167081	0.963742	0.542963	-0.839280	-0.028291	0.813576	0.517391	0.265330
42253	9.410053	-0.272145	2.569981	-0.003015	0.007854	0.007810	-0.208083	-0.167122	0.963728	0.542959	-0.839282	-0.028309	0.813571	0.517374	0.265381
42254	9.407632	-0.280817	2.603894	-0.000653	0.000207	0.008202	-0.208054	-0.167128	0.963733	0.542975	-0.839271	-0.028325	0.813567	0.517390	0.265360
42255	9.397527	-0.264596	2.589508	-0.002960	0.002316	0.004669	-0.208060	-0.167115	0.963734	0.542964	-0.839278	-0.028313	0.813573	0.517382	0.265358
42256	9.407479	-0.282123	2.604307	-0.000717	0.004155	0.008212	-0.208062	-0.167142	0.963729	0.542981	-0.839267	-0.028330	0.813561	0.517392	0.265375
42257	9.429777	-0.308655	2.600067	-0.002959	0.002316	0.004669	-0.208069	-0.167128	0.963730	0.542970	-0.839274	-0.028318	0.813567	0.517384	0.265372
42258	9.409614	-0.275488	2.571229	-0.001806	0.001261	0.006435	-0.208055	-0.167124	0.963734	0.542974	-0.839272	-0.028322	0.813568	0.517390	0.265359
42259	9.384844	-0.258111	2.609498	-0.002212	0.002929	0.005850	-0.208060	-0.167124	0.963733	0.542971	-0.839274	-0.028319	0.813568	0.517387	0.265362
42260	9.400985	-0.308649	2.581390	-0.001880	0.003620	0.003314	-0.208080	-0.167102	0.963732	0.542966	-0.839278	-0.028290	0.813567	0.517387	0.265368
42261	9.427887	-0.261998	2.576748	0.001579	0.000455	0.008614	-0.208050	-0.167112	0.963737	0.543000	-0.839255	-0.028304	0.813551	0.517420	0.265349
42262	9.396987	-0.268947	2.591019	-0.007755	0.001127	0.006380	-0.208039	-0.167110	0.963740	0.542957	-0.839283	-0.028323	0.813583	0.517376	0.265337
42263	9.437830	-0.280430	2.591458	0.001174	0.002122	0.008029	-0.208026	-0.167123	0.963740	0.542986	-0.839263	-0.028332	0.813567	0.517404	0.265334
42264	9.409181	-0.279426	2.572390	-0.001463	0.003540	0.007031	-0.208027	-0.167136	0.963738	0.542994	-0.839258	-0.028340	0.813561	0.517408	0.265343
42265	9.416831	-0.304861	2.620647	-0.001805	0.001260	0.006435	-0.208016	-0.167132	0.963741	0.542996	-0.839257	-0.028342	0.813563	0.517412	0.265330
42266	9.427529	-0.265492	2.577702	-0.001132	0.004232	0.004496	-0.208038	-0.167128	0.963737	0.543001	-0.839254	-0.028325	0.813554	0.517418	0.265347
42267	9.378044	-0.287337	2.587398	-0.002211	0.002928	0.005850	-0.208043	-0.167127	0.963736	0.542999	-0.839256	-0.028322	0.813554	0.517415	0.265351
42268	9.443549	-0.259428	2.616617	-0.003290	0.001624	0.007204	-0.208028	-0.167133	0.963738	0.542993	-0.839259	-0.028338	0.813562	0.517408	0.265342
42269	9.402592	-0.306664	2.549719	-0.000726	0.002564	0.005081	-0.208034	-0.167124	0.963738	0.543001	-0.839254	-0.028324	0.813555	0.517419	0.265342
42270	9.439513	-0.276934	2.559746	-0.004100	0.004959	0.006033	-0.208054	-0.167136	0.963732	0.542985	-0.839264	-0.028328	0.813560	0.517398	0.265365
42271	9.393889	-0.282562	2.626784	-0.000321	0.000896	0.005667	-0.208044	-0.167123	0.963736	0.542998	-0.839256	-0.028319	0.813555	0.517415	0.265349
42272	9.426999	-0.269156	2.579259	-0.001462	0.003539	0.007031	-0.208047	-0.167139	0.963733	0.543007	-0.839250	-0.028328	0.813548	0.517420	0.265361
42273	9.430786	-0.310839	2.570071	-0.002553	0.000647	0.005254	-0.208036	-0.167121	0.963738	0.543000	-0.839255	-0.028320	0.813555	0.517419	0.265342
42274	9.426894	-0.270339	2.579520	-0.000320	0.000895	0.005667	-0.208027	-0.167106	0.963743	0.543012	-0.839248	-0.028308	0.813549	0.517435	0.265327
42275	9.420656	-0.295075	2.555817	-0.002210	0.002927	0.005850	-0.208032	-0.167105	0.963742	0.543010	-0.839249	-0.028306	0.813550	0.517433	0.265330
42276	9.426738	-0.271523	2.579967	-0.002209	0.002927	0.005850	-0.208038	-0.167104	0.963741	0.543008	-0.839251	-0.028302	0.813550	0.517431	0.265334
42277	9.405793	-0.295218	2.608941	-0.003694	0.003290	0.006618	-0.208041	-0.167111	0.963739	0.542995	-0.839259	-0.028311	0.813557	0.517416	0.265341
42278	9.404182	-0.246899	2.585045	-0.002957	0.002315	0.004668	-0.208048	-0.167098	0.963740	0.542986	-0.839265	-0.028299	0.813562	0.517409	0.265339
42279	9.407997	-0.288512	2.575714	-0.002148	-0.001021	0.005839	-0.208020	-0.167077	0.963749	0.542984	-0.839266	-0.028296	0.813570	0.517414	0.265305
42280	9.414094	-0.265031	2.599818	-0.001118	0.005817	0.007627	-0.208040	-0.167107	0.963740	0.542995	-0.839259	-0.028308	0.813558	0.517417	0.265337
42281	9.403950	-0.248935	2.585695	-0.002540	0.002233	0.008385	-0.208025	-0.167124	0.963740	0.542995	-0.839258	-0.028331	0.813561	0.517413	0.265334
42282	9.407702	-0.290718	2.576544	-0.002209	0.002926	0.005850	-0.208029	-0.167124	0.963739	0.542994	-0.839259	-0.028329	0.813561	0.517412	0.265337
42283	9.426138	-0.276185	2.581663	-0.002208	0.002925	0.005850	-0.208034	-0.167123	0.963738	0.542992	-0.839260	-0.028326	0.813561	0.517409	0.265341
42284	9.417557	-0.308800	2.591486	-0.000320	0.000893	0.005667	-0.208022	-0.167109	0.963743	0.543005	-0.839252	-0.028316	0.813555	0.517427	0.265325
42285	9.425972	-0.277235	2.582157	-0.001532	0.005897	0.003911	-0.208062	-0.167108	0.963735	0.543004	-0.839253	-0.028293	0.813546	0.517425	0.265357
42286	9.415854	-0.261044	2.567974	-0.003620	0.000928	0.009739	-0.208027	-0.167131	0.963739	0.543000	-0.839254	-0.028334	0.813557	0.517416	0.265340
42287	9.397279	-0.276955	2.563202	-0.000320	0.000893	0.005667	-0.208016	-0.167118	0.963743	0.543013	-0.839246	-0.028325	0.813551	0.517433	0.265324
42288	9.431909	-0.255172	2.606724	-0.001864	0.005204	0.006446	-0.208038	-0.167136	0.963735	0.543017	-0.839244	-0.028327	0.813543	0.517431	0.265353
42289	9.394716	-0.286127	2.597408	-0.003692	0.003288	0.006618	-0.208042	-0.167144	0.963733	0.543004	-0.839252	-0.028336	0.813551	0.517416	0.265359
42290	9.396960	-0.278899	2.564160	-0.002207	0.002924	0.005850	-0.208049	-0.167146	0.963731	0.543004	-0.839252	-0.028334	0.813549	0.517415	0.265366
42291	9.423083	-0.289194	2.617235	-0.001804	0.001256	0.006435	-0.208037	-0.167141	0.963735	0.543006	-0.839251	-0.028336	0.813551	0.517419	0.265354
42292	9.394483	-0.288001	2.598043	-0.002955	0.002313	0.004668	-0.208047	-0.167130	0.963734	0.542997	-0.839257	-0.028324	0.813554	0.517412	0.265356
42293	9.415252	-0.265566	2.569717	-0.001863	0.005203	0.006446	-0.208067	-0.167146	0.963727	0.542999	-0.839256	-0.028326	0.813548	0.517409	0.265381
42294	9.415122	-0.266243	2.570123	-0.001459	0.003534	0.007031	-0.208069	-0.167159	0.963725	0.543006	-0.839251	-0.028333	0.813543	0.517413	0.265391
42295	9.412686	-0.274867	2.603890	-0.003287	0.001620	0.007203	-0.208056	-0.167163	0.963727	0.542998	-0.839255	-0.028347	0.813551	0.517404	0.265381
42296	9.396419	-0.282774	2.565720	0.000025	0.003170	0.006263	-0.208061	-0.167166	0.963725	0.543015	-0.839245	-0.028341	0.813539	0.517420	0.265388
42297	9.412509	-0.276142	2.604395	-0.002207	0.002923	0.005850	-0.208066	-0.167165	0.963724	0.543012	-0.839246	-0.028338	0.813539	0.517418	0.265391
42298	9.433306	-0.253789	2.576012	-0.003690	0.003287	0.006618	-0.208068	-0.167173	0.963722	0.543001	-0.839253	-0.028348	0.813546	0.517404	0.265397
42299	9.424666	-0.286432	2.585915	-0.000723	0.002559	0.005082	-0.208074	-0.167164	0.963723	0.543009	-0.839249	-0.028334	0.813539	0.517415	0.265397
42300	9.373743	-0.259347	2.571219	-0.000651	0.000197	0.008202	-0.208042	-0.167170	0.963729	0.543026	-0.839237	-0.028351	0.813537	0.517431	0.265374
42301	9.465423	-0.298648	2.586529	-0.003690	0.003287	0.006618	-0.208046	-0.167177	0.963727	0.543013	-0.839245	-0.028360	0.813544	0.517416	0.265381
42302	9.383555	-0.277596	2.586219	-0.001125	0.004227	0.004496	-0.208069	-0.167172	0.963722	0.543018	-0.839243	-0.028341	0.813535	0.517421	0.265398
42303	9.430512	-0.264857	2.610808	-0.001457	0.003533	0.007031	-0.208072	-0.167185	0.963720	0.543024	-0.839239	-0.028348	0.813530	0.517424	0.265407
42304	9.411871	-0.280571	2.606225	-0.000722	0.002558	0.005082	-0.208075	-0.167180	0.963720	0.543036	-0.839231	-0.028338	0.813521	0.517438	0.265408
42305	9.411779	-0.281179	2.606494	-0.003689	0.003286	0.006618	-0.208079	-0.167187	0.963718	0.543023	-0.839239	-0.028347	0.813529	0.517422	0.265414
42306	9.393145	-0.297022	2.601861	-0.001054	0.001864	0.007617	-0.208065	-0.167196	0.963719	0.543035	-0.839231	-0.028358	0.813525	0.517432	0.265408
42307	9.403999	-0.257767	2.558926	-0.002205	0.002922	0.005850	-0.208070	-0.167195	0.963718	0.543032	-0.839233	-0.028355	0.813525	0.517430	0.265411
42308	9.433823	-0.309231	2.602744	-0.000708	0.004141	0.008213	-0.208070	-0.167221	0.963714	0.543049	-0.839221	-0.028373	0.813514	0.517440	0.265426
42309	9.419984	-0.251808	2.597907	-0.002219	0.001338	0.002718	-0.208079	-0.167186	0.963718	0.543040	-0.839228	-0.028341	0.813517	0.517440	0.265414
42310	9.411334	-0.284346	2.607756	-0.001456	0.003531	0.007032	-0.208082	-0.167199	0.963715	0.543047	-0.839223	-0.028347	0.813512	0.517444	0.265424
42311	9.401212	-0.268200	2.593711	-0.002593	0.006173	0.008396	-0.208099	-0.167236	0.963705	0.543047	-0.839223	-0.028370	0.813507	0.517433	0.265459
42312	9.441957	-0.279846	2.594424	-0.001054	0.001862	0.007617	-0.208085	-0.167246	0.963706	0.543060	-0.839214	-0.028383	0.813502	0.517444	0.265453
42313	9.384841	-0.276831	2.555873	-0.002953	0.002312	0.004668	-0.208092	-0.167232	0.963707	0.543049	-0.839222	-0.028371	0.813508	0.517437	0.265450
42314	9.429446	-0.272062	2.613915	-0.001456	0.003530	0.007032	-0.208093	-0.167243	0.963705	0.543055	-0.839217	-0.028377	0.813504	0.517440	0.265457
42315	9.419356	-0.255767	2.599796	-0.002606	0.004589	0.005265	-0.208114	-0.167246	0.963700	0.543048	-0.839222	-0.028370	0.813503	0.517432	0.265477
42316	9.384533	-0.278547	2.556818	-0.001469	0.001947	0.003900	-0.208121	-0.167222	0.963702	0.543048	-0.839223	-0.028346	0.813501	0.517438	0.265470
42317	9.453862	-0.291828	2.576683	-0.005517	0.001371	0.006788	-0.208108	-0.167222	0.963705	0.543021	-0.839240	-0.028361	0.813523	0.517410	0.265457
42318	9.372010	-0.270928	2.576335	-0.002592	0.006171	0.008397	-0.208126	-0.167260	0.963695	0.543023	-0.839238	-0.028385	0.813517	0.517400	0.265494
42319	9.428942	-0.275064	2.615418	0.002981	0.000854	0.001596	-0.208137	-0.167213	0.963700	0.543054	-0.839220	-0.028327	0.813493	0.517445	0.265479
42320	9.394170	-0.297767	2.572248	-0.003285	0.001616	0.007202	-0.208123	-0.167215	0.963703	0.543045	-0.839225	-0.028339	0.813503	0.517436	0.265467
42321	9.431203	-0.268319	2.582231	-0.003687	0.003284	0.006617	-0.208126	-0.167222	0.963701	0.543032	-0.839233	-0.028348	0.813511	0.517421	0.265474
42322	9.410178	-0.292004	2.611079	-0.001802	0.001251	0.006434	-0.208112	-0.167219	0.963705	0.543036	-0.839231	-0.028352	0.813512	0.517426	0.265460
42323	9.408750	-0.243664	2.587176	0.000029	0.003164	0.006264	-0.208117	-0.167223	0.963703	0.543053	-0.839220	-0.028347	0.813499	0.517442	0.265467
42324	9.410015	-0.293177	2.611538	-0.002952	0.002311	0.004667	-0.208125	-0.167211	0.963704	0.543044	-0.839226	-0.028335	0.813503	0.517436	0.265467
42325	9.430873	-0.270780	2.583181	0.000778	0.003773	0.007446	-0.208128	-0.167228	0.963700	0.543069	-0.839210	-0.028340	0.813486	0.517457	0.265479
42326	9.412240	-0.286498	2.578487	-0.004782	0.000398	0.004838	-0.208117	-0.167207	0.963706	0.543046	-0.839225	-0.028336	0.813504	0.517439	0.265458
42327	9.412189	-0.287150	2.578600	0.001180	0.002104	0.008031	-0.208103	-0.167221	0.963707	0.543075	-0.839205	-0.028345	0.813488	0.517467	0.265455
42328	9.408356	-0.246749	2.588317	-0.004836	0.004343	0.004850	-0.208122	-0.167218	0.963703	0.543050	-0.839222	-0.028340	0.813500	0.517441	0.265468
42329	9.411993	-0.288475	2.579167	-0.003284	0.001615	0.007202	-0.208109	-0.167221	0.963705	0.543042	-0.839227	-0.028354	0.813509	0.517432	0.265459
42330	9.418145	-0.265001	2.603258	-0.002951	0.002310	0.004667	-0.208116	-0.167208	0.963706	0.543032	-0.839234	-0.028341	0.813513	0.517425	0.265457
42331	9.427998	-0.282552	2.618022	-0.001453	0.003527	0.007032	-0.208119	-0.167220	0.963703	0.543038	-0.839229	-0.028348	0.813508	0.517428	0.265467
42332	9.401790	-0.273546	2.565395	-0.000303	0.002466	0.008799	-0.208107	-0.167242	0.963702	0.543059	-0.839215	-0.028368	0.813498	0.517443	0.265469
42333	9.407936	-0.250119	2.589519	-0.005183	0.002066	0.004253	-0.208113	-0.167224	0.963704	0.543029	-0.839235	-0.028358	0.813516	0.517417	0.265463
42334	9.440052	-0.293628	2.599828	0.000379	0.005438	0.006862	-0.208134	-0.167245	0.963696	0.543051	-0.839221	-0.028358	0.813496	0.517434	0.265493
42335	9.407710	-0.251280	2.590227	-0.002951	0.002310	0.004667	-0.208140	-0.167232	0.963697	0.543040	-0.839228	-0.028346	0.813502	0.517426	0.265491
42336	9.442275	-0.286933	2.566845	-0.003284	0.001613	0.007202	-0.208127	-0.167235	0.963699	0.543033	-0.839233	-0.028359	0.813510	0.517418	0.265481
42337	9.379077	-0.250806	2.571159	-0.003283	0.001613	0.007202	-0.208114	-0.167239	0.963701	0.543024	-0.839237	-0.028372	0.813519	0.517409	0.265472
42338	9.439724	-0.296299	2.600714	-0.002201	0.002917	0.005850	-0.208118	-0.167236	0.963701	0.543022	-0.839239	-0.028368	0.813520	0.517407	0.265474
42339	9.382640	-0.293171	2.562126	-0.001800	0.001248	0.006434	-0.208106	-0.167231	0.963704	0.543024	-0.839238	-0.028370	0.813521	0.517410	0.265461
42340	9.417306	-0.271408	2.605632	-0.002617	0.003005	0.002133	-0.208133	-0.167198	0.963704	0.543010	-0.839248	-0.028330	0.813524	0.517405	0.265465
42341	9.445709	-0.273766	2.625340	0.000781	0.003768	0.007447	-0.208136	-0.167215	0.963701	0.543035	-0.839232	-0.028335	0.813506	0.517426	0.265478
42342	9.369999	-0.285865	2.582031	-0.004417	0.004253	0.008567	-0.208137	-0.167247	0.963695	0.543024	-0.839238	-0.028367	0.813513	0.517405	0.265496
42343	9.450327	-0.259344	2.558944	0.000016	0.001580	0.003132	-0.208146	-0.167217	0.963698	0.543034	-0.839233	-0.028332	0.813504	0.517423	0.265487
42344	9.379777	-0.303951	2.596936	-0.003283	0.001612	0.007202	-0.208134	-0.167221	0.963700	0.543027	-0.839237	-0.028345	0.813512	0.517415	0.265480
42345	9.437858	-0.251469	2.578308	-0.000717	0.002552	0.005082	-0.208140	-0.167212	0.963700	0.543035	-0.839232	-0.028331	0.813505	0.517426	0.265480
42346	9.398195	-0.290067	2.602279	-0.002200	0.002916	0.005850	-0.208143	-0.167211	0.963700	0.543034	-0.839233	-0.028329	0.813505	0.517425	0.265481
42347	9.425359	-0.243617	2.597779	-0.001800	0.001247	0.006434	-0.208131	-0.167207	0.963703	0.543036	-0.839231	-0.028331	0.813507	0.517429	0.265469
42348	9.451207	-0.311198	2.584145	-0.001518	0.005889	0.003913	-0.208169	-0.167206	0.963695	0.543037	-0.839231	-0.028309	0.813496	0.517429	0.265501
42349	9.390405	-0.266922	2.555147	-0.001050	0.001854	0.007617	-0.208155	-0.167215	0.963696	0.543048	-0.839224	-0.028321	0.813493	0.517438	0.265494
42350	9.416370	-0.277451	2.608376	-0.004082	0.004949	0.006032	-0.208178	-0.167223	0.963690	0.543030	-0.839236	-0.028321	0.813499	0.517417	0.265518
42351	9.428629	-0.287222	2.589587	-0.000650	0.000185	0.008201	-0.208148	-0.167228	0.963696	0.543045	-0.839225	-0.028337	0.813496	0.517432	0.265495
42352	9.396398	-0.244968	2.579753	-0.004431	0.002673	0.005434	-0.208153	-0.167222	0.963696	0.543024	-0.839239	-0.028336	0.813509	0.517412	0.265495
42353	9.428505	-0.288571	2.589890	-0.001799	0.001246	0.006434	-0.208141	-0.167217	0.963699	0.543027	-0.839237	-0.028338	0.813511	0.517416	0.265483
42354	9.393840	-0.254113	2.613607	-0.002949	0.002308	0.004667	-0.208144	-0.167201	0.963701	0.543016	-0.839245	-0.028325	0.813517	0.517409	0.265477
42355	9.409775	-0.304769	2.585381	-0.002199	0.002915	0.005850	-0.208149	-0.167201	0.963700	0.543013	-0.839246	-0.028323	0.813517	0.517407	0.265481
42356	9.415901	-0.281264	2.609660	-0.002598	0.004583	0.005265	-0.208170	-0.167204	0.963695	0.543008	-0.839250	-0.028316	0.813516	0.517400	0.265500
42357	9.418231	-0.273869	2.576475	-0.000716	0.002550	0.005082	-0.208176	-0.167195	0.963695	0.543016	-0.839245	-0.028303	0.813509	0.517410	0.265500
42358	9.399573	-0.289546	2.571754	-0.003282	0.001610	0.007201	-0.208161	-0.167198	0.963698	0.543008	-0.839250	-0.028316	0.813517	0.517402	0.265489
42359	9.405693	-0.266268	2.596047	-0.002581	0.006161	0.008398	-0.208179	-0.167235	0.963688	0.543008	-0.839249	-0.028339	0.813513	0.517391	0.265524
42360	9.399344	-0.291062	2.572423	-0.002549	0.000638	0.005251	-0.208165	-0.167216	0.963694	0.543002	-0.839253	-0.028331	0.813521	0.517390	0.265502
42361	9.389370	-0.274721	2.558121	-0.001448	0.003520	0.007032	-0.208169	-0.167228	0.963691	0.543008	-0.839249	-0.028338	0.813516	0.517393	0.265512
42362	9.427677	-0.294350	2.592254	-0.003281	0.001609	0.007201	-0.208157	-0.167231	0.963693	0.543000	-0.839254	-0.028349	0.813524	0.517384	0.265503
42363	9.407807	-0.261037	2.563461	-0.000716	0.002549	0.005082	-0.208163	-0.167221	0.963694	0.543008	-0.839249	-0.028335	0.813517	0.517395	0.265503
42364	9.427512	-0.295589	2.592712	-0.003680	0.003278	0.006617	-0.208166	-0.167230	0.963691	0.542997	-0.839256	-0.028345	0.813524	0.517381	0.265510
42365	9.417523	-0.279224	2.578489	-0.000715	0.002549	0.005082	-0.208172	-0.167221	0.963692	0.543005	-0.839251	-0.028331	0.813517	0.517392	0.265511
42366	9.414977	-0.287753	2.612285	-0.001448	0.003519	0.007032	-0.208176	-0.167234	0.963688	0.543013	-0.839246	-0.028337	0.813511	0.517396	0.265522
42367	9.398722	-0.295558	2.574180	-0.001448	0.003519	0.007032	-0.208180	-0.167246	0.963686	0.543019	-0.839242	-0.028344	0.813506	0.517399	0.265531
42368	9.398651	-0.296186	2.574369	-0.002548	0.000638	0.005251	-0.208167	-0.167225	0.963692	0.543011	-0.839247	-0.028335	0.813514	0.517397	0.265509
42369	9.414761	-0.289644	2.612855	-0.002548	0.000637	0.005251	-0.208157	-0.167208	0.963697	0.543005	-0.839252	-0.028327	0.813521	0.517396	0.265491
42370	9.414710	-0.290297	2.612967	-0.001048	0.001850	0.007617	-0.208144	-0.167218	0.963698	0.543018	-0.839243	-0.028340	0.813516	0.517407	0.265486
42371	9.417075	-0.283086	2.579703	-0.001447	0.003518	0.007032	-0.208147	-0.167231	0.963695	0.543024	-0.839238	-0.028347	0.813511	0.517410	0.265495
42372	9.386057	-0.289690	2.594007	-0.000316	0.000879	0.005667	-0.208135	-0.167219	0.963700	0.543039	-0.839229	-0.028339	0.813504	0.517428	0.265480
42373	9.423185	-0.260261	2.604042	-0.003679	0.003277	0.006616	-0.208138	-0.167227	0.963698	0.543026	-0.839237	-0.028348	0.813512	0.517413	0.265486
42374	9.392170	-0.266872	2.618331	-0.000316	0.000878	0.005667	-0.208124	-0.167213	0.963703	0.543040	-0.839229	-0.028339	0.813506	0.517431	0.265467
42375	9.447723	-0.279485	2.566428	-0.001113	0.004216	0.004498	-0.208147	-0.167208	0.963699	0.543044	-0.839227	-0.028321	0.813498	0.517436	0.265484
42376	9.388207	-0.284122	2.561363	-0.005512	0.001366	0.006785	-0.208133	-0.167208	0.963702	0.543018	-0.839243	-0.028337	0.813518	0.517410	0.265471
42377	9.435229	-0.271705	2.585866	-0.002946	0.002306	0.004667	-0.208139	-0.167194	0.963703	0.543007	-0.839250	-0.028325	0.813524	0.517402	0.265468
42378	9.406665	-0.270305	2.566688	-0.002196	0.002911	0.005850	-0.208143	-0.167192	0.963703	0.543005	-0.839251	-0.028322	0.813524	0.517401	0.265471
42379	9.385483	-0.293849	2.595617	-0.002594	0.004580	0.005265	-0.208164	-0.167195	0.963698	0.542999	-0.839256	-0.028315	0.813523	0.517393	0.265490
42380	9.410240	-0.255288	2.624825	-0.000714	0.002546	0.005083	-0.208167	-0.167186	0.963699	0.543008	-0.839250	-0.028302	0.813516	0.517405	0.265488
42381	9.416256	-0.289044	2.582030	-0.005511	0.001366	0.006784	-0.208154	-0.167186	0.963702	0.542981	-0.839267	-0.028317	0.813538	0.517377	0.265476
42382	9.406312	-0.272685	2.567730	0.001519	0.002787	0.005499	-0.208160	-0.167181	0.963701	0.543009	-0.839250	-0.028301	0.813518	0.517407	0.265479
42383	9.406197	-0.273260	2.568090	-0.004075	0.004945	0.006032	-0.208180	-0.167192	0.963695	0.542992	-0.839261	-0.028305	0.813524	0.517386	0.265501
42384	9.391297	-0.272891	2.620840	-0.002881	-0.000063	0.007785	-0.208151	-0.167193	0.963701	0.542989	-0.839262	-0.028323	0.813533	0.517384	0.265477
42385	9.403600	-0.282725	2.601884	-0.003279	0.001606	0.007200	-0.208138	-0.167197	0.963703	0.542981	-0.839267	-0.028336	0.813542	0.517375	0.265468
42386	9.403529	-0.283355	2.602073	-0.000713	0.002545	0.005083	-0.208143	-0.167185	0.963704	0.542989	-0.839262	-0.028321	0.813535	0.517386	0.265466
42387	9.403448	-0.283851	2.602311	-0.000713	0.002545	0.005083	-0.208149	-0.167176	0.963705	0.542997	-0.839257	-0.028307	0.813528	0.517397	0.265466
42388	9.421963	-0.269438	2.607527	-0.001444	0.003515	0.007033	-0.208154	-0.167187	0.963702	0.543003	-0.839253	-0.028311	0.813523	0.517400	0.265476
42389	9.405755	-0.277011	2.569306	-0.002213	0.001335	0.002717	-0.208162	-0.167151	0.963706	0.542995	-0.839260	-0.028279	0.813526	0.517400	0.265465
42390	9.421811	-0.270452	2.607974	-0.001444	0.003515	0.007033	-0.208165	-0.167164	0.963703	0.543002	-0.839255	-0.028286	0.813521	0.517404	0.265474
42391	9.421700	-0.271153	2.608301	-0.001444	0.003514	0.007033	-0.208168	-0.167176	0.963700	0.543008	-0.839251	-0.028292	0.813516	0.517407	0.265483
42392	9.393125	-0.269815	2.589172	-0.002194	0.002909	0.005849	-0.208173	-0.167173	0.963700	0.543006	-0.839252	-0.028289	0.813516	0.517406	0.265485
42393	9.433862	-0.281537	2.589800	-0.001046	0.001845	0.007617	-0.208159	-0.167182	0.963701	0.543016	-0.839245	-0.028300	0.813513	0.517415	0.265479
42394	9.392957	-0.271210	2.589639	-0.001443	0.003514	0.007033	-0.208161	-0.167191	0.963699	0.543022	-0.839241	-0.028305	0.813509	0.517418	0.265486
42395	9.433680	-0.282869	2.590317	-0.002944	0.002304	0.004666	-0.208167	-0.167177	0.963700	0.543011	-0.839249	-0.028293	0.813514	0.517410	0.265483
42396	9.431113	-0.291502	2.624030	-0.002527	0.002209	0.008383	-0.207973	-0.167050	0.963764	0.543003	-0.839254	-0.028292	0.813569	0.517443	0.265251
42397	9.405059	-0.282247	2.571283	-0.005176	0.002064	0.004250	-0.207979	-0.167031	0.963766	0.542973	-0.839274	-0.028282	0.813588	0.517417	0.265245
42398	9.421129	-0.275611	2.609896	0.000019	0.001574	0.003133	-0.207985	-0.166999	0.963771	0.542983	-0.839268	-0.028247	0.813579	0.517436	0.265233
42399	9.392610	-0.274257	2.590577	-0.003612	0.000904	0.009734	-0.207952	-0.167020	0.963774	0.542977	-0.839271	-0.028286	0.813592	0.517425	0.265216
42400	9.420956	-0.277075	2.610365	-0.002236	0.006851	0.005865	-0.207986	-0.167042	0.963763	0.542977	-0.839271	-0.028286	0.813583	0.517418	0.265256
42401	9.414560	-0.301702	2.586762	-0.000314	0.000874	0.005667	-0.207975	-0.167028	0.963768	0.542990	-0.839263	-0.028277	0.813577	0.517435	0.265241
42402	9.410929	-0.261220	2.596412	-0.002193	0.002908	0.005849	-0.207977	-0.167031	0.963767	0.542991	-0.839262	-0.028278	0.813576	0.517435	0.265244
42403	9.414407	-0.302829	2.587188	-0.000711	0.002543	0.005083	-0.207983	-0.167022	0.963767	0.542999	-0.839257	-0.028264	0.813569	0.517446	0.265244
42404	9.410765	-0.262448	2.596884	-0.002527	0.002207	0.008383	-0.207966	-0.167039	0.963768	0.543001	-0.839255	-0.028288	0.813572	0.517444	0.265239
42405	9.432887	-0.289099	2.592514	-0.002212	0.001334	0.002716	-0.207975	-0.167004	0.963772	0.542992	-0.839262	-0.028255	0.813576	0.517444	0.265227
42406	9.383181	-0.310604	2.601980	-0.002569	0.006150	0.008399	-0.207993	-0.167042	0.963761	0.542993	-0.839261	-0.028277	0.813571	0.517434	0.265263
42407	9.422808	-0.273361	2.578764	-0.002943	0.002303	0.004666	-0.207999	-0.167028	0.963762	0.542983	-0.839268	-0.028265	0.813576	0.517427	0.265260
42408	9.391772	-0.279928	2.593005	-0.003277	0.001602	0.007200	-0.207985	-0.167029	0.963765	0.542974	-0.839273	-0.028277	0.813586	0.517418	0.265249
42409	9.441293	-0.259701	2.584096	-0.002192	0.002907	0.005849	-0.207989	-0.167028	0.963765	0.542972	-0.839275	-0.028275	0.813586	0.517416	0.265252
42410	9.403925	-0.290254	2.574537	-0.002588	0.004576	0.005266	-0.208011	-0.167032	0.963759	0.542967	-0.839278	-0.028268	0.813584	0.517409	0.265272
42411	9.412610	-0.258841	2.565349	-0.002192	0.002906	0.005849	-0.208015	-0.167031	0.963758	0.542964	-0.839280	-0.028265	0.813584	0.517407	0.265275
42412	9.422351	-0.276464	2.580104	-0.002191	0.002906	0.005849	-0.208018	-0.167029	0.963758	0.542963	-0.839281	-0.028263	0.813585	0.517406	0.265276
42413	9.438363	-0.270086	2.618874	0.000791	0.003748	0.007450	-0.208021	-0.167046	0.963755	0.542988	-0.839264	-0.028268	0.813567	0.517427	0.265288
42414	9.406101	-0.284805	2.541990	-0.003986	-0.002945	0.006000	-0.207975	-0.167015	0.963770	0.542972	-0.839275	-0.028271	0.813589	0.517421	0.265233
42415	9.403559	-0.293445	2.575511	-0.001440	0.003509	0.007033	-0.207978	-0.167027	0.963767	0.542979	-0.839270	-0.028278	0.813584	0.517424	0.265242
42416	9.422097	-0.279245	2.580731	-0.002525	0.002205	0.008383	-0.207965	-0.167044	0.963767	0.542979	-0.839269	-0.028299	0.813587	0.517420	0.265240
42417	9.431824	-0.297043	2.595481	-0.001440	0.003509	0.007033	-0.207968	-0.167056	0.963764	0.542985	-0.839265	-0.028306	0.813582	0.517423	0.265249
42418	9.381102	-0.269565	2.580863	-0.002190	0.002905	0.005849	-0.207970	-0.167055	0.963764	0.542984	-0.839266	-0.028304	0.813582	0.517422	0.265250
42419	9.421809	-0.281284	2.581560	-0.002190	0.002905	0.005849	-0.207974	-0.167054	0.963763	0.542982	-0.839267	-0.028302	0.813583	0.517420	0.265253
42420	9.431526	-0.299140	2.596324	-0.003255	0.003172	0.010333	-0.207954	-0.167093	0.963761	0.542983	-0.839265	-0.028347	0.813587	0.517411	0.265258
42421	9.399473	-0.256713	2.586573	-0.002211	0.001334	0.002716	-0.207963	-0.167058	0.963765	0.542974	-0.839272	-0.028314	0.813591	0.517411	0.265246
42422	9.405406	-0.290392	2.543925	-0.002564	0.006146	0.008399	-0.207982	-0.167095	0.963754	0.542975	-0.839271	-0.028336	0.813586	0.517401	0.265282
42423	9.440084	-0.269042	2.587555	0.000812	-0.001768	0.004301	-0.207957	-0.167057	0.963767	0.542994	-0.839259	-0.028310	0.813580	0.517432	0.265241
42424	9.411576	-0.267509	2.568251	-0.004066	0.004940	0.006032	-0.207977	-0.167067	0.963761	0.542977	-0.839270	-0.028314	0.813586	0.517411	0.265262
42425	9.390303	-0.291154	2.597085	-0.003275	0.001600	0.007199	-0.207963	-0.167070	0.963763	0.542969	-0.839275	-0.028327	0.813595	0.517402	0.265252
42426	9.427510	-0.261913	2.607220	-0.002189	0.002904	0.005849	-0.207970	-0.167068	0.963762	0.542966	-0.839277	-0.028322	0.813595	0.517400	0.265256
42427	9.392692	-0.284446	2.563962	-0.000313	0.000869	0.005667	-0.207958	-0.167055	0.963767	0.542979	-0.839269	-0.028313	0.813589	0.517417	0.265240
42428	9.424832	-0.271130	2.641113	-0.002919	0.003872	0.007799	-0.207958	-0.167074	0.963763	0.542975	-0.839271	-0.028331	0.813592	0.517408	0.265250
42429	9.401351	-0.253781	2.554959	-0.000708	0.002539	0.005083	-0.207964	-0.167065	0.963764	0.542983	-0.839266	-0.028317	0.813585	0.517419	0.265250
42430	9.398740	-0.262251	2.588681	-0.002940	0.002301	0.004666	-0.207970	-0.167049	0.963765	0.542972	-0.839273	-0.028303	0.813591	0.517412	0.265246
42431	9.420812	-0.288866	2.584360	-0.002940	0.002301	0.004666	-0.207976	-0.167035	0.963766	0.542962	-0.839281	-0.028291	0.813596	0.517404	0.265244
42432	9.379932	-0.278328	2.584186	-0.001437	0.003506	0.007033	-0.207978	-0.167046	0.963764	0.542968	-0.839276	-0.028298	0.813591	0.517408	0.265252
42433	9.449071	-0.292333	2.604345	-0.002523	0.002201	0.008383	-0.207963	-0.167063	0.963764	0.542969	-0.839275	-0.028320	0.813595	0.517404	0.265248
42434	9.400986	-0.256963	2.555985	-0.003631	-0.000674	0.006599	-0.207935	-0.167051	0.963772	0.542958	-0.839282	-0.028329	0.813609	0.517397	0.265218
42435	9.439179	-0.276803	2.590037	-0.003669	0.003268	0.006616	-0.207939	-0.167058	0.963770	0.542945	-0.839290	-0.028337	0.813616	0.517382	0.265224
42436	9.391997	-0.290395	2.565841	-0.001042	0.001835	0.007617	-0.207923	-0.167066	0.963772	0.542957	-0.839282	-0.028349	0.813613	0.517392	0.265215
42437	9.398198	-0.267075	2.590154	-0.001831	0.005175	0.006450	-0.207942	-0.167082	0.963765	0.542959	-0.839281	-0.028351	0.813607	0.517390	0.265240
42438	9.429084	-0.261906	2.576427	-0.003274	0.001598	0.007199	-0.207927	-0.167082	0.963768	0.542950	-0.839286	-0.028363	0.813616	0.517381	0.265228
42439	9.369581	-0.266429	2.571177	0.001190	0.002071	0.008035	-0.207913	-0.167095	0.963769	0.542980	-0.839266	-0.028373	0.813600	0.517408	0.265224
42440	9.420043	-0.295337	2.586431	-0.004062	0.004937	0.006032	-0.207934	-0.167106	0.963763	0.542963	-0.839277	-0.028376	0.813606	0.517388	0.265246
42441	9.410172	-0.278855	2.572185	-0.001064	0.000265	0.004483	-0.207924	-0.167079	0.963770	0.542967	-0.839275	-0.028357	0.813606	0.517399	0.265224
42442	9.397773	-0.270367	2.591358	-0.003667	0.003267	0.006615	-0.207926	-0.167087	0.963768	0.542956	-0.839282	-0.028366	0.813613	0.517385	0.265229
42443	9.419821	-0.297168	2.587031	-0.001793	0.001232	0.006433	-0.207914	-0.167082	0.963771	0.542958	-0.839281	-0.028368	0.813614	0.517389	0.265216
42444	9.418892	-0.248774	2.563035	-0.004382	-0.001277	0.005414	-0.207889	-0.167055	0.963782	0.542937	-0.839294	-0.028365	0.813635	0.517376	0.265180
42445	9.419747	-0.298335	2.587164	0.001132	0.004442	0.004918	-0.207911	-0.167054	0.963777	0.542960	-0.839280	-0.028344	0.813614	0.517399	0.265199
42446	9.409911	-0.281930	2.572807	-0.002485	-0.001744	0.008365	-0.207867	-0.167047	0.963788	0.542960	-0.839280	-0.028363	0.813625	0.517402	0.265158
42447	9.438325	-0.284726	2.592288	-0.002938	0.002300	0.004666	-0.207873	-0.167033	0.963789	0.542949	-0.839287	-0.028351	0.813631	0.517395	0.265156
42448	9.419552	-0.300247	2.587652	-0.001828	0.005173	0.006450	-0.207890	-0.167048	0.963783	0.542951	-0.839285	-0.028354	0.813625	0.517393	0.265178
42449	9.393860	-0.233697	2.602072	-0.002186	0.002901	0.005850	-0.207894	-0.167047	0.963782	0.542949	-0.839287	-0.028351	0.813625	0.517391	0.265181
42450	9.413013	-0.325491	2.564297	-0.002186	0.002901	0.005850	-0.207898	-0.167045	0.963781	0.542947	-0.839288	-0.028348	0.813626	0.517389	0.265183
42451	9.415824	-0.261012	2.597968	-0.002544	0.000629	0.005249	-0.207888	-0.167027	0.963787	0.542941	-0.839293	-0.028340	0.813633	0.517388	0.265164
42452	9.399670	-0.268492	2.559634	-0.000705	0.002535	0.005084	-0.207891	-0.167015	0.963788	0.542949	-0.839288	-0.028325	0.813626	0.517399	0.265161
42453	9.409353	-0.286152	2.574382	-0.003666	0.003266	0.006615	-0.207894	-0.167022	0.963786	0.542936	-0.839296	-0.028334	0.813634	0.517384	0.265167
42454	9.415556	-0.262844	2.598756	-0.004059	0.004936	0.006032	-0.207915	-0.167034	0.963779	0.542920	-0.839306	-0.028338	0.813639	0.517364	0.265191
42455	9.409179	-0.287497	2.574867	0.000475	-0.002476	0.006833	-0.207871	-0.167013	0.963793	0.542942	-0.839292	-0.028337	0.813636	0.517393	0.265143
42456	9.409152	-0.288107	2.574899	0.000047	0.003135	0.006268	-0.207876	-0.167017	0.963791	0.542960	-0.839281	-0.028332	0.813623	0.517410	0.265150
42457	9.437517	-0.290806	2.594556	-0.000311	0.000864	0.005667	-0.207865	-0.167004	0.963796	0.542972	-0.839273	-0.028322	0.813617	0.517427	0.265134
42458	9.386886	-0.263134	2.579898	-0.001826	0.005171	0.006450	-0.207884	-0.167022	0.963788	0.542976	-0.839270	-0.028326	0.813610	0.517426	0.265160
42459	9.427555	-0.275002	2.580653	-0.001791	0.001229	0.006433	-0.207872	-0.167017	0.963792	0.542979	-0.839269	-0.028328	0.813611	0.517430	0.265147
42460	9.399068	-0.273569	2.561308	-0.003271	0.001595	0.007198	-0.207859	-0.167021	0.963794	0.542972	-0.839273	-0.028341	0.813619	0.517422	0.265138
42461	9.408759	-0.291258	2.575977	-0.000704	0.002534	0.005084	-0.207864	-0.167012	0.963794	0.542980	-0.839268	-0.028327	0.813612	0.517433	0.265138
42462	9.408664	-0.291855	2.576258	-0.001432	0.003500	0.007034	-0.207865	-0.167024	0.963792	0.542988	-0.839262	-0.028335	0.813607	0.517437	0.265145
42463	9.405137	-0.251620	2.586072	-0.001767	0.002796	0.009567	-0.207849	-0.167054	0.963790	0.542997	-0.839256	-0.028367	0.813605	0.517439	0.265148
42464	9.408482	-0.293361	2.576753	-0.003688	0.001698	0.003481	-0.207854	-0.167029	0.963794	0.542980	-0.839267	-0.028348	0.813615	0.517429	0.265138
42465	9.445777	-0.264073	2.586870	-0.001791	0.001228	0.006433	-0.207841	-0.167024	0.963797	0.542982	-0.839265	-0.028350	0.813617	0.517433	0.265125
42466	9.408364	-0.294472	2.577056	-0.000704	0.002533	0.005084	-0.207849	-0.167016	0.963797	0.542992	-0.839260	-0.028335	0.813608	0.517444	0.265128
42467	9.414618	-0.271032	2.601313	-0.002183	0.002898	0.005850	-0.207854	-0.167015	0.963796	0.542990	-0.839261	-0.028332	0.813609	0.517442	0.265131
42468	9.398420	-0.278664	2.563137	-0.002911	0.003864	0.007799	-0.207857	-0.167038	0.963791	0.542988	-0.839261	-0.028351	0.813609	0.517434	0.265146
42469	9.426788	-0.281521	2.582754	0.000082	-0.000808	0.006250	-0.207829	-0.167021	0.963800	0.543005	-0.839251	-0.028347	0.813604	0.517458	0.265114
42470	9.395699	-0.287852	2.596989	-0.003720	0.005638	0.003499	-0.207868	-0.167016	0.963793	0.542987	-0.839263	-0.028326	0.813607	0.517439	0.265143
42471	9.411629	-0.281464	2.635992	0.000409	0.005403	0.006870	-0.207887	-0.167036	0.963785	0.543008	-0.839249	-0.028326	0.813588	0.517455	0.265171
42472	9.426429	-0.283182	2.583881	-0.002183	0.002898	0.005849	-0.207890	-0.167038	0.963784	0.543009	-0.839249	-0.028326	0.813587	0.517455	0.265174
42473	9.404273	-0.257712	2.588614	-0.003270	0.001593	0.007198	-0.207876	-0.167041	0.963787	0.543001	-0.839254	-0.028340	0.813596	0.517446	0.265164
42474	9.413910	-0.275492	2.603406	-0.001823	0.005168	0.006451	-0.207896	-0.167057	0.963779	0.543004	-0.839252	-0.028341	0.813588	0.517444	0.265190
42475	9.397708	-0.282980	2.565273	-0.000703	0.002531	0.005084	-0.207902	-0.167048	0.963780	0.543012	-0.839247	-0.028327	0.813581	0.517455	0.265190
42476	9.403948	-0.259524	2.589614	-0.002575	0.004567	0.005266	-0.207922	-0.167050	0.963775	0.543006	-0.839251	-0.028320	0.813580	0.517448	0.265208
42477	9.425965	-0.286276	2.585230	-0.004382	-0.001278	0.005412	-0.207895	-0.167024	0.963786	0.542985	-0.839265	-0.028319	0.813601	0.517434	0.265170
42478	9.413614	-0.277650	2.604247	0.000025	0.001565	0.003134	-0.207903	-0.166994	0.963789	0.542997	-0.839258	-0.028284	0.813591	0.517454	0.265161
42479	9.416134	-0.270156	2.570995	-0.001430	0.003496	0.007034	-0.207906	-0.167006	0.963786	0.543003	-0.839254	-0.028291	0.813586	0.517457	0.265170
42480	9.413402	-0.278824	2.604886	-0.001822	0.005167	0.006451	-0.207925	-0.167024	0.963779	0.543007	-0.839251	-0.028295	0.813579	0.517456	0.265196
42481	9.425637	-0.288564	2.586174	-0.001790	0.001226	0.006432	-0.207912	-0.167019	0.963783	0.543010	-0.839250	-0.028297	0.813580	0.517460	0.265183
42482	9.397148	-0.287007	2.566875	-0.002182	0.002896	0.005849	-0.207916	-0.167019	0.963782	0.543009	-0.839250	-0.028295	0.813580	0.517459	0.265186
42483	9.403418	-0.263589	2.591128	-0.002934	0.002297	0.004665	-0.207922	-0.167005	0.963783	0.542998	-0.839257	-0.028283	0.813586	0.517452	0.265183
42484	9.425401	-0.290138	2.586856	-0.000367	0.003235	0.002551	-0.207950	-0.166978	0.963782	0.543005	-0.839255	-0.028242	0.813574	0.517465	0.265193
42485	9.425327	-0.290759	2.587058	-0.001373	0.001119	0.010150	-0.207917	-0.167004	0.963784	0.543018	-0.839245	-0.028278	0.813574	0.517473	0.265179
42486	9.403224	-0.265374	2.591649	-0.004774	0.000392	0.004828	-0.207906	-0.166979	0.963791	0.542992	-0.839262	-0.028271	0.813594	0.517453	0.265156
42487	9.415534	-0.275145	2.572660	-0.000646	0.000154	0.008200	-0.207876	-0.166983	0.963797	0.543007	-0.839251	-0.028287	0.813591	0.517468	0.265133
42488	9.415440	-0.275743	2.572941	-0.001484	0.005871	0.003918	-0.207915	-0.166983	0.963788	0.543008	-0.839251	-0.028265	0.813581	0.517469	0.265166
42489	9.425030	-0.293390	2.587842	-0.003660	0.003261	0.006615	-0.207918	-0.166990	0.963787	0.542996	-0.839259	-0.028273	0.813588	0.517454	0.265172
42490	9.421554	-0.253096	2.597711	-0.002908	0.003860	0.007799	-0.207919	-0.167008	0.963783	0.542992	-0.839262	-0.028290	0.813591	0.517444	0.265182
42491	9.377674	-0.307563	2.564077	-0.001819	0.005165	0.006451	-0.207938	-0.167024	0.963776	0.542994	-0.839260	-0.028292	0.813584	0.517441	0.265207
42492	9.433649	-0.263449	2.579453	-0.001454	0.001930	0.003900	-0.207943	-0.167002	0.963779	0.542995	-0.839260	-0.028271	0.813582	0.517449	0.265199
42493	9.402531	-0.269782	2.593709	0.000804	0.003727	0.007454	-0.207945	-0.167019	0.963776	0.543021	-0.839243	-0.028276	0.813565	0.517470	0.265211
42494	9.433533	-0.264668	2.579752	-0.003991	-0.002949	0.005993	-0.207901	-0.166991	0.963790	0.543006	-0.839252	-0.028280	0.813586	0.517464	0.265158
42495	9.414801	-0.280339	2.574783	-0.004386	0.004225	0.008564	-0.207901	-0.167020	0.963785	0.542992	-0.839261	-0.028310	0.813595	0.517442	0.265174
42496	9.383653	-0.286877	2.589111	0.000052	0.003127	0.006269	-0.207902	-0.167025	0.963784	0.543011	-0.839248	-0.028308	0.813582	0.517460	0.265178
42497	9.424300	-0.298784	2.589882	-0.002180	0.002894	0.005849	-0.207906	-0.167024	0.963783	0.543009	-0.839250	-0.028305	0.813582	0.517458	0.265181
42498	9.402177	-0.273274	2.594627	-0.001036	0.001822	0.007617	-0.207891	-0.167034	0.963785	0.543021	-0.839241	-0.028318	0.813578	0.517469	0.265174
42499	9.414416	-0.282965	2.575901	-0.001091	0.004199	0.004502	-0.207914	-0.167028	0.963781	0.543025	-0.839239	-0.028299	0.813570	0.517474	0.265190
42500	9.411698	-0.291687	2.609632	-0.001372	0.001115	0.010149	-0.207883	-0.167057	0.963783	0.543041	-0.839228	-0.028336	0.813567	0.517483	0.265180
42501	9.404562	-0.267351	2.561810	-0.005164	0.002063	0.004245	-0.207889	-0.167038	0.963784	0.543011	-0.839248	-0.028326	0.813585	0.517457	0.265174
42502	9.416810	-0.277061	2.543057	-0.001426	0.003492	0.007034	-0.207892	-0.167050	0.963782	0.543018	-0.839243	-0.028332	0.813580	0.517461	0.265183
42503	9.410737	-0.244704	2.586417	-0.001426	0.003491	0.007034	-0.207895	-0.167062	0.963779	0.543025	-0.839238	-0.028339	0.813575	0.517465	0.265192
42504	9.413947	-0.286393	2.577238	-0.002569	0.004564	0.005267	-0.207914	-0.167063	0.963775	0.543019	-0.839243	-0.028331	0.813574	0.517457	0.265209
42505	9.429918	-0.280196	2.616028	-0.003267	0.001588	0.007197	-0.207901	-0.167066	0.963777	0.543010	-0.839247	-0.028345	0.813583	0.517448	0.265199
42506	9.400753	-0.229580	2.572800	-0.002178	0.002893	0.005849	-0.207906	-0.167069	0.963775	0.543011	-0.839247	-0.028344	0.813581	0.517448	0.265205
42507	9.429739	-0.281537	2.616528	-0.001425	0.003491	0.007034	-0.207909	-0.167081	0.963773	0.543018	-0.839242	-0.028351	0.813576	0.517452	0.265214
42508	9.401216	-0.280104	2.597377	-0.004383	0.004222	0.008564	-0.207906	-0.167111	0.963768	0.543006	-0.839249	-0.028382	0.813585	0.517431	0.265227
42509	9.401135	-0.280739	2.597601	-0.006669	0.000866	0.001874	-0.207915	-0.167066	0.963774	0.542959	-0.839281	-0.028353	0.813614	0.517394	0.265209
42510	9.419739	-0.266485	2.602948	-0.002541	0.006124	0.008402	-0.207930	-0.167108	0.963764	0.542962	-0.839277	-0.028380	0.813607	0.517386	0.265244
42511	9.419605	-0.267153	2.603365	0.001533	0.002757	0.005505	-0.207935	-0.167103	0.963763	0.542990	-0.839260	-0.028364	0.813588	0.517416	0.265247
42512	9.413155	-0.291725	2.579530	-0.003267	0.001587	0.007197	-0.207922	-0.167110	0.963765	0.542985	-0.839263	-0.028379	0.813595	0.517409	0.265239
42513	9.381395	-0.249118	2.569707	-0.001788	0.001220	0.006432	-0.207909	-0.167105	0.963768	0.542987	-0.839261	-0.028381	0.813596	0.517413	0.265226
42514	9.460140	-0.280477	2.604374	-0.004409	0.002660	0.005429	-0.207912	-0.167099	0.963769	0.542967	-0.839274	-0.028381	0.813609	0.517394	0.265224
42515	9.372229	-0.282404	2.579510	-0.003266	0.001586	0.007197	-0.207898	-0.167103	0.963771	0.542959	-0.839279	-0.028395	0.813618	0.517385	0.265214
42516	9.419298	-0.270601	2.604119	-0.002877	-0.000085	0.007779	-0.207868	-0.167104	0.963778	0.542957	-0.839280	-0.028413	0.813627	0.517384	0.265189
42517	9.410208	-0.303089	2.613701	-0.000362	0.003232	0.002552	-0.207893	-0.167077	0.963777	0.542963	-0.839277	-0.028374	0.813617	0.517396	0.265196
42518	9.431476	-0.280703	2.585573	-0.001424	0.003488	0.007035	-0.207894	-0.167090	0.963774	0.542971	-0.839272	-0.028382	0.813611	0.517401	0.265204
42519	9.412649	-0.296248	2.580860	-0.001424	0.003488	0.007035	-0.207896	-0.167102	0.963772	0.542977	-0.839267	-0.028389	0.813606	0.517404	0.265213
42520	9.406650	-0.263856	2.624015	-0.002151	-0.001049	0.005829	-0.207869	-0.167080	0.963782	0.542976	-0.839268	-0.028385	0.813614	0.517410	0.265178
42521	9.412558	-0.297505	2.581049	-0.002176	0.002890	0.005849	-0.207873	-0.167079	0.963781	0.542974	-0.839270	-0.028383	0.813614	0.517408	0.265181
42522	9.412460	-0.298167	2.581330	-0.003655	0.003256	0.006614	-0.207875	-0.167086	0.963779	0.542962	-0.839277	-0.028391	0.813621	0.517394	0.265186
42523	9.421410	-0.266872	2.572178	-0.002176	0.002890	0.005849	-0.207879	-0.167085	0.963778	0.542960	-0.839278	-0.028389	0.813622	0.517392	0.265189
42524	9.409617	-0.307407	2.615324	-0.002929	0.002293	0.004664	-0.207886	-0.167070	0.963780	0.542950	-0.839286	-0.028376	0.813627	0.517385	0.265186
42525	9.421267	-0.268080	2.572576	-0.005497	0.001354	0.006776	-0.207873	-0.167069	0.963783	0.542923	-0.839303	-0.028391	0.813649	0.517358	0.265173
42526	9.418533	-0.276729	2.606241	0.001535	0.002754	0.005506	-0.207877	-0.167066	0.963782	0.542952	-0.839284	-0.028376	0.813628	0.517389	0.265176
42527	9.421107	-0.269317	2.573030	-0.005886	0.003025	0.006193	-0.207880	-0.167068	0.963781	0.542920	-0.839304	-0.028387	0.813648	0.517355	0.265179
42528	9.411953	-0.301934	2.582739	0.000056	0.003120	0.006270	-0.207884	-0.167072	0.963780	0.542938	-0.839293	-0.028382	0.813635	0.517373	0.265185
42529	9.408597	-0.261543	2.592546	-0.001033	0.001814	0.007617	-0.207870	-0.167080	0.963781	0.542949	-0.839286	-0.028393	0.813632	0.517382	0.265178
42530	9.418181	-0.279342	2.607236	-0.002175	0.002889	0.005850	-0.207870	-0.167080	0.963781	0.542949	-0.839286	-0.028393	0.813632	0.517382	0.265178
42531	9.411722	-0.303850	2.583358	-0.000308	0.000851	0.005667	-0.207859	-0.167067	0.963786	0.542962	-0.839278	-0.028384	0.813626	0.517399	0.265162
42532	9.449078	-0.274791	2.593734	-0.001810	0.005156	0.006453	-0.207879	-0.167085	0.963778	0.542966	-0.839275	-0.028387	0.813618	0.517398	0.265189
42533	9.408277	-0.264120	2.593448	-0.002876	-0.000088	0.007779	-0.207849	-0.167084	0.963785	0.542962	-0.839277	-0.028405	0.813628	0.517395	0.265163
42534	9.417863	-0.281876	2.608108	-0.001085	0.004193	0.004503	-0.207872	-0.167078	0.963781	0.542967	-0.839274	-0.028385	0.813619	0.517400	0.265180
42535	9.401714	-0.289162	2.569883	-0.002928	0.002292	0.004664	-0.207878	-0.167064	0.963782	0.542956	-0.839282	-0.028373	0.813625	0.517393	0.265177
42536	9.417689	-0.283045	2.608611	-0.002511	0.002179	0.008382	-0.207863	-0.167082	0.963783	0.542958	-0.839280	-0.028396	0.813628	0.517391	0.265173
42537	9.420301	-0.275660	2.575310	-0.003681	0.001695	0.003479	-0.207870	-0.167054	0.963786	0.542938	-0.839293	-0.028375	0.813639	0.517378	0.265164
42538	9.407868	-0.267093	2.594627	-0.001809	0.005155	0.006453	-0.207889	-0.167071	0.963779	0.542942	-0.839291	-0.028378	0.813632	0.517377	0.265189
42539	9.438801	-0.262056	2.581082	-0.001420	0.003484	0.007035	-0.207892	-0.167083	0.963776	0.542948	-0.839286	-0.028384	0.813626	0.517380	0.265198
42540	9.407622	-0.268344	2.595387	-0.001084	0.004192	0.004503	-0.207912	-0.167080	0.963772	0.542955	-0.839282	-0.028368	0.813617	0.517387	0.265214
42541	9.448269	-0.280521	2.596068	-0.003212	-0.000798	0.010310	-0.207862	-0.167097	0.963780	0.542954	-0.839282	-0.028411	0.813630	0.517382	0.265181
42542	9.401091	-0.293773	2.571637	-0.001083	0.004192	0.004503	-0.207884	-0.167091	0.963776	0.542959	-0.839279	-0.028393	0.813622	0.517388	0.265196
42543	9.407421	-0.270469	2.595896	-0.000644	0.000140	0.008199	-0.207853	-0.167096	0.963782	0.542974	-0.839269	-0.028409	0.813619	0.517404	0.265173
42544	9.416983	-0.288281	2.610585	-0.002561	0.004558	0.005267	-0.207873	-0.167100	0.963777	0.542969	-0.839272	-0.028402	0.813617	0.517397	0.265192
42545	9.416885	-0.288944	2.610866	-0.003263	0.001582	0.007196	-0.207859	-0.167103	0.963780	0.542961	-0.839277	-0.028415	0.813626	0.517388	0.265182
42546	9.407139	-0.272514	2.596704	-0.001807	0.005154	0.006453	-0.207882	-0.167119	0.963772	0.542964	-0.839275	-0.028416	0.813619	0.517386	0.265210
42547	9.428997	-0.299462	2.592499	-0.001031	0.001811	0.007617	-0.207868	-0.167127	0.963774	0.542975	-0.839268	-0.028427	0.813615	0.517396	0.265203
42548	9.425690	-0.259080	2.602305	-0.002173	0.002886	0.005849	-0.207872	-0.167125	0.963773	0.542973	-0.839269	-0.028423	0.813615	0.517394	0.265205
42549	9.419196	-0.283550	2.578494	-0.000695	0.002520	0.005085	-0.207877	-0.167115	0.963774	0.542981	-0.839264	-0.028409	0.813608	0.517405	0.265204
42550	9.391242	-0.224899	2.626272	-0.003263	0.001581	0.007196	-0.207864	-0.167119	0.963776	0.542974	-0.839268	-0.028423	0.813616	0.517398	0.265195
42551	9.428671	-0.302053	2.593385	-0.001418	0.003481	0.007035	-0.207866	-0.167131	0.963773	0.542981	-0.839264	-0.028430	0.813611	0.517401	0.265204
42552	9.384670	-0.250218	2.602658	-0.001785	0.001214	0.006431	-0.207855	-0.167128	0.963776	0.542985	-0.839261	-0.028432	0.813612	0.517406	0.265192
42553	9.409262	-0.269071	2.564846	-0.002172	0.002885	0.005849	-0.207859	-0.167127	0.963776	0.542983	-0.839262	-0.028429	0.813612	0.517404	0.265195
42554	9.400039	-0.301723	2.574562	-0.002896	0.003847	0.007799	-0.207857	-0.167148	0.963772	0.542981	-0.839263	-0.028449	0.813614	0.517396	0.265205
42555	9.425096	-0.263729	2.603989	-0.004403	0.002656	0.005428	-0.207862	-0.167142	0.963772	0.542960	-0.839277	-0.028448	0.813626	0.517376	0.265205
42556	9.406259	-0.279312	2.599169	-0.001754	0.002770	0.009567	-0.207848	-0.167172	0.963770	0.542970	-0.839269	-0.028479	0.813623	0.517379	0.265210
42557	9.406219	-0.280096	2.599230	-0.004383	-0.001282	0.005406	-0.207821	-0.167146	0.963780	0.542949	-0.839283	-0.028478	0.813644	0.517365	0.265172
42558	9.456028	-0.260080	2.590376	0.000030	0.001557	0.003136	-0.207827	-0.167117	0.963784	0.542961	-0.839276	-0.028445	0.813635	0.517386	0.265162
42559	9.406123	-0.281051	2.599472	-0.001417	0.003479	0.007035	-0.207830	-0.167129	0.963782	0.542968	-0.839272	-0.028452	0.813630	0.517389	0.265171
42560	9.427453	-0.258899	2.571475	-0.001804	0.005151	0.006453	-0.207848	-0.167147	0.963775	0.542972	-0.839268	-0.028456	0.813622	0.517388	0.265196
42561	9.436950	-0.276682	2.586319	-0.002171	0.002884	0.005849	-0.207852	-0.167146	0.963774	0.542970	-0.839270	-0.028454	0.813622	0.517386	0.265199
42562	9.414909	-0.251077	2.591129	-0.003648	0.003251	0.006614	-0.207854	-0.167153	0.963772	0.542959	-0.839277	-0.028462	0.813629	0.517372	0.265204
42563	9.405682	-0.283626	2.600791	-0.000693	0.002517	0.005085	-0.207860	-0.167143	0.963773	0.542967	-0.839272	-0.028448	0.813622	0.517383	0.265204
42564	9.405596	-0.284177	2.601041	-0.002171	0.002884	0.005849	-0.207869	-0.167144	0.963770	0.542967	-0.839272	-0.028444	0.813620	0.517383	0.265212
42565	9.408210	-0.276782	2.567881	0.000815	0.003706	0.007457	-0.207871	-0.167161	0.963767	0.542992	-0.839256	-0.028449	0.813602	0.517404	0.265224
42566	9.417736	-0.294783	2.582563	-0.003598	0.000868	0.009727	-0.207838	-0.167179	0.963771	0.542986	-0.839259	-0.028486	0.813615	0.517394	0.265205
42567	9.395750	-0.269159	2.587199	0.000031	0.001556	0.003136	-0.207846	-0.167148	0.963775	0.542996	-0.839253	-0.028451	0.813606	0.517412	0.265196
42568	9.405317	-0.286743	2.601768	-0.002538	0.000617	0.005245	-0.207834	-0.167133	0.963780	0.542992	-0.839256	-0.028446	0.813612	0.517413	0.265178
42569	9.436325	-0.281765	2.588049	-0.002893	0.003844	0.007799	-0.207835	-0.167154	0.963776	0.542989	-0.839258	-0.028464	0.813614	0.517404	0.265190
42570	9.398272	-0.262948	2.554279	0.000448	0.001439	0.006853	-0.207822	-0.167152	0.963779	0.543010	-0.839244	-0.028463	0.813603	0.517426	0.265179
42571	9.436171	-0.283064	2.588468	-0.002924	0.002289	0.004664	-0.207828	-0.167138	0.963780	0.542999	-0.839251	-0.028451	0.813609	0.517419	0.265176
42572	9.414172	-0.257413	2.593183	-0.001029	0.001805	0.007617	-0.207813	-0.167147	0.963782	0.543012	-0.839243	-0.028463	0.813604	0.517430	0.265168
42573	9.407632	-0.282008	2.569430	-0.001801	0.005148	0.006454	-0.207833	-0.167163	0.963775	0.543014	-0.839241	-0.028465	0.813598	0.517427	0.265193
42574	9.423539	-0.275970	2.608350	-0.005878	0.003022	0.006191	-0.207837	-0.167166	0.963774	0.542984	-0.839260	-0.028475	0.813617	0.517395	0.265197
42575	9.417034	-0.300380	2.584479	0.000031	0.001555	0.003136	-0.207845	-0.167135	0.963777	0.542994	-0.839255	-0.028441	0.813608	0.517414	0.265188
42576	9.401494	-0.250852	2.613195	-0.003597	0.000866	0.009727	-0.207811	-0.167156	0.963781	0.542989	-0.839257	-0.028479	0.813620	0.517404	0.265170
42577	9.420609	-0.285982	2.642314	0.000063	0.003109	0.006272	-0.207815	-0.167159	0.963779	0.543006	-0.839246	-0.028474	0.813608	0.517421	0.265176
42578	9.407214	-0.285316	2.570595	-0.003646	0.003249	0.006613	-0.207818	-0.167164	0.963778	0.542993	-0.839254	-0.028481	0.813615	0.517406	0.265181
42579	9.425888	-0.271154	2.575945	-0.000691	0.002515	0.005086	-0.207824	-0.167154	0.963778	0.543002	-0.839249	-0.028467	0.813608	0.517417	0.265181
42580	9.422658	-0.230772	2.585775	-0.002505	0.002170	0.008381	-0.207807	-0.167173	0.963779	0.543004	-0.839247	-0.028491	0.813611	0.517415	0.265177
42581	9.423052	-0.280505	2.609627	-0.001429	-0.002017	0.003877	-0.207782	-0.167130	0.963792	0.543004	-0.839248	-0.028467	0.813617	0.517427	0.265133
42582	9.397403	-0.270603	2.556674	-0.001413	0.003475	0.007036	-0.207788	-0.167142	0.963788	0.543011	-0.839243	-0.028472	0.813611	0.517431	0.265144
42583	9.425642	-0.273585	2.576586	-0.001076	0.004186	0.004504	-0.207810	-0.167136	0.963784	0.543015	-0.839241	-0.028454	0.813603	0.517437	0.265160
42584	9.413220	-0.265123	2.595863	-0.004737	0.001943	0.007959	-0.207797	-0.167147	0.963785	0.542997	-0.839252	-0.028477	0.813618	0.517415	0.265154
42585	9.435047	-0.292161	2.591552	-0.002167	0.002881	0.005849	-0.207801	-0.167146	0.963785	0.542995	-0.839253	-0.028474	0.813619	0.517413	0.265157
42586	9.415785	-0.258467	2.562912	-0.001413	0.003474	0.007036	-0.207805	-0.167159	0.963782	0.543003	-0.839248	-0.028481	0.813612	0.517418	0.265168
42587	9.412966	-0.267136	2.596576	-0.000305	0.000842	0.005667	-0.207794	-0.167146	0.963786	0.543015	-0.839240	-0.028471	0.813607	0.517435	0.265151
42588	9.412899	-0.267879	2.596742	-0.001750	0.002762	0.009567	-0.207775	-0.167174	0.963785	0.543025	-0.839233	-0.028503	0.813605	0.517437	0.265151
42589	9.403200	-0.251397	2.582649	-0.005923	0.005405	0.003078	-0.207815	-0.167163	0.963779	0.542987	-0.839258	-0.028484	0.813621	0.517400	0.265178
42590	9.434565	-0.295463	2.592932	0.001204	0.002027	0.008040	-0.207798	-0.167174	0.963780	0.543016	-0.839239	-0.028493	0.813605	0.517428	0.265170
42591	9.412603	-0.269668	2.597630	0.000032	0.001553	0.003136	-0.207806	-0.167143	0.963784	0.543027	-0.839233	-0.028458	0.813596	0.517447	0.265161
42592	9.412539	-0.270243	2.597802	-0.002504	0.002168	0.008381	-0.207792	-0.167159	0.963784	0.543027	-0.839232	-0.028479	0.813599	0.517444	0.265158
42593	9.412422	-0.270882	2.598160	-0.003691	0.005631	0.003500	-0.207832	-0.167152	0.963777	0.543008	-0.839245	-0.028458	0.813602	0.517424	0.265187
42594	9.434209	-0.297606	2.593982	-0.001444	0.001920	0.003900	-0.207837	-0.167131	0.963780	0.543010	-0.839245	-0.028436	0.813600	0.517432	0.265180
42595	9.412253	-0.271880	2.598667	-0.003259	0.001574	0.007194	-0.207823	-0.167134	0.963782	0.543002	-0.839250	-0.028449	0.813609	0.517423	0.265170
42596	9.414952	-0.264588	2.565346	-0.003258	0.001574	0.007194	-0.207895	-0.167118	0.963769	0.543088	-0.839196	-0.028368	0.813532	0.517514	0.265225
42597	9.412129	-0.273395	2.598959	-0.001027	0.001800	0.007617	-0.207881	-0.167127	0.963771	0.543099	-0.839189	-0.028379	0.813529	0.517524	0.265218
42598	9.414819	-0.266075	2.565679	0.001205	0.002025	0.008040	-0.207863	-0.167141	0.963772	0.543131	-0.839168	-0.028391	0.813512	0.517554	0.265211
42599	9.411948	-0.274828	2.599462	-0.004027	0.004918	0.006031	-0.207883	-0.167152	0.963766	0.543115	-0.839178	-0.028395	0.813518	0.517533	0.265233
42600	9.421400	-0.292608	2.614258	-0.002920	0.002286	0.004663	-0.207894	-0.167139	0.963766	0.543105	-0.839185	-0.028381	0.813521	0.517526	0.265236
42601	9.411758	-0.275983	2.600028	-0.002165	0.002878	0.005849	-0.207898	-0.167138	0.963765	0.543103	-0.839186	-0.028378	0.813521	0.517524	0.265239
42602	9.421225	-0.293778	2.614759	-0.002165	0.002878	0.005849	-0.207905	-0.167136	0.963764	0.543101	-0.839188	-0.028373	0.813521	0.517522	0.265243
42603	9.420803	-0.245270	2.591195	-0.002165	0.002878	0.005849	-0.207910	-0.167135	0.963763	0.543099	-0.839189	-0.028370	0.813521	0.517521	0.265246
42604	9.405042	-0.301571	2.576681	-0.001443	0.001919	0.003900	-0.207916	-0.167112	0.963766	0.543100	-0.839189	-0.028347	0.813519	0.517528	0.265239
42605	9.432999	-0.255500	2.572569	-0.005489	0.001347	0.006771	-0.207902	-0.167111	0.963769	0.543073	-0.839206	-0.028362	0.813541	0.517500	0.265226
42606	9.383018	-0.276452	2.581602	-0.001072	0.004183	0.004505	-0.207924	-0.167105	0.963765	0.543078	-0.839204	-0.028343	0.813532	0.517507	0.265241
42607	9.411276	-0.279407	2.601408	-0.000304	0.000838	0.005668	-0.207912	-0.167092	0.963770	0.543091	-0.839196	-0.028334	0.813526	0.517524	0.265225
42608	9.420418	-0.248080	2.592328	-0.001793	0.005142	0.006455	-0.207933	-0.167107	0.963763	0.543094	-0.839194	-0.028335	0.813519	0.517522	0.265251
42609	9.404598	-0.304499	2.577957	-0.002165	0.002877	0.005849	-0.207937	-0.167106	0.963762	0.543092	-0.839195	-0.028332	0.813519	0.517520	0.265254
42610	9.423290	-0.290367	2.583344	0.000067	0.003102	0.006273	-0.207938	-0.167109	0.963762	0.543110	-0.839183	-0.028328	0.813507	0.517538	0.265257
42611	9.410860	-0.281876	2.602644	-0.001409	0.003469	0.007036	-0.207941	-0.167121	0.963759	0.543117	-0.839179	-0.028335	0.813501	0.517542	0.265266
42612	9.410754	-0.282584	2.602952	-0.003641	0.003244	0.006613	-0.207944	-0.167129	0.963757	0.543106	-0.839186	-0.028344	0.813508	0.517528	0.265272
42613	9.432236	-0.260404	2.574872	-0.000688	0.002510	0.005086	-0.207949	-0.167119	0.963757	0.543114	-0.839181	-0.028330	0.813501	0.517539	0.265272
42614	9.388726	-0.257486	2.607929	-0.003257	0.001571	0.007194	-0.207935	-0.167123	0.963760	0.543108	-0.839185	-0.028343	0.813509	0.517532	0.265262
42615	9.413287	-0.276364	2.570212	-0.001071	0.004182	0.004505	-0.207957	-0.167117	0.963756	0.543112	-0.839183	-0.028324	0.813501	0.517537	0.265277
42616	9.410424	-0.284933	2.603889	-0.002536	0.000612	0.005244	-0.207949	-0.167096	0.963762	0.543104	-0.839188	-0.028313	0.813508	0.517535	0.265258
42617	9.419625	-0.253718	2.594662	-0.002501	0.002163	0.008380	-0.207933	-0.167112	0.963762	0.543105	-0.839187	-0.028335	0.813511	0.517532	0.265254
42618	9.410292	-0.286324	2.604213	-0.002919	0.002285	0.004663	-0.207938	-0.167098	0.963763	0.543096	-0.839193	-0.028324	0.813516	0.517526	0.265250
42619	9.410236	-0.286852	2.604356	-0.000304	0.000836	0.005668	-0.207927	-0.167085	0.963768	0.543109	-0.839185	-0.028314	0.813511	0.517543	0.265234
42620	9.444066	-0.273767	2.557262	-0.004778	0.004324	0.004845	-0.207948	-0.167087	0.963763	0.543087	-0.839199	-0.028312	0.813520	0.517520	0.265253
42621	9.400525	-0.270870	2.590407	-0.001025	0.001795	0.007617	-0.207934	-0.167096	0.963765	0.543098	-0.839192	-0.028323	0.813516	0.517529	0.265246
42622	9.400431	-0.271467	2.590685	-0.001070	0.004181	0.004505	-0.207957	-0.167093	0.963760	0.543105	-0.839188	-0.028306	0.813505	0.517537	0.265264
42623	9.409881	-0.289169	2.605383	-0.000304	0.000836	0.005668	-0.207945	-0.167079	0.963765	0.543118	-0.839180	-0.028296	0.813500	0.517554	0.265247
42624	9.400295	-0.272481	2.591074	-0.000686	0.002508	0.005086	-0.207951	-0.167070	0.963766	0.543127	-0.839174	-0.028282	0.813492	0.517566	0.265247
42625	9.440871	-0.284736	2.591869	-0.001024	0.001794	0.007617	-0.207937	-0.167078	0.963767	0.543138	-0.839166	-0.028293	0.813488	0.517576	0.265240
42626	9.378324	-0.247402	2.595908	-0.002535	0.000612	0.005244	-0.207924	-0.167061	0.963773	0.543134	-0.839170	-0.028287	0.813495	0.517576	0.265220
42627	9.440778	-0.285987	2.592071	0.000452	0.001426	0.006854	-0.207911	-0.167061	0.963776	0.543155	-0.839156	-0.028287	0.813484	0.517599	0.265210
42628	9.381255	-0.289673	2.586554	-0.002162	0.002875	0.005849	-0.207915	-0.167059	0.963775	0.543154	-0.839157	-0.028283	0.813484	0.517598	0.265212
42629	9.428062	-0.229017	2.587670	-0.001024	0.001793	0.007617	-0.207901	-0.167067	0.963777	0.543165	-0.839149	-0.028295	0.813480	0.517607	0.265205
42630	9.402988	-0.317372	2.582272	-0.002152	-0.001061	0.005825	-0.207877	-0.167046	0.963786	0.543164	-0.839150	-0.028290	0.813487	0.517613	0.265173
42631	9.390401	-0.259659	2.577507	-0.002917	0.002284	0.004663	-0.207883	-0.167032	0.963787	0.543153	-0.839157	-0.028278	0.813492	0.517606	0.265170
42632	9.449957	-0.306432	2.607404	-0.004740	0.005872	0.007981	-0.207902	-0.167062	0.963777	0.543135	-0.839169	-0.028300	0.813500	0.517577	0.265202
42633	9.399660	-0.278295	2.592758	0.000070	0.003097	0.006273	-0.207906	-0.167066	0.963776	0.543152	-0.839158	-0.028295	0.813487	0.517594	0.265208
42634	9.430712	-0.273350	2.579109	0.000453	0.001425	0.006854	-0.207892	-0.167065	0.963779	0.543173	-0.839144	-0.028295	0.813476	0.517617	0.265196
42635	9.399479	-0.279548	2.593278	-0.001788	0.005137	0.006455	-0.207911	-0.167080	0.963772	0.543176	-0.839142	-0.028297	0.813470	0.517615	0.265221
42636	9.415363	-0.273506	2.632200	-0.002917	0.002283	0.004662	-0.207916	-0.167068	0.963773	0.543167	-0.839148	-0.028287	0.813474	0.517609	0.265218
42637	9.442687	-0.284279	2.561207	0.000062	0.007032	0.006298	-0.207951	-0.167092	0.963762	0.543185	-0.839137	-0.028282	0.813454	0.517619	0.265262
42638	9.396098	-0.240314	2.604042	-0.000641	0.000119	0.008198	-0.207919	-0.167098	0.963768	0.543202	-0.839125	-0.028300	0.813450	0.517636	0.265238
42639	9.430202	-0.276477	2.580640	-0.002916	0.002283	0.004662	-0.207925	-0.167084	0.963769	0.543191	-0.839132	-0.028288	0.813456	0.517629	0.265235
42640	9.417804	-0.267836	2.599848	-0.000685	0.002506	0.005086	-0.207932	-0.167074	0.963769	0.543200	-0.839127	-0.028272	0.813448	0.517641	0.265236
42641	9.417765	-0.268442	2.599927	-0.003628	-0.000695	0.006587	-0.207903	-0.167060	0.963778	0.543188	-0.839135	-0.028280	0.813464	0.517633	0.265204
42642	9.411199	-0.292964	2.576010	-0.001786	0.005136	0.006455	-0.207922	-0.167074	0.963771	0.543190	-0.839133	-0.028281	0.813457	0.517631	0.265228
42643	9.429901	-0.278859	2.581485	-0.002916	0.002283	0.004662	-0.207928	-0.167060	0.963772	0.543180	-0.839140	-0.028269	0.813463	0.517624	0.265225
42644	9.417491	-0.270148	2.600742	-0.001822	0.003588	0.003319	-0.207953	-0.167042	0.963770	0.543176	-0.839144	-0.028240	0.813459	0.517624	0.265236
42645	9.407873	-0.253555	2.586651	-0.002124	0.004420	0.008986	-0.207953	-0.167075	0.963764	0.543181	-0.839139	-0.028268	0.813455	0.517620	0.265254
42646	9.441976	-0.289861	2.563200	-0.004003	-0.002958	0.005981	-0.207912	-0.167046	0.963778	0.543166	-0.839149	-0.028270	0.813476	0.517614	0.265203
42647	9.388995	-0.269704	2.581593	-0.001404	0.003462	0.007036	-0.207914	-0.167058	0.963775	0.543173	-0.839145	-0.028277	0.813471	0.517617	0.265212
42648	9.417177	-0.272923	2.601591	-0.001785	0.005135	0.006455	-0.207935	-0.167071	0.963769	0.543174	-0.839144	-0.028276	0.813464	0.517615	0.265236
42649	9.429378	-0.282704	2.582976	-0.002159	0.002872	0.005849	-0.207940	-0.167070	0.963768	0.543173	-0.839145	-0.028273	0.813465	0.517613	0.265239
42650	9.376325	-0.262508	2.601641	-0.001403	0.003461	0.007036	-0.207939	-0.167082	0.963766	0.543181	-0.839139	-0.028281	0.813459	0.517619	0.265245
42651	9.429208	-0.283987	2.583456	-0.002534	0.000609	0.005243	-0.207928	-0.167064	0.963772	0.543175	-0.839144	-0.028274	0.813466	0.517617	0.265226
42652	9.388497	-0.272845	2.583075	-0.002540	0.004544	0.005268	-0.207946	-0.167067	0.963767	0.543170	-0.839147	-0.028268	0.813465	0.517611	0.265242
42653	9.426057	-0.244157	2.593585	0.001591	0.000337	0.008623	-0.207914	-0.167076	0.963772	0.543204	-0.839124	-0.028282	0.813450	0.517645	0.265222
42654	9.429015	-0.285890	2.583950	-0.004765	0.000387	0.004819	-0.207906	-0.167053	0.963778	0.543180	-0.839140	-0.028275	0.813468	0.517626	0.265202
42655	9.376000	-0.265665	2.602491	-0.001402	0.003460	0.007037	-0.207908	-0.167065	0.963776	0.543187	-0.839135	-0.028282	0.813463	0.517630	0.265211
42656	9.447645	-0.272543	2.589653	-0.004015	0.004911	0.006031	-0.207927	-0.167078	0.963769	0.543172	-0.839145	-0.028287	0.813468	0.517611	0.265233
42657	9.416376	-0.278757	2.603869	-0.003634	0.003238	0.006612	-0.207930	-0.167085	0.963767	0.543160	-0.839152	-0.028296	0.813475	0.517597	0.265239
42658	9.394470	-0.253076	2.608701	-0.001402	0.003460	0.007037	-0.207933	-0.167097	0.963765	0.543167	-0.839147	-0.028301	0.813470	0.517601	0.265248
42659	9.456773	-0.291818	2.605171	-0.002539	0.004543	0.005269	-0.207955	-0.167099	0.963760	0.543161	-0.839152	-0.028294	0.813468	0.517593	0.265267
42660	9.387720	-0.278210	2.585326	-0.002877	0.003827	0.007799	-0.207955	-0.167119	0.963756	0.543158	-0.839153	-0.028312	0.813470	0.517585	0.265278
42661	9.415915	-0.281311	2.605262	-0.000344	0.003219	0.002556	-0.207980	-0.167092	0.963755	0.543165	-0.839150	-0.028273	0.813460	0.517598	0.265285
42662	9.387599	-0.279195	2.585658	-0.004004	-0.002959	0.005980	-0.207936	-0.167060	0.963771	0.543148	-0.839161	-0.028275	0.813482	0.517590	0.265230
42663	9.440518	-0.300762	2.567314	-0.001401	0.003459	0.007037	-0.207938	-0.167072	0.963768	0.543155	-0.839156	-0.028282	0.813477	0.517594	0.265239
42664	9.399796	-0.289682	2.566981	-0.002157	0.002870	0.005849	-0.207942	-0.167072	0.963767	0.543154	-0.839156	-0.028279	0.813476	0.517594	0.265242
42665	9.406226	-0.266539	2.591331	-0.001021	0.001785	0.007617	-0.207928	-0.167080	0.963769	0.543165	-0.839149	-0.028291	0.813472	0.517603	0.265234
42666	9.427951	-0.293690	2.586958	-0.003252	0.001564	0.007193	-0.207911	-0.167084	0.963772	0.543159	-0.839153	-0.028306	0.813481	0.517596	0.265222
42667	9.418403	-0.277186	2.572715	-0.003632	0.003237	0.006612	-0.207914	-0.167091	0.963770	0.543147	-0.839160	-0.028314	0.813488	0.517582	0.265228
42668	9.405984	-0.268576	2.591999	-0.004049	0.003365	0.002894	-0.207938	-0.167066	0.963769	0.543124	-0.839176	-0.028287	0.813498	0.517564	0.265234
42669	9.418265	-0.278337	2.573094	-0.000260	-0.001562	0.008779	-0.207891	-0.167067	0.963779	0.543143	-0.839163	-0.028307	0.813497	0.517585	0.265195
42670	9.424698	-0.255371	2.597442	-0.002499	0.006086	0.008406	-0.207907	-0.167105	0.963769	0.543146	-0.839160	-0.028331	0.813491	0.517577	0.265230
42671	9.434043	-0.273195	2.612258	0.000038	0.001545	0.003137	-0.207915	-0.167074	0.963773	0.543156	-0.839155	-0.028296	0.813482	0.517596	0.265220
42672	9.389725	-0.277633	2.554170	-0.001776	0.001195	0.006430	-0.207903	-0.167066	0.963776	0.543157	-0.839154	-0.028295	0.813484	0.517599	0.265206
42673	9.433946	-0.274322	2.612493	-0.001776	0.001195	0.006430	-0.207891	-0.167061	0.963780	0.543160	-0.839153	-0.028297	0.813486	0.517604	0.265193
42674	9.399064	-0.296159	2.568922	-0.002156	0.002868	0.005849	-0.207894	-0.167059	0.963780	0.543158	-0.839154	-0.028294	0.813486	0.517603	0.265195
42675	9.424342	-0.258378	2.598435	-0.001020	0.001783	0.007618	-0.207880	-0.167067	0.963781	0.543169	-0.839146	-0.028305	0.813482	0.517612	0.265188
42676	9.427180	-0.300099	2.589031	-0.004767	0.004321	0.004844	-0.207899	-0.167067	0.963777	0.543146	-0.839161	-0.028302	0.813492	0.517588	0.265203
42677	9.414718	-0.242358	2.584480	-0.002533	0.000606	0.005242	-0.207888	-0.167049	0.963783	0.543140	-0.839165	-0.028294	0.813499	0.517587	0.265184
42678	9.405272	-0.274774	2.593933	0.001551	0.002720	0.005512	-0.207894	-0.167044	0.963782	0.543168	-0.839147	-0.028277	0.813479	0.517617	0.265187
42679	9.455170	-0.255114	2.585597	-0.001060	0.004173	0.004507	-0.207916	-0.167038	0.963779	0.543173	-0.839145	-0.028259	0.813471	0.517623	0.265203
42680	9.386240	-0.290496	2.589346	-0.005482	0.001342	0.006767	-0.207902	-0.167036	0.963782	0.543146	-0.839162	-0.028273	0.813492	0.517597	0.265188
42681	9.445618	-0.288323	2.595333	-0.002155	0.002867	0.005849	-0.207906	-0.167034	0.963781	0.543144	-0.839163	-0.028270	0.813492	0.517595	0.265191
42682	9.376651	-0.274557	2.575260	-0.001776	0.001194	0.006430	-0.207893	-0.167031	0.963785	0.543149	-0.839160	-0.028273	0.813492	0.517601	0.265179
42683	9.436033	-0.272327	2.581248	-0.002155	0.002867	0.005849	-0.207898	-0.167030	0.963784	0.543147	-0.839162	-0.028270	0.813492	0.517599	0.265182
42684	9.414218	-0.295659	2.609801	0.000077	0.003086	0.006275	-0.207902	-0.167030	0.963783	0.543163	-0.839152	-0.028262	0.813481	0.517615	0.265186
42685	9.438730	-0.265373	2.548348	-0.000680	0.002499	0.005087	-0.207908	-0.167021	0.963783	0.543171	-0.839147	-0.028248	0.813474	0.517627	0.265186
42686	9.414069	-0.296721	2.610219	-0.000301	0.000825	0.005668	-0.207898	-0.167008	0.963788	0.543185	-0.839138	-0.028238	0.813467	0.517645	0.265171
42687	9.413941	-0.248155	2.586759	0.000455	0.005347	0.006882	-0.207917	-0.167028	0.963780	0.543207	-0.839124	-0.028238	0.813448	0.517661	0.265199
42688	9.413862	-0.298018	2.610817	-0.005482	0.001341	0.006766	-0.207901	-0.167026	0.963784	0.543180	-0.839140	-0.028253	0.813469	0.517635	0.265183
42689	9.394939	-0.264208	2.582010	-0.001775	0.001193	0.006430	-0.207888	-0.167021	0.963788	0.543183	-0.839139	-0.028255	0.813471	0.517639	0.265170
42690	9.444912	-0.293843	2.597282	-0.000679	0.002498	0.005087	-0.207894	-0.167011	0.963788	0.543193	-0.839133	-0.028241	0.813463	0.517651	0.265170
42691	9.416507	-0.291840	2.578026	-0.003250	0.005494	0.007219	-0.207912	-0.167035	0.963780	0.543185	-0.839138	-0.028254	0.813464	0.517636	0.265198
42692	9.394605	-0.266126	2.583029	-0.004007	0.004907	0.006031	-0.207931	-0.167047	0.963774	0.543170	-0.839147	-0.028259	0.813469	0.517617	0.265220
42693	9.425665	-0.261249	2.569562	-0.000679	0.002497	0.005087	-0.207937	-0.167037	0.963774	0.543178	-0.839142	-0.028245	0.813461	0.517628	0.265220
42694	9.422699	-0.269961	2.603213	0.001213	0.001998	0.008043	-0.207923	-0.167051	0.963775	0.543210	-0.839121	-0.028254	0.813444	0.517657	0.265216
42695	9.422656	-0.270737	2.603286	-0.005103	-0.000332	0.007346	-0.207893	-0.167045	0.963782	0.543187	-0.839136	-0.028273	0.813467	0.517636	0.265187
42696	9.416069	-0.295242	2.579241	-0.002153	0.002865	0.005849	-0.207895	-0.167046	0.963782	0.543188	-0.839135	-0.028272	0.813466	0.517637	0.265189
42697	9.410193	-0.262883	2.622654	0.000079	0.003084	0.006275	-0.207898	-0.167050	0.963780	0.543205	-0.839124	-0.028268	0.813454	0.517653	0.265195
42698	9.415912	-0.296528	2.579667	-0.000639	0.000105	0.008198	-0.207865	-0.167054	0.963787	0.543221	-0.839113	-0.028285	0.813451	0.517670	0.265169
42699	9.394109	-0.270839	2.584341	-0.003627	0.003233	0.006611	-0.207868	-0.167061	0.963785	0.543209	-0.839120	-0.028293	0.813458	0.517656	0.265175
42700	9.431715	-0.291373	2.618695	-0.000678	0.002496	0.005087	-0.207871	-0.167053	0.963786	0.543220	-0.839114	-0.028281	0.813451	0.517668	0.265174
42701	9.412763	-0.257403	2.590137	-0.001773	0.005125	0.006457	-0.207891	-0.167069	0.963779	0.543222	-0.839112	-0.028283	0.813444	0.517666	0.265199
42702	9.403216	-0.289998	2.599723	-0.003249	0.001559	0.007192	-0.207876	-0.167073	0.963781	0.543216	-0.839116	-0.028297	0.813452	0.517659	0.265189
42703	9.424887	-0.267888	2.571729	-0.001056	0.004169	0.004507	-0.207898	-0.167067	0.963777	0.543220	-0.839114	-0.028278	0.813444	0.517664	0.265204
42704	9.434226	-0.285669	2.586406	-0.002531	0.000604	0.005242	-0.207886	-0.167049	0.963783	0.543214	-0.839118	-0.028270	0.813450	0.517664	0.265184
42705	9.374714	-0.289026	2.580725	-0.002152	0.002864	0.005849	-0.207890	-0.167047	0.963783	0.543213	-0.839119	-0.028268	0.813451	0.517662	0.265187
42706	9.440595	-0.263048	2.611079	-0.000298	0.004755	0.005695	-0.207910	-0.167055	0.963777	0.543226	-0.839111	-0.028259	0.813436	0.517674	0.265208
42707	9.402751	-0.292832	2.601084	0.000080	0.003082	0.006275	-0.207913	-0.167058	0.963776	0.543244	-0.839100	-0.028254	0.813424	0.517691	0.265213
42708	9.412109	-0.261535	2.592100	0.000080	0.003082	0.006275	-0.207913	-0.167057	0.963776	0.543260	-0.839089	-0.028248	0.813413	0.517707	0.265213
42709	9.412010	-0.262187	2.592392	-0.003626	0.003232	0.006611	-0.207916	-0.167064	0.963774	0.543247	-0.839097	-0.028257	0.813421	0.517693	0.265219
42710	9.405383	-0.286704	2.568446	-0.003248	0.001558	0.007191	-0.207902	-0.167068	0.963776	0.543241	-0.839101	-0.028270	0.813429	0.517685	0.265209
42711	9.424212	-0.272892	2.573677	-0.005102	-0.000334	0.007345	-0.207872	-0.167062	0.963784	0.543218	-0.839115	-0.028289	0.813452	0.517664	0.265180
42712	9.411832	-0.264470	2.592807	0.000838	0.003667	0.007464	-0.207873	-0.167076	0.963781	0.543243	-0.839099	-0.028292	0.813435	0.517686	0.265189
42713	9.427711	-0.258599	2.631626	-0.002531	0.000603	0.005241	-0.207862	-0.167058	0.963787	0.543237	-0.839103	-0.028285	0.813441	0.517685	0.265170
42714	9.433427	-0.292201	2.588590	-0.001016	0.001775	0.007618	-0.207846	-0.167068	0.963789	0.543250	-0.839094	-0.028298	0.813437	0.517697	0.265161
42715	9.421022	-0.283747	2.607811	-0.001393	0.003448	0.007037	-0.207848	-0.167079	0.963786	0.543257	-0.839089	-0.028305	0.813432	0.517700	0.265170
42716	9.404975	-0.290718	2.569487	-0.002568	0.002996	0.002131	-0.207875	-0.167047	0.963786	0.543244	-0.839099	-0.028265	0.813433	0.517696	0.265175
42717	9.414313	-0.308416	2.584104	-0.002531	0.000603	0.005241	-0.207864	-0.167029	0.963791	0.543238	-0.839103	-0.028258	0.813440	0.517694	0.265156
42718	9.420803	-0.285398	2.608422	-0.001732	0.002728	0.009567	-0.207846	-0.167058	0.963790	0.543248	-0.839095	-0.028290	0.813438	0.517698	0.265157
42719	9.442514	-0.263425	2.580409	-0.002907	0.002276	0.004661	-0.207852	-0.167044	0.963791	0.543238	-0.839102	-0.028277	0.813443	0.517691	0.265154
42720	9.411266	-0.269423	2.594353	-0.001773	0.001188	0.006429	-0.207836	-0.167037	0.963796	0.543240	-0.839101	-0.028279	0.813446	0.517695	0.265137
42721	9.423512	-0.279229	2.575560	-0.002150	0.002862	0.005849	-0.207840	-0.167035	0.963795	0.543239	-0.839102	-0.028277	0.813446	0.517694	0.265139
42722	9.401620	-0.302537	2.604063	-0.002150	0.002861	0.005849	-0.207844	-0.167034	0.963795	0.543238	-0.839103	-0.028273	0.813446	0.517693	0.265142
42723	9.410996	-0.271242	2.595143	-0.002526	0.004535	0.005269	-0.207865	-0.167036	0.963790	0.543231	-0.839107	-0.028266	0.813444	0.517686	0.265160
42724	9.404330	-0.295536	2.571298	-0.000675	0.002493	0.005088	-0.207870	-0.167023	0.963791	0.543239	-0.839103	-0.028249	0.813438	0.517697	0.265158
42725	9.441974	-0.267064	2.582009	-0.002108	0.004400	0.008987	-0.207870	-0.167056	0.963785	0.543244	-0.839098	-0.028277	0.813435	0.517693	0.265176
42726	9.391823	-0.287791	2.590809	-0.004762	0.000385	0.004814	-0.207859	-0.167036	0.963791	0.543221	-0.839114	-0.028272	0.813453	0.517675	0.265155
42727	9.432425	-0.251116	2.568036	0.000464	0.005336	0.006884	-0.207878	-0.167056	0.963784	0.543243	-0.839100	-0.028272	0.813434	0.517691	0.265182
42728	9.391602	-0.289070	2.591469	-0.003623	0.003229	0.006611	-0.207881	-0.167061	0.963782	0.543230	-0.839107	-0.028280	0.813441	0.517677	0.265187
42729	9.432218	-0.252354	2.568672	-0.001433	0.001907	0.003900	-0.207888	-0.167039	0.963785	0.543230	-0.839108	-0.028256	0.813439	0.517683	0.265181
42730	9.419691	-0.292899	2.611605	-0.001391	0.003445	0.007038	-0.207887	-0.167052	0.963782	0.543239	-0.839102	-0.028265	0.813434	0.517688	0.265188
42731	9.391304	-0.290854	2.592348	-0.001767	0.005119	0.006458	-0.207906	-0.167067	0.963776	0.543241	-0.839101	-0.028267	0.813427	0.517686	0.265212
42732	9.422362	-0.286182	2.579001	-0.000633	0.004030	0.008226	-0.207906	-0.167091	0.963772	0.543257	-0.839090	-0.028282	0.813417	0.517696	0.265225
42733	9.397676	-0.268522	2.617073	-0.004385	-0.001289	0.005394	-0.207879	-0.167064	0.963782	0.543236	-0.839103	-0.028281	0.813438	0.517682	0.265187
42734	9.422178	-0.287564	2.579522	0.001229	0.009852	0.008102	-0.207928	-0.167116	0.963763	0.543266	-0.839084	-0.028289	0.813405	0.517698	0.265257
42735	9.440911	-0.273647	2.585204	-0.004761	0.000385	0.004814	-0.207918	-0.167093	0.963769	0.543241	-0.839100	-0.028283	0.813424	0.517678	0.265236
42736	9.421949	-0.288787	2.580220	-0.002524	0.004533	0.005269	-0.207938	-0.167098	0.963763	0.543238	-0.839103	-0.028277	0.813422	0.517673	0.265255
42737	9.393594	-0.286582	2.560885	-0.000674	0.002491	0.005088	-0.207943	-0.167088	0.963764	0.543246	-0.839098	-0.028263	0.813415	0.517684	0.265255
42738	9.416006	-0.256986	2.623965	-0.003622	0.003227	0.006610	-0.207944	-0.167094	0.963763	0.543234	-0.839105	-0.028272	0.813422	0.517670	0.265258
42739	9.421632	-0.290553	2.581180	-0.000292	0.004749	0.005697	-0.207964	-0.167101	0.963757	0.543247	-0.839097	-0.028262	0.813409	0.517681	0.265279
42740	9.428061	-0.267410	2.605811	-0.003997	0.004901	0.006030	-0.207983	-0.167113	0.963751	0.543232	-0.839107	-0.028267	0.813414	0.517661	0.265301
42741	9.412068	-0.274606	2.567324	-0.000263	-0.001579	0.008777	-0.207936	-0.167113	0.963761	0.543251	-0.839093	-0.028287	0.813413	0.517683	0.265262
42742	9.430657	-0.310022	2.596597	-0.003231	0.009417	0.007248	-0.207984	-0.167156	0.963743	0.543244	-0.839097	-0.028301	0.813405	0.517662	0.265326
42743	9.440017	-0.279026	2.587894	-0.006193	0.002290	0.008712	-0.207968	-0.167176	0.963743	0.543216	-0.839115	-0.028336	0.813429	0.517628	0.265322
42744	9.399397	-0.267851	2.587336	-0.000298	0.000815	0.005668	-0.207955	-0.167163	0.963748	0.543230	-0.839106	-0.028327	0.813422	0.517646	0.265304
42745	9.411629	-0.277588	2.568611	-0.002522	0.004532	0.005269	-0.207976	-0.167166	0.963744	0.543224	-0.839110	-0.028320	0.813421	0.517639	0.265323
42746	9.420901	-0.295575	2.583278	-0.000639	0.000094	0.008197	-0.207944	-0.167172	0.963749	0.543241	-0.839098	-0.028337	0.813417	0.517656	0.265301
42747	9.420842	-0.296273	2.583413	-0.002147	0.002858	0.005849	-0.207949	-0.167171	0.963749	0.543240	-0.839099	-0.028334	0.813418	0.517654	0.265303
42748	9.420724	-0.296912	2.583769	-0.003995	0.004900	0.006030	-0.207967	-0.167183	0.963742	0.543225	-0.839109	-0.028340	0.813423	0.517635	0.265325
42749	9.398975	-0.271023	2.588537	-0.002529	0.000599	0.005240	-0.207956	-0.167165	0.963748	0.543219	-0.839113	-0.028332	0.813429	0.517634	0.265306
42750	9.427121	-0.274384	2.608485	0.000468	0.005330	0.006886	-0.207976	-0.167182	0.963741	0.543239	-0.839100	-0.028329	0.813411	0.517650	0.265332
42751	9.432789	-0.308058	2.565487	-0.002495	-0.001796	0.008350	-0.207928	-0.167177	0.963752	0.543240	-0.839099	-0.028351	0.813423	0.517653	0.265290
42752	9.417674	-0.258417	2.594274	-0.001805	0.003579	0.003320	-0.207950	-0.167160	0.963750	0.543238	-0.839101	-0.028325	0.813419	0.517655	0.265299
42753	9.367466	-0.278806	2.603102	-0.002146	0.002857	0.005849	-0.207954	-0.167159	0.963749	0.543236	-0.839102	-0.028322	0.813419	0.517653	0.265301
42754	9.448485	-0.303345	2.604756	-0.004377	0.002642	0.005421	-0.207957	-0.167154	0.963750	0.543217	-0.839115	-0.028323	0.813431	0.517635	0.265300
42755	9.417398	-0.260177	2.595102	-0.001388	0.003440	0.007038	-0.207959	-0.167166	0.963747	0.543223	-0.839110	-0.028329	0.813426	0.517639	0.265309
42756	9.401379	-0.267243	2.556747	-0.002145	0.002856	0.005849	-0.207962	-0.167164	0.963747	0.543223	-0.839111	-0.028326	0.813425	0.517638	0.265311
42757	9.426549	-0.278703	2.610093	-0.000672	0.002487	0.005088	-0.207968	-0.167155	0.963747	0.543231	-0.839106	-0.028312	0.813418	0.517650	0.265310
42758	9.388913	-0.259228	2.576149	-0.003244	0.001550	0.007190	-0.207955	-0.167154	0.963750	0.543222	-0.839111	-0.028322	0.813428	0.517640	0.265299
42759	9.454610	-0.282835	2.630250	-0.003993	0.004898	0.006031	-0.207974	-0.167165	0.963744	0.543206	-0.839122	-0.028326	0.813434	0.517620	0.265321
42760	9.419931	-0.255309	2.562993	-0.003244	0.001550	0.007190	-0.207961	-0.167166	0.963747	0.543197	-0.839127	-0.028337	0.813443	0.517612	0.265310
42761	9.397951	-0.278587	2.591450	-0.001046	0.004161	0.004509	-0.207983	-0.167161	0.963743	0.543202	-0.839124	-0.028319	0.813434	0.517617	0.265325
42762	9.426077	-0.281905	2.611455	-0.002145	0.002855	0.005849	-0.207985	-0.167157	0.963743	0.543199	-0.839126	-0.028315	0.813435	0.517616	0.265325
42763	9.410062	-0.288959	2.573096	-0.001386	0.003438	0.007038	-0.207988	-0.167168	0.963741	0.543206	-0.839121	-0.028321	0.813430	0.517619	0.265334
42764	9.425897	-0.283235	2.611960	-0.001771	0.001181	0.006429	-0.207977	-0.167161	0.963744	0.543208	-0.839120	-0.028320	0.813431	0.517624	0.265321
42765	9.397592	-0.281123	2.592478	-0.003617	0.003223	0.006610	-0.207980	-0.167168	0.963742	0.543196	-0.839128	-0.028328	0.813439	0.517609	0.265327
42766	9.425726	-0.284518	2.612436	0.001560	0.002700	0.005517	-0.207984	-0.167164	0.963742	0.543225	-0.839110	-0.028313	0.813418	0.517640	0.265329
42767	9.378499	-0.296854	2.587782	-0.005848	0.003009	0.006182	-0.207988	-0.167166	0.963741	0.543194	-0.839130	-0.028323	0.813438	0.517607	0.265332
42768	9.428545	-0.277604	2.579529	-0.000671	0.002486	0.005089	-0.207992	-0.167155	0.963742	0.543202	-0.839125	-0.028308	0.813431	0.517619	0.265330
42769	9.375604	-0.256961	2.598030	-0.002144	0.002854	0.005849	-0.207996	-0.167153	0.963741	0.543200	-0.839126	-0.028305	0.813432	0.517617	0.265333
42770	9.428356	-0.278685	2.580103	-0.001044	0.004159	0.004509	-0.208021	-0.167148	0.963737	0.543205	-0.839123	-0.028285	0.813422	0.517623	0.265351
42771	9.428246	-0.279270	2.580445	-0.003617	0.003223	0.006610	-0.208024	-0.167155	0.963735	0.543193	-0.839131	-0.028293	0.813429	0.517609	0.265357
42772	9.403539	-0.261562	2.618582	-0.001770	0.001179	0.006429	-0.208011	-0.167148	0.963739	0.543196	-0.839129	-0.028294	0.813431	0.517614	0.265342
42773	9.428095	-0.280638	2.580844	-0.003616	0.003222	0.006610	-0.208014	-0.167155	0.963737	0.543184	-0.839137	-0.028303	0.813438	0.517599	0.265348
42774	9.396756	-0.286548	2.594915	-0.001044	0.004159	0.004509	-0.208036	-0.167145	0.963734	0.543186	-0.839136	-0.028281	0.813431	0.517604	0.265362
42775	9.406217	-0.255108	2.586184	0.000814	0.006046	0.004358	-0.208075	-0.167148	0.963725	0.543206	-0.839124	-0.028255	0.813408	0.517622	0.265396
42776	9.421137	-0.305890	2.557784	-0.004001	0.000965	0.006000	-0.208062	-0.167137	0.963730	0.543190	-0.839134	-0.028259	0.813422	0.517608	0.265379
42777	9.434259	-0.259141	2.606402	-0.001385	0.003435	0.007038	-0.208064	-0.167149	0.963727	0.543196	-0.839130	-0.028265	0.813417	0.517612	0.265387
42778	9.408665	-0.298050	2.577163	-0.001770	0.001179	0.006429	-0.208049	-0.167142	0.963732	0.543199	-0.839128	-0.028267	0.813419	0.517617	0.265371
42779	9.424832	-0.243128	2.592272	-0.001770	0.001178	0.006429	-0.208036	-0.167137	0.963736	0.543202	-0.839126	-0.028269	0.813421	0.517622	0.265358
42780	9.399225	-0.281963	2.563081	-0.002516	0.004527	0.005270	-0.208055	-0.167140	0.963731	0.543197	-0.839129	-0.028263	0.813419	0.517616	0.265375
42781	9.424308	-0.293574	2.616547	-0.003615	0.003221	0.006610	-0.208058	-0.167147	0.963729	0.543185	-0.839137	-0.028271	0.813426	0.517601	0.265381
42782	9.396021	-0.291372	2.597036	-0.000297	0.000809	0.005668	-0.208045	-0.167133	0.963734	0.543198	-0.839129	-0.028262	0.813420	0.517619	0.265363
42783	9.414928	-0.277432	2.602266	-0.002155	-0.001078	0.005819	-0.208017	-0.167111	0.963744	0.543196	-0.839130	-0.028259	0.813429	0.517624	0.265328
42784	9.424493	-0.246160	2.593219	-0.002515	0.004526	0.005270	-0.208037	-0.167112	0.963740	0.543190	-0.839134	-0.028250	0.813428	0.517617	0.265344
42785	9.424071	-0.295968	2.617133	-0.001769	0.001177	0.006429	-0.208024	-0.167107	0.963743	0.543193	-0.839133	-0.028252	0.813430	0.517621	0.265331
42786	9.405415	-0.261903	2.588420	-0.002142	0.002852	0.005849	-0.208028	-0.167107	0.963742	0.543193	-0.839132	-0.028250	0.813428	0.517621	0.265335
42787	9.405350	-0.262540	2.588591	-0.004000	0.000964	0.006000	-0.208016	-0.167097	0.963747	0.543176	-0.839143	-0.028254	0.813443	0.517607	0.265318
42788	9.414598	-0.280485	2.603130	0.001935	0.001021	0.006097	-0.208005	-0.167090	0.963750	0.543210	-0.839122	-0.028242	0.813423	0.517644	0.265306
42789	9.445758	-0.275679	2.589645	-0.003273	0.003944	0.004081	-0.208028	-0.167079	0.963747	0.543195	-0.839132	-0.028225	0.813427	0.517631	0.265319
42790	9.405156	-0.264136	2.589132	-0.000296	0.000808	0.005668	-0.208018	-0.167064	0.963752	0.543208	-0.839124	-0.028213	0.813421	0.517649	0.265304
42791	9.423664	-0.299475	2.618200	-0.005845	0.003008	0.006181	-0.208021	-0.167067	0.963751	0.543176	-0.839144	-0.028224	0.813441	0.517616	0.265307
42792	9.395676	-0.248159	2.575256	-0.000996	0.005688	0.007649	-0.208038	-0.167094	0.963742	0.543188	-0.839136	-0.028234	0.813429	0.517620	0.265336
42793	9.435708	-0.310088	2.600044	0.000090	0.003063	0.006278	-0.208042	-0.167097	0.963741	0.543205	-0.839125	-0.028230	0.813417	0.517636	0.265341
42794	9.404709	-0.266808	2.590483	-0.003985	0.004894	0.006030	-0.208061	-0.167109	0.963735	0.543190	-0.839135	-0.028234	0.813422	0.517617	0.265363
42795	9.445121	-0.279454	2.591562	-0.000668	0.002481	0.005089	-0.208066	-0.167099	0.963736	0.543199	-0.839130	-0.028220	0.813415	0.517629	0.265363
42796	9.404506	-0.267988	2.591099	-0.001382	0.003431	0.007039	-0.207956	-0.167147	0.963751	0.543181	-0.839138	-0.028329	0.813455	0.517600	0.265294
42797	9.413696	-0.285958	2.605796	-0.005131	0.002057	0.004231	-0.207962	-0.167128	0.963753	0.543151	-0.839157	-0.028318	0.813473	0.517574	0.265288
42798	9.425899	-0.295747	2.587172	0.000478	0.005317	0.006889	-0.207979	-0.167151	0.963745	0.543175	-0.839141	-0.028321	0.813452	0.517593	0.265317
42799	9.404231	-0.269681	2.591920	-0.001814	-0.000356	0.003289	-0.207971	-0.167112	0.963754	0.543171	-0.839145	-0.028293	0.813458	0.517599	0.265288
42800	9.432376	-0.273131	2.611783	-0.002854	0.003800	0.007799	-0.207970	-0.167135	0.963750	0.543171	-0.839145	-0.028314	0.813458	0.517592	0.265300
42801	9.432261	-0.273886	2.612118	-0.001381	0.003430	0.007039	-0.207972	-0.167147	0.963748	0.543178	-0.839140	-0.028320	0.813453	0.517596	0.265308
42802	9.403968	-0.271621	2.592672	-0.002899	0.002269	0.004660	-0.207975	-0.167133	0.963749	0.543169	-0.839146	-0.028310	0.813458	0.517591	0.265303
42803	9.432095	-0.275179	2.612581	-0.002482	0.002124	0.008378	-0.207960	-0.167149	0.963750	0.543170	-0.839145	-0.028332	0.813462	0.517588	0.265299
42804	9.397198	-0.296679	2.568843	-0.002899	0.002268	0.004660	-0.207966	-0.167135	0.963751	0.543160	-0.839152	-0.028319	0.813466	0.517581	0.265296
42805	9.413396	-0.241736	2.584162	0.000851	0.003641	0.007468	-0.207968	-0.167152	0.963748	0.543186	-0.839135	-0.028324	0.813448	0.517604	0.265307
42806	9.428285	-0.292627	2.555602	-0.004758	0.000382	0.004809	-0.207957	-0.167131	0.963754	0.543163	-0.839149	-0.028320	0.813466	0.517586	0.265287
42807	9.403591	-0.274848	2.593700	-0.001380	0.003429	0.007039	-0.207959	-0.167143	0.963751	0.543170	-0.839145	-0.028326	0.813461	0.517590	0.265295
42808	9.434753	-0.270182	2.580265	-0.002898	0.002268	0.004660	-0.207964	-0.167127	0.963753	0.543160	-0.839152	-0.028314	0.813467	0.517584	0.265290
42809	9.422364	-0.261479	2.599447	-0.000667	0.002479	0.005089	-0.207969	-0.167117	0.963753	0.543168	-0.839147	-0.028300	0.813460	0.517595	0.265289
42810	9.422281	-0.262031	2.599694	-0.002139	0.002848	0.005849	-0.207972	-0.167117	0.963753	0.543168	-0.839147	-0.028297	0.813459	0.517595	0.265292
42811	9.422197	-0.262583	2.599942	-0.000667	0.002479	0.005089	-0.207977	-0.167107	0.963753	0.543177	-0.839142	-0.028283	0.813452	0.517606	0.265291
42812	9.374962	-0.274817	2.575248	-0.002852	0.003797	0.007799	-0.207976	-0.167132	0.963749	0.543177	-0.839141	-0.028306	0.813452	0.517600	0.265304
42813	9.424602	-0.304912	2.590830	0.001194	0.004364	0.004940	-0.207997	-0.167131	0.963745	0.543201	-0.839126	-0.028285	0.813431	0.517624	0.265322
42814	9.415238	-0.288125	2.576723	-0.005842	0.003006	0.006179	-0.208000	-0.167135	0.963744	0.543171	-0.839145	-0.028297	0.813450	0.517592	0.265325
42815	9.453039	-0.259805	2.587503	-0.002898	0.002267	0.004659	-0.208006	-0.167120	0.963745	0.543161	-0.839152	-0.028284	0.813456	0.517585	0.265322
42816	9.415094	-0.289330	2.577114	-0.001768	0.001173	0.006428	-0.207991	-0.167115	0.963749	0.543164	-0.839150	-0.028286	0.813457	0.517591	0.265306
42817	9.384255	-0.246045	2.567212	-0.001397	-0.000502	0.007007	-0.207961	-0.167106	0.963757	0.543171	-0.839145	-0.028293	0.813460	0.517601	0.265277
42818	9.371920	-0.279386	2.701028	-0.006212	0.004680	0.005600	-0.207981	-0.167112	0.963752	0.543135	-0.839168	-0.028299	0.813479	0.517562	0.265296
42819	9.480504	-0.272706	2.516743	0.000834	-0.000292	0.007437	-0.207951	-0.167107	0.963759	0.543161	-0.839151	-0.028303	0.813469	0.517591	0.265269
42820	9.430750	-0.285843	2.616291	-0.002480	0.002121	0.008378	-0.207935	-0.167124	0.963760	0.543162	-0.839150	-0.028326	0.813473	0.517588	0.265264
42821	9.414781	-0.292572	2.577890	0.000018	0.003929	0.000032	-0.207980	-0.167079	0.963758	0.543166	-0.839150	-0.028261	0.813459	0.517602	0.265278
42822	9.390049	-0.274495	2.616158	-0.001378	0.003426	0.007039	-0.207982	-0.167091	0.963755	0.543172	-0.839145	-0.028268	0.813454	0.517606	0.265286
42823	9.433551	-0.279080	2.583708	-0.000295	0.000802	0.005668	-0.207970	-0.167077	0.963760	0.543185	-0.839137	-0.028259	0.813448	0.517623	0.265269
42824	9.383271	-0.299416	2.592298	-0.003609	0.003216	0.006609	-0.207973	-0.167084	0.963758	0.543173	-0.839145	-0.028267	0.813456	0.517609	0.265275
42825	9.424149	-0.262991	2.569725	-0.002137	0.002846	0.005849	-0.207977	-0.167083	0.963758	0.543172	-0.839146	-0.028264	0.813456	0.517607	0.265278
42826	9.402024	-0.286267	2.598142	-0.001378	0.003425	0.007039	-0.207979	-0.167095	0.963755	0.543178	-0.839141	-0.028271	0.813451	0.517611	0.265286
42827	9.414704	-0.246837	2.555925	-0.001035	0.004151	0.004511	-0.208001	-0.167089	0.963751	0.543183	-0.839139	-0.028253	0.813442	0.517617	0.265301
42828	9.401839	-0.287291	2.598698	-0.001055	0.000222	0.004478	-0.207991	-0.167063	0.963758	0.543187	-0.839137	-0.028234	0.813442	0.517629	0.265279
42829	9.411505	-0.256159	2.589655	-0.003951	0.002489	0.009138	-0.207974	-0.167087	0.963758	0.543178	-0.839142	-0.028267	0.813453	0.517613	0.265278
42830	9.451904	-0.269137	2.590693	-0.001377	0.003425	0.007039	-0.207976	-0.167099	0.963755	0.543184	-0.839137	-0.028274	0.813447	0.517616	0.265286
42831	9.392851	-0.223040	2.561322	-0.001719	0.002698	0.009568	-0.207959	-0.167128	0.963754	0.543194	-0.839130	-0.028306	0.813446	0.517619	0.265287
42832	9.379959	-0.263886	2.604092	-0.001007	0.001749	0.007618	-0.207944	-0.167136	0.963756	0.543205	-0.839122	-0.028317	0.813442	0.517628	0.265279
42833	9.430105	-0.245051	2.595907	-0.001719	0.002697	0.009568	-0.207926	-0.167165	0.963754	0.543214	-0.839115	-0.028349	0.813440	0.517631	0.265281
42834	9.382860	-0.257610	2.571172	-0.004662	0.003436	0.011087	-0.207907	-0.167211	0.963751	0.543203	-0.839121	-0.028404	0.813453	0.517607	0.265288
42835	9.437070	-0.419873	2.590679	0.003579	0.002819	0.017866	-0.207845	-0.167310	0.963747	0.543273	-0.839072	-0.028502	0.813422	0.517654	0.265292
42836	9.414400	-0.451617	2.527980	0.018884	0.001151	0.026514	-0.207723	-0.167473	0.963745	0.543485	-0.838930	-0.028642	0.813311	0.517831	0.265284
42837	9.381861	-0.557806	2.589050	0.037260	-0.000611	0.043030	-0.207497	-0.167766	0.963743	0.543881	-0.838665	-0.028894	0.813104	0.518166	0.265265
42838	9.400569	-0.546706	2.594577	0.065258	-0.000105	0.056211	-0.207202	-0.168172	0.963735	0.544532	-0.838232	-0.029197	0.812744	0.518734	0.265258
42839	9.397769	-0.509800	2.604517	0.079564	-0.003992	0.072447	-0.206788	-0.168693	0.963733	0.545332	-0.837697	-0.029620	0.812313	0.519429	0.265219
42840	9.399951	-0.555878	2.594868	0.088604	-0.004084	0.080416	-0.206329	-0.169280	0.963729	0.546221	-0.837101	-0.030095	0.811832	0.520199	0.265182
42841	9.364010	-0.631334	2.574823	0.110324	-0.005948	0.092886	-0.205785	-0.169961	0.963725	0.547311	-0.836369	-0.030633	0.811236	0.521153	0.265134
42842	9.394146	-0.681499	2.585000	0.128307	-0.009204	0.102550	-0.205161	-0.170706	0.963726	0.548566	-0.835525	-0.031216	0.810546	0.522263	0.265061
42843	9.394444	-0.638992	2.561112	0.144475	-0.010442	0.112390	-0.204473	-0.171524	0.963727	0.549970	-0.834577	-0.031852	0.809768	0.523508	0.264981
42844	9.352748	-0.682637	2.584127	0.149822	-0.011978	0.117553	-0.203741	-0.172377	0.963730	0.551426	-0.833590	-0.032523	0.808962	0.524800	0.264890
42845	9.397124	-0.784939	2.565980	0.163453	-0.014190	0.129497	-0.202925	-0.173316	0.963734	0.553015	-0.832507	-0.033274	0.808082	0.526207	0.264783
42846	9.325147	-0.638074	2.630609	0.168456	-0.020417	0.137181	-0.202013	-0.174285	0.963751	0.554656	-0.831381	-0.034085	0.807185	0.527665	0.264619
42847	9.376211	-0.578372	2.597050	0.202549	-0.019403	0.144198	-0.201069	-0.175316	0.963761	0.556585	-0.830059	-0.034874	0.806092	0.529403	0.264477
42848	9.378911	-0.717991	2.602370	0.225152	-0.020132	0.151605	-0.200075	-0.176402	0.963770	0.558706	-0.828598	-0.035675	0.804871	0.531326	0.264338
42849	9.428123	-0.716728	2.502333	0.228809	-0.022148	0.160068	-0.199015	-0.177544	0.963780	0.560869	-0.827097	-0.036549	0.803628	0.533281	0.264183
42850	9.385959	-0.762051	2.525621	0.254842	-0.021525	0.166551	-0.197920	-0.178740	0.963784	0.563250	-0.825439	-0.037416	0.802233	0.535446	0.264046
42851	9.418419	-0.808194	2.502786	0.270057	-0.023552	0.171494	-0.196777	-0.179963	0.963790	0.565757	-0.823683	-0.038291	0.800749	0.537736	0.263897
42852	9.414428	-0.825018	2.536380	0.275251	-0.023675	0.176075	-0.195603	-0.181220	0.963794	0.568308	-0.821882	-0.039198	0.799228	0.540064	0.263752
42853	9.265947	-0.593301	2.662476	0.287079	-0.028787	0.178833	-0.194369	-0.182468	0.963808	0.570953	-0.820003	-0.040100	0.797642	0.542495	0.263564
42854	9.377416	-0.865195	2.492879	0.319613	-0.027824	0.182864	-0.193116	-0.183750	0.963817	0.573857	-0.817931	-0.040956	0.795861	0.545184	0.263401
42855	9.342040	-0.975425	2.556929	0.298495	-0.037302	0.183592	-0.191778	-0.184981	0.963848	0.576588	-0.815961	-0.041874	0.794209	0.547712	0.263141
42856	9.357324	-0.978057	2.594749	0.298232	-0.037546	0.191803	-0.190387	-0.186274	0.963875	0.579324	-0.813969	-0.042874	0.792550	0.550233	0.262882
42857	9.328762	-0.753794	2.638263	0.287633	-0.042785	0.193464	-0.188940	-0.187547	0.963913	0.581973	-0.812021	-0.043919	0.790955	0.552673	0.262570
42858	9.364048	-0.325914	2.832149	0.347458	-0.041904	0.187526	-0.187530	-0.188771	0.963949	0.585075	-0.809744	-0.044750	0.788999	0.555590	0.262296
42859	9.329537	-0.591946	2.599703	0.396006	-0.041936	0.191388	-0.186093	-0.190020	0.963982	0.588556	-0.807175	-0.045492	0.786747	0.558892	0.262047
42860	9.355825	-0.834962	2.556136	0.396527	-0.044944	0.194584	-0.184607	-0.191272	0.964020	0.592036	-0.804582	-0.046265	0.784483	0.562194	0.261772
42861	9.412321	-1.129278	2.401915	0.381954	-0.048337	0.196012	-0.183081	-0.192510	0.964065	0.595393	-0.802053	-0.047091	0.782297	0.565376	0.261460
42862	9.328297	-0.986808	2.421272	0.369374	-0.048272	0.200340	-0.181524	-0.193777	0.964105	0.598648	-0.799573	-0.047993	0.780173	0.568448	0.261146
42863	9.372342	-0.763731	2.570910	0.387242	-0.054841	0.193910	-0.179950	-0.194949	0.964164	0.602020	-0.796989	-0.048787	0.777940	0.571667	0.260781
42864	9.354350	-0.965741	2.445935	0.414276	-0.054579	0.197811	-0.178349	-0.196146	0.964219	0.605596	-0.794228	-0.049550	0.775529	0.575090	0.260435
42865	9.362119	-1.163666	2.466317	0.383719	-0.058709	0.196351	-0.176719	-0.197301	0.964284	0.608921	-0.791629	-0.050380	0.773295	0.578269	0.260036
42866	9.373427	-0.657535	2.550437	0.411038	-0.061833	0.197797	-0.175051	-0.198442	0.964354	0.612447	-0.788855	-0.051155	0.770886	0.581660	0.259625
42867	9.288905	-0.591586	2.709270	0.441350	-0.061340	0.191353	-0.173422	-0.199527	0.964424	0.616181	-0.785900	-0.051791	0.768274	0.585279	0.259237
42868	9.376361	-0.880218	2.512552	0.459556	-0.066763	0.188069	-0.171766	-0.200547	0.964509	0.620035	-0.782826	-0.052350	0.765541	0.589037	0.258808
42869	9.304482	-1.015824	2.413997	0.438185	-0.075006	0.194766	-0.170000	-0.201562	0.964610	0.623721	-0.779846	-0.053031	0.762936	0.592632	0.258292
42870	9.334275	-0.968566	2.527227	0.438457	-0.074115	0.194176	-0.168239	-0.202570	0.964708	0.627393	-0.776848	-0.053709	0.760311	0.596215	0.257787
42871	9.406131	-0.956939	2.393541	0.437449	-0.076046	0.191920	-0.166474	-0.203540	0.964810	0.631040	-0.773843	-0.054369	0.757678	0.599782	0.257266
42872	9.344123	-1.178541	2.390762	0.425494	-0.083089	0.197777	-0.164613	-0.204505	0.964925	0.634590	-0.770881	-0.055120	0.755115	0.603258	0.256674
42873	9.359477	-0.578076	2.626329	0.432983	-0.081312	0.195854	-0.162774	-0.205456	0.965035	0.638179	-0.767860	-0.055835	0.752484	0.606777	0.256106
42874	9.360720	-0.415261	2.642653	0.528657	-0.080170	0.180794	-0.161034	-0.206291	0.965149	0.642446	-0.764270	-0.056163	0.749220	0.611012	0.255604
42875	9.367203	-0.843850	2.394508	0.500826	-0.083912	0.183671	-0.159243	-0.207114	0.965270	0.646490	-0.760821	-0.056593	0.746118	0.615025	0.255053
42876	9.301997	-0.898020	2.449031	0.496026	-0.089542	0.181994	-0.157417	-0.207881	0.965404	0.650476	-0.757383	-0.057022	0.743035	0.618996	0.254446
42877	9.442584	-0.765144	2.472230	0.487222	-0.091361	0.183029	-0.155567	-0.208634	0.965542	0.654381	-0.753977	-0.057486	0.739990	0.622889	0.253820
42878	9.395882	-0.697171	2.453573	0.517143	-0.091593	0.181000	-0.153723	-0.209361	0.965680	0.658484	-0.750368	-0.057859	0.736728	0.626990	0.253210
42879	9.229350	-0.710204	2.416120	0.530898	-0.092331	0.176116	-0.151903	-0.210036	0.965821	0.662660	-0.746659	-0.058152	0.733353	0.631178	0.252602
42880	9.434364	-0.738809	2.356544	0.554338	-0.092414	0.170289	-0.150117	-0.210657	0.965965	0.666978	-0.742790	-0.058335	0.729798	0.635520	0.252009
42881	9.408801	-1.194408	2.187799	0.543275	-0.102852	0.177784	-0.148201	-0.211256	0.966130	0.671204	-0.738951	-0.058620	0.726307	0.639783	0.251309
42882	9.337538	-1.061851	2.241767	0.497181	-0.107444	0.175662	-0.146263	-0.211800	0.966306	0.675070	-0.735390	-0.059006	0.723109	0.643694	0.250540
42883	9.365978	-0.968817	2.420561	0.523278	-0.110456	0.179816	-0.144271	-0.212344	0.966486	0.679112	-0.731630	-0.059370	0.719717	0.647787	0.249758
42884	9.365011	-0.910752	2.332465	0.505514	-0.116224	0.183313	-0.142212	-0.212865	0.966677	0.683010	-0.727956	-0.059818	0.716431	0.651743	0.248912
42885	9.397323	-0.790757	2.354392	0.539407	-0.117140	0.174605	-0.140202	-0.213305	0.966873	0.687117	-0.724057	-0.060101	0.712891	0.655929	0.248080
42886	9.383095	-0.867570	2.394008	0.521467	-0.116131	0.168224	-0.138241	-0.213695	0.967070	0.691065	-0.720267	-0.060372	0.709450	0.659962	0.247247
