// General information: 
//  MT Manager version: 2019.2.0 
//  XDA version: 2019.2.0 build 3853 rev 94535 built on 2019-09-09
// Device information: 
//  DeviceId: 00B44113
//  ProductCode: MTW2-3A7G6
//  Firmware Version: 4.3.5
//  Hardware Version: 1.1.0
// Device settings: 
//  Filter Profile: human(46.1)
//  Option Flags: Orientation Smoother Disabled, AHS Disabled, ICC Disabled
// Coordinate system: ENU
PacketCounter	Acc_X	Acc_Y	Acc_Z	Gyr_X	Gyr_Y	Gyr_Z	Mat[1][1]	Mat[2][1]	Mat[3][1]	Mat[1][2]	Mat[2][2]	Mat[3][2]	Mat[1][3]	Mat[2][3]	Mat[3][3]
42075	9.668938	-0.386337	-1.701497	0.005097	0.000937	-0.004974	-0.150173	-0.094499	0.984133	-0.707787	0.705277	-0.040282	-0.690280	-0.702606	-0.172799
42076	9.667156	-0.418478	-1.689617	0.006354	-0.000296	-0.002147	-0.150198	-0.094506	0.984129	-0.707782	0.705281	-0.040293	-0.690279	-0.702600	-0.172821
42077	9.646515	-0.362181	-1.690069	0.009084	0.004981	-0.004568	-0.150168	-0.094495	0.984134	-0.707801	0.705262	-0.040284	-0.690266	-0.702621	-0.172791
42078	9.641039	-0.428240	-1.720581	0.004543	0.002042	-0.000430	-0.150188	-0.094473	0.984133	-0.707781	0.705281	-0.040310	-0.690282	-0.702605	-0.172791
42079	9.662275	-0.377155	-1.678721	0.008310	0.001928	-0.006775	-0.150163	-0.094497	0.984135	-0.707796	0.705267	-0.040278	-0.690272	-0.702615	-0.172790
42080	9.651723	-0.402231	-1.699391	0.004469	0.000656	-0.002680	-0.150177	-0.094502	0.984132	-0.707779	0.705284	-0.040280	-0.690286	-0.702598	-0.172804
42081	9.651750	-0.402094	-1.699270	0.007055	0.001369	-0.002189	-0.150187	-0.094499	0.984131	-0.707782	0.705281	-0.040291	-0.690282	-0.702601	-0.172809
42082	9.646746	-0.361138	-1.688970	0.008383	0.003314	-0.004524	-0.150170	-0.094498	0.984134	-0.707795	0.705269	-0.040282	-0.690272	-0.702614	-0.172796
42083	9.658710	-0.410091	-1.720638	0.007055	0.001368	-0.002188	-0.150182	-0.094495	0.984132	-0.707795	0.705267	-0.040293	-0.690269	-0.702616	-0.172802
42084	9.676192	-0.392846	-1.721530	0.007682	0.001647	-0.004481	-0.150177	-0.094506	0.984132	-0.707804	0.705260	-0.040284	-0.690262	-0.702622	-0.172805
42085	9.636280	-0.386090	-1.709198	0.006427	0.001089	0.000105	-0.150207	-0.094487	0.984129	-0.707797	0.705265	-0.040317	-0.690262	-0.702619	-0.172814
42086	9.646911	-0.360567	-1.688148	0.008383	0.003312	-0.004524	-0.150190	-0.094486	0.984132	-0.707810	0.705252	-0.040309	-0.690252	-0.702632	-0.172800
42087	9.652020	-0.401031	-1.697989	0.006981	-0.000019	-0.004437	-0.150196	-0.094508	0.984129	-0.707813	0.705249	-0.040299	-0.690247	-0.702632	-0.172820
42088	9.652062	-0.400715	-1.697825	0.004541	0.002936	-0.004136	-0.150184	-0.094507	0.984131	-0.707799	0.705264	-0.040287	-0.690265	-0.702617	-0.172812
42089	9.629612	-0.376719	-1.686471	0.006426	0.001983	-0.003601	-0.150182	-0.094508	0.984131	-0.707797	0.705267	-0.040284	-0.690267	-0.702614	-0.172811
42090	9.652167	-0.400196	-1.697348	0.006425	0.001983	-0.003601	-0.150180	-0.094510	0.984131	-0.707795	0.705269	-0.040281	-0.690270	-0.702612	-0.172811
42091	9.652206	-0.400000	-1.697173	0.008310	0.001030	-0.003066	-0.150189	-0.094515	0.984129	-0.707804	0.705259	-0.040286	-0.690259	-0.702621	-0.172820
42092	9.669704	-0.382680	-1.697963	0.006497	0.004264	-0.005058	-0.150161	-0.094511	0.984134	-0.707805	0.705259	-0.040269	-0.690264	-0.702621	-0.172797
42093	9.652338	-0.399457	-1.696547	0.005169	0.002320	-0.002722	-0.150163	-0.094504	0.984134	-0.707793	0.705271	-0.040272	-0.690275	-0.702611	-0.172794
42094	9.659241	-0.407719	-1.718219	0.007054	0.001367	-0.002187	-0.150175	-0.094500	0.984133	-0.707794	0.705270	-0.040284	-0.690272	-0.702613	-0.172800
42095	9.667897	-0.383691	-1.751924	0.008238	-0.001251	-0.001608	-0.150208	-0.094511	0.984127	-0.707802	0.705261	-0.040302	-0.690257	-0.702620	-0.172831
42096	9.643772	-0.423121	-1.662419	0.007125	0.003647	-0.003644	-0.150195	-0.094501	0.984130	-0.707805	0.705258	-0.040300	-0.690257	-0.702624	-0.172814
42097	9.669900	-0.381821	-1.697039	0.006981	-0.000021	-0.004435	-0.150201	-0.094523	0.984127	-0.707809	0.705254	-0.040290	-0.690251	-0.702625	-0.172834
42098	9.612548	-0.391943	-1.683681	0.006425	0.001981	-0.003600	-0.150200	-0.094525	0.984127	-0.707807	0.705256	-0.040288	-0.690253	-0.702623	-0.172834
42099	9.685624	-0.396694	-1.685935	0.007053	0.001366	-0.002186	-0.150212	-0.094521	0.984125	-0.707808	0.705254	-0.040300	-0.690249	-0.702625	-0.172840
42100	9.643804	-0.391337	-1.728061	0.008381	0.003309	-0.004522	-0.150195	-0.094520	0.984128	-0.707821	0.705242	-0.040291	-0.690240	-0.702638	-0.172827
42101	9.652630	-0.398048	-1.695219	0.006353	-0.000300	-0.002142	-0.150220	-0.094527	0.984123	-0.707815	0.705247	-0.040303	-0.690240	-0.702632	-0.172849
42102	9.643861	-0.391050	-1.727809	0.007053	0.001366	-0.002186	-0.150232	-0.094523	0.984122	-0.707815	0.705246	-0.040315	-0.690237	-0.702633	-0.172855
42103	9.645831	-0.389370	-1.673028	0.003284	0.003270	-0.003258	-0.150222	-0.094514	0.984124	-0.707793	0.705269	-0.040308	-0.690263	-0.702611	-0.172844
42104	9.652776	-0.397610	-1.694488	0.008453	0.004696	-0.002272	-0.150211	-0.094487	0.984128	-0.707803	0.705258	-0.040322	-0.690255	-0.702626	-0.172816
42105	9.652843	-0.397421	-1.694150	0.007681	0.001642	-0.004477	-0.150206	-0.094497	0.984128	-0.707809	0.705252	-0.040313	-0.690249	-0.702631	-0.172819
42106	9.668536	-0.412529	-1.683170	0.007053	0.001365	-0.002185	-0.150219	-0.094493	0.984127	-0.707810	0.705251	-0.040326	-0.690246	-0.702632	-0.172825
42107	9.654698	-0.364695	-1.705683	0.006424	0.001979	-0.003599	-0.150218	-0.094495	0.984127	-0.707809	0.705252	-0.040323	-0.690247	-0.702631	-0.172826
42108	9.628690	-0.405366	-1.670522	0.007752	0.003921	-0.005935	-0.150186	-0.094499	0.984131	-0.707819	0.705243	-0.040299	-0.690243	-0.702640	-0.172806
42109	9.637367	-0.381295	-1.704139	0.007610	-0.001529	0.000688	-0.150240	-0.094494	0.984123	-0.707819	0.705241	-0.040342	-0.690232	-0.702642	-0.172841
42110	9.661838	-0.403237	-1.660520	0.004538	0.003822	-0.007842	-0.150196	-0.094513	0.984128	-0.707810	0.705253	-0.040294	-0.690251	-0.702628	-0.172823
42111	9.675619	-0.419676	-1.704135	0.005653	-0.001966	-0.002097	-0.150231	-0.094533	0.984121	-0.707802	0.705260	-0.040304	-0.690251	-0.702618	-0.172862
42112	9.623692	-0.363726	-1.660178	0.007052	0.001364	-0.002184	-0.150243	-0.094529	0.984120	-0.707802	0.705259	-0.040316	-0.690248	-0.702619	-0.172868
42113	9.668804	-0.410996	-1.682004	0.007123	0.003644	-0.003642	-0.150232	-0.094519	0.984122	-0.707806	0.705256	-0.040315	-0.690247	-0.702624	-0.172853
42114	9.648117	-0.354656	-1.682502	0.008380	0.003305	-0.004520	-0.150215	-0.094518	0.984125	-0.707819	0.705243	-0.040306	-0.690238	-0.702637	-0.172839
42115	9.651516	-0.427561	-1.680242	0.005168	0.002316	-0.002721	-0.150218	-0.094510	0.984125	-0.707805	0.705257	-0.040311	-0.690251	-0.702624	-0.172837
42116	9.637670	-0.379808	-1.702758	0.005796	0.001702	-0.001306	-0.150234	-0.094498	0.984124	-0.707795	0.705266	-0.040329	-0.690258	-0.702617	-0.172840
42117	9.660267	-0.403323	-1.713485	0.006495	0.004257	-0.005056	-0.150206	-0.094493	0.984129	-0.707795	0.705267	-0.040312	-0.690264	-0.702616	-0.172817
42118	9.653480	-0.394670	-1.691165	0.008451	0.004694	-0.002271	-0.150195	-0.094467	0.984133	-0.707805	0.705256	-0.040326	-0.690256	-0.702631	-0.172790
42119	9.655321	-0.362084	-1.702706	0.005795	0.002591	-0.005012	-0.150181	-0.094474	0.984134	-0.707801	0.705260	-0.040309	-0.690263	-0.702625	-0.172785
42120	9.660484	-0.402629	-1.712425	0.007052	0.001363	-0.002183	-0.150193	-0.094470	0.984133	-0.707802	0.705260	-0.040321	-0.690260	-0.702627	-0.172791
42121	9.613690	-0.387314	-1.678227	0.005795	0.002590	-0.005012	-0.150176	-0.094476	0.984135	-0.707796	0.705266	-0.040302	-0.690269	-0.702620	-0.172783
42122	9.662483	-0.400503	-1.657427	0.006423	0.001977	-0.003597	-0.150174	-0.094478	0.984135	-0.707794	0.705268	-0.040300	-0.690272	-0.702617	-0.172784
42123	9.671159	-0.376306	-1.691088	0.006980	-0.000027	-0.004430	-0.150179	-0.094499	0.984132	-0.707797	0.705266	-0.040289	-0.690268	-0.702616	-0.172803
42124	9.618813	-0.396478	-1.754051	0.007122	0.003641	-0.003641	-0.150166	-0.094490	0.984135	-0.707800	0.705263	-0.040286	-0.690268	-0.702620	-0.172786
42125	9.646961	-0.384404	-1.667650	0.007679	0.001637	-0.004474	-0.150160	-0.094500	0.984135	-0.707807	0.705257	-0.040277	-0.690262	-0.702625	-0.172789
42126	9.653884	-0.392642	-1.689329	0.007052	0.001362	-0.002182	-0.150173	-0.094496	0.984133	-0.707807	0.705256	-0.040289	-0.690259	-0.702627	-0.172795
42127	9.671352	-0.375395	-1.690188	0.003282	0.003266	-0.003257	-0.150166	-0.094487	0.984135	-0.707783	0.705281	-0.040284	-0.690285	-0.702603	-0.172785
42128	9.652216	-0.424650	-1.676958	0.010192	0.000072	-0.002521	-0.150185	-0.094494	0.984132	-0.707805	0.705257	-0.040298	-0.690258	-0.702626	-0.172803
42129	9.638342	-0.376871	-1.699603	0.006423	0.001975	-0.003596	-0.150183	-0.094496	0.984132	-0.707803	0.705259	-0.040296	-0.690260	-0.702624	-0.172803
42130	9.671443	-0.374873	-1.689780	0.007608	-0.000642	-0.003014	-0.150204	-0.094512	0.984127	-0.707809	0.705254	-0.040301	-0.690250	-0.702627	-0.172828
42131	9.636627	-0.408892	-1.687503	0.007051	0.001362	-0.002181	-0.150217	-0.094509	0.984125	-0.707811	0.705250	-0.040313	-0.690245	-0.702631	-0.172835
42132	9.645302	-0.384931	-1.721126	0.005795	0.001700	-0.001304	-0.150234	-0.094497	0.984124	-0.707802	0.705259	-0.040332	-0.690251	-0.702624	-0.172839
42133	9.676689	-0.415272	-1.699131	0.006493	0.004252	-0.005055	-0.150206	-0.094493	0.984129	-0.707803	0.705259	-0.040314	-0.690256	-0.702625	-0.172817
42134	9.661090	-0.399767	-1.709675	0.007051	0.001361	-0.002181	-0.150219	-0.094489	0.984127	-0.707803	0.705258	-0.040326	-0.690253	-0.702626	-0.172823
42135	9.631671	-0.367404	-1.676737	0.006980	-0.000030	-0.004428	-0.150225	-0.094509	0.984124	-0.707804	0.705257	-0.040317	-0.690250	-0.702624	-0.172842
42136	9.657531	-0.433303	-1.751944	0.005865	0.003978	-0.002763	-0.150216	-0.094491	0.984127	-0.707797	0.705264	-0.040321	-0.690259	-0.702620	-0.172822
42137	9.654348	-0.390682	-1.687129	0.007121	0.003638	-0.003640	-0.150201	-0.094481	0.984131	-0.707799	0.705262	-0.040318	-0.690261	-0.702622	-0.172804
42138	9.678700	-0.381786	-1.709882	0.006980	-0.000031	-0.004427	-0.150207	-0.094502	0.984128	-0.707802	0.705260	-0.040308	-0.690257	-0.702622	-0.172824
42139	9.638769	-0.374951	-1.697604	0.007749	0.003025	-0.002225	-0.150207	-0.094486	0.984129	-0.707806	0.705255	-0.040321	-0.690253	-0.702629	-0.172812
42140	9.661373	-0.398612	-1.708340	0.005794	0.001700	-0.001304	-0.150224	-0.094473	0.984128	-0.707796	0.705264	-0.040340	-0.690259	-0.702622	-0.172815
42141	9.637131	-0.407033	-1.685073	0.006492	0.004250	-0.005054	-0.150196	-0.094468	0.984133	-0.707795	0.705266	-0.040322	-0.690266	-0.702621	-0.172792
42142	9.661471	-0.398169	-1.707894	0.005653	-0.001969	-0.002090	-0.150232	-0.094487	0.984125	-0.707786	0.705275	-0.040333	-0.690268	-0.702609	-0.172831
42143	9.644085	-0.415048	-1.706686	0.008377	0.003298	-0.004516	-0.150215	-0.094485	0.984128	-0.707798	0.705263	-0.040325	-0.690259	-0.702621	-0.172818
42144	9.687722	-0.387483	-1.675994	0.003211	0.000986	-0.001797	-0.150233	-0.094481	0.984126	-0.707771	0.705289	-0.040334	-0.690283	-0.702595	-0.172829
42145	9.621623	-0.390953	-1.695230	0.007120	0.003637	-0.003639	-0.150220	-0.094473	0.984129	-0.707775	0.705286	-0.040331	-0.690281	-0.702600	-0.172813
42146	9.661658	-0.397387	-1.707017	0.005165	0.002311	-0.002718	-0.150222	-0.094466	0.984129	-0.707763	0.705297	-0.040335	-0.690293	-0.702589	-0.172811
42147	9.639133	-0.373507	-1.695852	0.008306	0.001020	-0.003055	-0.150229	-0.094471	0.984127	-0.707774	0.705287	-0.040340	-0.690281	-0.702599	-0.172818
42148	9.661730	-0.397133	-1.706670	0.005794	0.001699	-0.001303	-0.150246	-0.094458	0.984126	-0.707764	0.705295	-0.040358	-0.690287	-0.702592	-0.172821
42149	9.646098	-0.381671	-1.717384	0.005095	0.000918	-0.004964	-0.150242	-0.094477	0.984125	-0.707755	0.705305	-0.040339	-0.690297	-0.702580	-0.172833
42150	9.646280	-0.412046	-1.650608	0.005864	0.003975	-0.002763	-0.150232	-0.094459	0.984128	-0.707748	0.705312	-0.040344	-0.690306	-0.702576	-0.172814
42151	9.628802	-0.398285	-1.715751	0.009562	0.000680	-0.003930	-0.150236	-0.094473	0.984126	-0.707770	0.705290	-0.040342	-0.690283	-0.702596	-0.172826
42152	9.661913	-0.396256	-1.705834	0.005165	0.002310	-0.002718	-0.150239	-0.094467	0.984126	-0.707758	0.705302	-0.040346	-0.690295	-0.702585	-0.172823
42153	9.655058	-0.387549	-1.683786	0.007677	0.001631	-0.004469	-0.150232	-0.094476	0.984126	-0.707766	0.705295	-0.040336	-0.690288	-0.702591	-0.172825
42154	9.646355	-0.380539	-1.716190	0.005863	0.003974	-0.002763	-0.150223	-0.094458	0.984129	-0.707759	0.705302	-0.040340	-0.690298	-0.702586	-0.172806
42155	9.660342	-0.427985	-1.693042	0.007050	0.001358	-0.002178	-0.150234	-0.094455	0.984128	-0.707758	0.705301	-0.040350	-0.690296	-0.702587	-0.172811
42156	9.655191	-0.387089	-1.683130	0.006351	-0.000306	-0.002132	-0.150258	-0.094462	0.984124	-0.707754	0.705305	-0.040362	-0.690295	-0.702582	-0.172834
42157	9.655238	-0.386850	-1.682915	0.006491	0.004245	-0.005053	-0.150232	-0.094459	0.984128	-0.707755	0.705305	-0.040346	-0.690299	-0.702583	-0.172813
42158	9.646529	-0.379740	-1.715389	0.006979	-0.000035	-0.004423	-0.150239	-0.094480	0.984125	-0.707758	0.705302	-0.040336	-0.690295	-0.702582	-0.172833
42159	9.679655	-0.377766	-1.705360	0.005933	0.005367	-0.000517	-0.150235	-0.094437	0.984130	-0.707749	0.705310	-0.040361	-0.690305	-0.702580	-0.172800
42160	9.669232	-0.403237	-1.725681	0.006421	0.001969	-0.003592	-0.150233	-0.094439	0.984130	-0.707747	0.705312	-0.040359	-0.690307	-0.702578	-0.172800
42161	9.644976	-0.411655	-1.702468	0.009003	0.002682	-0.003097	-0.150231	-0.094433	0.984131	-0.707763	0.705296	-0.040365	-0.690291	-0.702595	-0.172794
42162	9.664159	-0.362020	-1.715368	0.007677	0.001628	-0.004467	-0.150226	-0.094443	0.984130	-0.707771	0.705288	-0.040356	-0.690284	-0.702602	-0.172797
42163	9.645067	-0.411237	-1.702051	0.007049	0.001357	-0.002176	-0.150238	-0.094438	0.984129	-0.707770	0.705289	-0.040369	-0.690283	-0.702601	-0.172802
42164	9.685074	-0.417729	-1.714006	0.004467	0.000644	-0.002671	-0.150252	-0.094442	0.984126	-0.707753	0.705306	-0.040372	-0.690297	-0.702584	-0.172816
42165	9.638212	-0.402330	-1.680012	0.005094	0.000914	-0.004962	-0.150249	-0.094461	0.984125	-0.707742	0.705317	-0.040353	-0.690309	-0.702570	-0.172828
42166	9.645169	-0.410728	-1.701595	0.009701	0.003464	0.000564	-0.150267	-0.094423	0.984126	-0.707756	0.705301	-0.040397	-0.690290	-0.702592	-0.172812
42167	9.680003	-0.376504	-1.703666	0.006979	-0.000037	-0.004421	-0.150273	-0.094445	0.984123	-0.707759	0.705298	-0.040386	-0.690286	-0.702591	-0.172831
42168	9.607097	-0.401961	-1.634725	0.005094	0.000914	-0.004962	-0.150269	-0.094464	0.984122	-0.707750	0.705309	-0.040368	-0.690296	-0.702578	-0.172843
42169	9.680067	-0.375805	-1.703454	0.007676	0.001627	-0.004466	-0.150264	-0.094474	0.984122	-0.707757	0.705302	-0.040359	-0.690290	-0.702584	-0.172847
42170	9.662709	-0.392701	-1.702144	0.007049	0.001356	-0.002176	-0.150277	-0.094470	0.984120	-0.707758	0.705301	-0.040371	-0.690287	-0.702585	-0.172853
42171	9.685359	-0.416183	-1.712775	0.006489	0.004241	-0.005052	-0.150249	-0.094467	0.984125	-0.707759	0.705300	-0.040353	-0.690291	-0.702586	-0.172831
42172	9.624591	-0.353193	-1.701422	0.008374	0.003290	-0.004511	-0.150232	-0.094466	0.984127	-0.707772	0.705288	-0.040345	-0.690282	-0.702599	-0.172818
42173	9.643803	-0.441370	-1.687954	0.002651	0.002988	-0.000966	-0.150243	-0.094442	0.984128	-0.707740	0.705319	-0.040362	-0.690312	-0.702571	-0.172810
42174	9.648982	-0.344331	-1.723985	0.010748	-0.001941	-0.003338	-0.150270	-0.094470	0.984121	-0.707767	0.705291	-0.040369	-0.690278	-0.702595	-0.172847
42175	9.643847	-0.441076	-1.687779	0.003279	0.003257	-0.003257	-0.150262	-0.094460	0.984123	-0.707743	0.705316	-0.040364	-0.690305	-0.702572	-0.172835
42176	9.656126	-0.382929	-1.678710	0.007814	0.005294	-0.003682	-0.150237	-0.094439	0.984129	-0.707751	0.705308	-0.040362	-0.690302	-0.702582	-0.172802
42177	9.640527	-0.367480	-1.689232	0.006420	0.001965	-0.003590	-0.150236	-0.094441	0.984129	-0.707749	0.705311	-0.040360	-0.690305	-0.702579	-0.172804
42178	9.661451	-0.423238	-1.687901	0.007676	0.001624	-0.004465	-0.150231	-0.094451	0.984129	-0.707756	0.705303	-0.040351	-0.690298	-0.702586	-0.172807
42179	9.642335	-0.334662	-1.700868	0.005163	0.002306	-0.002715	-0.150233	-0.094444	0.984129	-0.707744	0.705316	-0.040355	-0.690310	-0.702574	-0.172804
42180	9.644129	-0.439851	-1.686485	0.006281	-0.001704	-0.004373	-0.150252	-0.094477	0.984123	-0.707742	0.705318	-0.040344	-0.690308	-0.702567	-0.172840
42181	9.680653	-0.373193	-1.700696	0.010327	0.003732	-0.001724	-0.150251	-0.094453	0.984126	-0.707764	0.705295	-0.040366	-0.690287	-0.702593	-0.172821
42182	9.623329	-0.383330	-1.687268	0.003140	0.000465	-0.007745	-0.150230	-0.094494	0.984125	-0.707745	0.705317	-0.040316	-0.690310	-0.702566	-0.172838
42183	9.652925	-0.415276	-1.719645	0.008511	0.006078	-0.000021	-0.150224	-0.094442	0.984131	-0.707751	0.705308	-0.040351	-0.690305	-0.702582	-0.172795
42184	9.673904	-0.364086	-1.678012	0.006351	-0.000310	-0.002127	-0.150249	-0.094449	0.984126	-0.707747	0.705312	-0.040363	-0.690304	-0.702577	-0.172818
42185	9.639153	-0.398116	-1.675609	0.006419	0.001964	-0.003589	-0.150248	-0.094451	0.984126	-0.707745	0.705315	-0.040361	-0.690307	-0.702574	-0.172819
42186	9.663514	-0.389288	-1.698354	0.006419	0.001964	-0.003589	-0.150247	-0.094452	0.984126	-0.707743	0.705317	-0.040358	-0.690309	-0.702572	-0.172820
42187	9.639254	-0.397717	-1.675126	0.007744	0.003018	-0.002219	-0.150248	-0.094437	0.984128	-0.707747	0.705311	-0.040371	-0.690304	-0.702579	-0.172809
42188	9.637504	-0.399261	-1.729319	0.003906	0.003523	-0.005547	-0.150222	-0.094441	0.984131	-0.707731	0.705329	-0.040345	-0.690327	-0.702560	-0.172795
42189	9.663714	-0.388621	-1.697369	0.010326	0.003731	-0.001723	-0.150221	-0.094418	0.984134	-0.707753	0.705306	-0.040367	-0.690304	-0.702587	-0.172777
42190	9.630697	-0.390435	-1.706894	0.004466	0.000640	-0.002668	-0.150236	-0.094423	0.984131	-0.707736	0.705323	-0.040369	-0.690318	-0.702569	-0.172791
42191	9.663781	-0.388352	-1.697050	0.004466	0.000640	-0.002668	-0.150182	-0.094584	0.984124	-0.707766	0.705301	-0.040222	-0.690299	-0.702570	-0.172866
42192	9.655081	-0.381433	-1.729561	0.008372	0.003285	-0.004508	-0.150165	-0.094583	0.984126	-0.707779	0.705288	-0.040214	-0.690289	-0.702583	-0.172853
42193	9.646505	-0.404952	-1.695398	0.006419	0.001962	-0.003588	-0.150163	-0.094584	0.984127	-0.707776	0.705292	-0.040210	-0.690293	-0.702579	-0.172853
42194	9.681318	-0.370506	-1.697495	0.006419	0.001962	-0.003588	-0.150161	-0.094586	0.984127	-0.707774	0.705294	-0.040207	-0.690296	-0.702577	-0.172853
42195	9.622285	-0.413061	-1.672008	0.006418	0.001962	-0.003588	-0.150159	-0.094586	0.984127	-0.707770	0.705298	-0.040205	-0.690300	-0.702573	-0.172852
42196	9.672681	-0.363362	-1.729713	0.007115	0.003626	-0.003634	-0.150146	-0.094577	0.984130	-0.707773	0.705295	-0.040202	-0.690300	-0.702577	-0.172836
42197	9.653637	-0.412603	-1.716285	0.006350	-0.000311	-0.002125	-0.150169	-0.094585	0.984125	-0.707769	0.705298	-0.040213	-0.690299	-0.702572	-0.172858
42198	9.624127	-0.380232	-1.683410	0.005859	0.003967	-0.002760	-0.150160	-0.094567	0.984129	-0.707762	0.705305	-0.040217	-0.690308	-0.702568	-0.172839
42199	9.664222	-0.386573	-1.694940	0.007183	0.005898	-0.005097	-0.150121	-0.094552	0.984136	-0.707768	0.705300	-0.040201	-0.690310	-0.702575	-0.172802
42200	9.653849	-0.412050	-1.715229	0.007675	0.000744	-0.000754	-0.150148	-0.094543	0.984133	-0.707771	0.705296	-0.040228	-0.690302	-0.702580	-0.172814
42201	9.641717	-0.362613	-1.683485	0.007115	0.003624	-0.003633	-0.150136	-0.094534	0.984135	-0.707775	0.705292	-0.040226	-0.690300	-0.702585	-0.172798
42202	9.647004	-0.403199	-1.692974	0.005722	0.000297	-0.003540	-0.150146	-0.094547	0.984133	-0.707768	0.705299	-0.040223	-0.690305	-0.702577	-0.172815
42203	9.680096	-0.401034	-1.683068	0.006418	0.001960	-0.003587	-0.150143	-0.094549	0.984133	-0.707767	0.705300	-0.040219	-0.690306	-0.702576	-0.172815
42204	9.638346	-0.396100	-1.725345	0.005162	0.002302	-0.002713	-0.150146	-0.094542	0.984133	-0.707755	0.705312	-0.040223	-0.690318	-0.702565	-0.172812
42205	9.638373	-0.395966	-1.725227	0.006350	-0.000312	-0.002123	-0.150168	-0.094550	0.984129	-0.707751	0.705315	-0.040232	-0.690317	-0.702560	-0.172834
42206	9.657593	-0.376886	-1.671622	0.008439	0.004679	-0.002263	-0.150157	-0.094524	0.984133	-0.707761	0.705304	-0.040246	-0.690309	-0.702575	-0.172807
42207	9.648914	-0.370157	-1.704037	0.007046	0.001351	-0.002170	-0.150171	-0.094520	0.984131	-0.707761	0.705304	-0.040258	-0.690307	-0.702575	-0.172814
42208	9.661161	-0.419392	-1.735235	0.005858	0.003965	-0.002760	-0.150161	-0.094502	0.984135	-0.707754	0.705311	-0.040263	-0.690316	-0.702571	-0.172794
42209	9.642086	-0.361289	-1.681656	0.006418	0.001959	-0.003586	-0.150158	-0.094504	0.984135	-0.707752	0.705313	-0.040259	-0.690318	-0.702569	-0.172794
42210	9.652642	-0.442783	-1.700749	0.007742	0.003014	-0.002216	-0.150159	-0.094489	0.984136	-0.707757	0.705307	-0.040271	-0.690313	-0.702577	-0.172784
42211	9.656082	-0.378049	-1.724707	0.006418	0.001959	-0.003586	-0.150158	-0.094491	0.984136	-0.707756	0.705308	-0.040269	-0.690314	-0.702575	-0.172785
42212	9.647476	-0.401523	-1.690682	0.006978	-0.000047	-0.004412	-0.150165	-0.094513	0.984133	-0.707759	0.705305	-0.040259	-0.690309	-0.702575	-0.172805
42213	9.673580	-0.390985	-1.659161	0.007606	-0.001529	0.000711	-0.150215	-0.094510	0.984126	-0.707760	0.705303	-0.040298	-0.690298	-0.702578	-0.172838
42214	9.631820	-0.386055	-1.701546	0.004533	0.003781	-0.007836	-0.150171	-0.094529	0.984131	-0.707752	0.705314	-0.040250	-0.690316	-0.702564	-0.172821
42215	9.649279	-0.368519	-1.702324	0.005857	0.003964	-0.002759	-0.150162	-0.094511	0.984134	-0.707747	0.705318	-0.040255	-0.690323	-0.702562	-0.172802
42216	9.665023	-0.383456	-1.691077	0.007674	0.001615	-0.004458	-0.150157	-0.094522	0.984133	-0.707755	0.705311	-0.040246	-0.690316	-0.702568	-0.172805
42217	9.647697	-0.400270	-1.689719	0.007674	0.001615	-0.004458	-0.150153	-0.094533	0.984133	-0.707764	0.705302	-0.040237	-0.690308	-0.702575	-0.172810
42218	9.665119	-0.382962	-1.690639	0.007741	0.003013	-0.002215	-0.150154	-0.094518	0.984134	-0.707769	0.705297	-0.040250	-0.690302	-0.702583	-0.172799
42219	9.649480	-0.367710	-1.701357	0.007045	0.001350	-0.002168	-0.150167	-0.094514	0.984133	-0.707768	0.705297	-0.040261	-0.690300	-0.702584	-0.172806
42220	9.656580	-0.406411	-1.656227	0.008369	0.003278	-0.004504	-0.150149	-0.094513	0.984135	-0.707781	0.705284	-0.040253	-0.690291	-0.702596	-0.172793
42221	9.654838	-0.408158	-1.710582	0.006349	-0.000314	-0.002120	-0.150174	-0.094521	0.984131	-0.707775	0.705289	-0.040264	-0.690291	-0.702590	-0.172815
42222	9.654856	-0.408065	-1.710505	0.007045	0.001349	-0.002167	-0.150186	-0.094517	0.984129	-0.707776	0.705288	-0.040276	-0.690288	-0.702592	-0.172821
42223	9.656570	-0.375699	-1.722487	0.007045	0.001349	-0.002167	-0.150200	-0.094512	0.984128	-0.707773	0.705290	-0.040289	-0.690287	-0.702591	-0.172828
42224	9.632302	-0.384101	-1.699259	0.007112	0.003619	-0.003631	-0.150187	-0.094503	0.984131	-0.707776	0.705287	-0.040287	-0.690287	-0.702595	-0.172812
42225	9.656771	-0.405667	-1.655295	0.008301	0.001006	-0.003039	-0.150197	-0.094508	0.984129	-0.707787	0.705276	-0.040292	-0.690274	-0.702605	-0.172822
42226	9.665445	-0.381755	-1.689051	0.006417	0.001955	-0.003584	-0.150196	-0.094510	0.984129	-0.707785	0.705278	-0.040290	-0.690276	-0.702603	-0.172823
42227	9.672449	-0.390109	-1.710603	0.005160	0.002298	-0.002711	-0.150197	-0.094503	0.984129	-0.707771	0.705292	-0.040292	-0.690290	-0.702590	-0.172819
42228	9.648183	-0.398570	-1.687345	0.006484	0.003354	-0.001342	-0.150202	-0.094480	0.984131	-0.707766	0.705295	-0.040311	-0.690294	-0.702589	-0.172806
42229	9.672583	-0.389815	-1.709915	0.006484	0.004225	-0.005048	-0.150175	-0.094476	0.984135	-0.707766	0.705297	-0.040294	-0.690301	-0.702588	-0.172785
42230	9.643028	-0.357128	-1.677133	0.009490	-0.000738	-0.006152	-0.150174	-0.094515	0.984131	-0.707789	0.705275	-0.040271	-0.690277	-0.702605	-0.172810
42231	9.648345	-0.397858	-1.686584	0.009692	0.003461	0.000573	-0.150191	-0.094478	0.984133	-0.707805	0.705257	-0.040314	-0.690257	-0.702629	-0.172795
42232	9.632717	-0.382627	-1.697238	0.005788	0.002561	-0.005000	-0.150175	-0.094485	0.984134	-0.707801	0.705262	-0.040296	-0.690265	-0.702622	-0.172789
42233	9.655437	-0.406069	-1.707700	0.005855	0.003960	-0.002758	-0.150165	-0.094466	0.984137	-0.707792	0.705271	-0.040301	-0.690276	-0.702616	-0.172770
42234	9.665892	-0.380248	-1.686831	0.007044	0.001347	-0.002165	-0.150178	-0.094462	0.984136	-0.707792	0.705270	-0.040313	-0.690273	-0.702617	-0.172776
42235	9.608555	-0.390612	-1.673475	0.006416	0.001953	-0.003583	-0.150177	-0.094464	0.984136	-0.707790	0.705272	-0.040310	-0.690275	-0.702615	-0.172777
42236	9.672945	-0.388250	-1.708220	0.009557	0.001530	-0.007615	-0.150150	-0.094498	0.984137	-0.707816	0.705248	-0.040273	-0.690255	-0.702635	-0.172780
42237	9.666010	-0.379341	-1.686358	0.006349	-0.000316	-0.002117	-0.150174	-0.094505	0.984132	-0.707811	0.705253	-0.040284	-0.690255	-0.702629	-0.172803
42238	9.638317	-0.421932	-1.705451	0.007178	0.005885	-0.005095	-0.150135	-0.094490	0.984140	-0.707816	0.705248	-0.040268	-0.690258	-0.702635	-0.172764
42239	9.660856	-0.338142	-1.676027	0.007111	0.002747	0.000077	-0.150154	-0.094461	0.984140	-0.707812	0.705250	-0.040302	-0.690257	-0.702638	-0.172757
42240	9.654129	-0.436939	-1.693805	0.008300	0.001003	-0.003036	-0.150163	-0.094465	0.984138	-0.707823	0.705239	-0.040308	-0.690245	-0.702648	-0.172766
42241	9.666219	-0.378817	-1.685280	0.008300	0.001003	-0.003036	-0.150173	-0.094470	0.984136	-0.707833	0.705228	-0.040314	-0.690232	-0.702658	-0.172775
42242	9.640168	-0.389268	-1.716700	0.007044	0.001346	-0.002164	-0.150186	-0.094466	0.984134	-0.707833	0.705227	-0.040327	-0.690229	-0.702660	-0.172782
42243	9.654239	-0.436428	-1.693308	0.005787	0.002558	-0.004999	-0.150172	-0.094473	0.984136	-0.707828	0.705234	-0.040310	-0.690238	-0.702652	-0.172777
42244	9.643666	-0.354498	-1.674019	0.006349	-0.000317	-0.002116	-0.150196	-0.094481	0.984131	-0.707823	0.705238	-0.040321	-0.690237	-0.702647	-0.172800
42245	9.671679	-0.418823	-1.694155	0.006482	0.004220	-0.005047	-0.150169	-0.094477	0.984136	-0.707823	0.705239	-0.040304	-0.690243	-0.702647	-0.172777
42246	9.659406	-0.338947	-1.729077	0.008433	0.004671	-0.002260	-0.150158	-0.094450	0.984140	-0.707833	0.705228	-0.040317	-0.690235	-0.702661	-0.172750
42247	9.631775	-0.411809	-1.681635	0.005587	-0.003382	-0.004308	-0.150187	-0.094493	0.984132	-0.707823	0.705239	-0.040305	-0.690240	-0.702644	-0.172802
42248	9.656125	-0.403039	-1.704522	0.009689	0.004327	-0.003131	-0.150172	-0.094475	0.984136	-0.707843	0.705219	-0.040312	-0.690223	-0.702667	-0.172778
42249	9.649205	-0.394257	-1.682506	0.005720	0.000287	-0.003533	-0.150184	-0.094487	0.984133	-0.707832	0.705229	-0.040309	-0.690230	-0.702655	-0.172795
42250	9.663192	-0.411309	-1.725830	0.006481	0.003352	-0.001340	-0.150189	-0.094464	0.984134	-0.707828	0.705233	-0.040329	-0.690234	-0.702654	-0.172782
42251	9.633593	-0.378900	-1.693094	0.004464	0.000631	-0.002661	-0.150204	-0.094468	0.984131	-0.707811	0.705250	-0.040333	-0.690248	-0.702637	-0.172797
42252	9.654621	-0.434659	-1.691583	0.005720	0.000287	-0.003532	-0.150215	-0.094481	0.984128	-0.707804	0.705257	-0.040329	-0.690253	-0.702628	-0.172814
42253	9.650996	-0.361285	-1.694119	0.007671	0.001606	-0.004451	-0.150210	-0.094493	0.984128	-0.707814	0.705247	-0.040320	-0.690243	-0.702636	-0.172819
42254	9.656330	-0.402041	-1.703594	0.005720	-0.000580	0.000174	-0.150253	-0.094486	0.984122	-0.707802	0.705258	-0.040353	-0.690247	-0.702626	-0.172845
42255	9.642435	-0.384781	-1.659766	0.004663	0.006569	-0.003353	-0.150222	-0.094454	0.984130	-0.707786	0.705273	-0.040349	-0.690269	-0.702615	-0.172800
42256	9.633774	-0.378011	-1.692263	0.005026	-0.001377	-0.003484	-0.150244	-0.094478	0.984124	-0.707775	0.705285	-0.040345	-0.690277	-0.702600	-0.172834
42257	9.637466	-0.450764	-1.689527	0.007043	0.002210	-0.005869	-0.150224	-0.094494	0.984126	-0.707779	0.705282	-0.040320	-0.690276	-0.702601	-0.172831
42258	9.635506	-0.345071	-1.704192	0.006414	0.001949	-0.003580	-0.150222	-0.094496	0.984126	-0.707777	0.705284	-0.040317	-0.690279	-0.702599	-0.172832
42259	9.639226	-0.417968	-1.701285	0.005158	0.002293	-0.002709	-0.150224	-0.094489	0.984126	-0.707765	0.705297	-0.040320	-0.690291	-0.702587	-0.172829
42260	9.651302	-0.359671	-1.692718	0.007043	0.002209	-0.005868	-0.150205	-0.094506	0.984128	-0.707770	0.705292	-0.040296	-0.690290	-0.702589	-0.172827
42261	9.663643	-0.408855	-1.723889	0.006348	-0.000319	-0.002113	-0.150231	-0.094515	0.984123	-0.707767	0.705295	-0.040308	-0.690287	-0.702586	-0.172852
42262	9.623636	-0.402184	-1.711860	0.007042	0.001343	-0.002162	-0.150244	-0.094511	0.984121	-0.707768	0.705294	-0.040320	-0.690284	-0.702587	-0.172858
42263	9.663716	-0.408637	-1.723530	0.005852	0.003955	-0.002757	-0.150237	-0.094493	0.984124	-0.707760	0.705301	-0.040326	-0.690293	-0.702582	-0.172841
42264	9.642795	-0.382650	-1.658165	0.006910	-0.002327	-0.002935	-0.150270	-0.094520	0.984116	-0.707761	0.705300	-0.040331	-0.690285	-0.702579	-0.172883
42265	9.656770	-0.399663	-1.701664	0.006414	0.001948	-0.003579	-0.150268	-0.094521	0.984116	-0.707758	0.705303	-0.040328	-0.690288	-0.702576	-0.172883
42266	9.663800	-0.408037	-1.723202	0.006414	0.001947	-0.003579	-0.150267	-0.094523	0.984116	-0.707756	0.705305	-0.040325	-0.690291	-0.702574	-0.172884
42267	9.635836	-0.343157	-1.702713	0.005786	0.002552	-0.004997	-0.150251	-0.094531	0.984118	-0.707751	0.705311	-0.040307	-0.690299	-0.702567	-0.172878
42268	9.672603	-0.413949	-1.690069	0.007604	-0.000665	-0.002983	-0.150272	-0.094547	0.984113	-0.707756	0.705305	-0.040312	-0.690289	-0.702570	-0.172904
42269	9.634261	-0.374816	-1.690203	0.003901	0.003500	-0.005544	-0.150247	-0.094552	0.984117	-0.707740	0.705324	-0.040286	-0.690312	-0.702551	-0.172891
42270	9.697030	-0.404827	-1.712619	0.007042	0.001343	-0.002161	-0.150260	-0.094549	0.984115	-0.707740	0.705323	-0.040298	-0.690309	-0.702553	-0.172898
42271	9.641331	-0.383001	-1.711571	0.009555	0.000653	-0.003901	-0.150265	-0.094563	0.984113	-0.707761	0.705302	-0.040296	-0.690287	-0.702571	-0.172910
42272	9.655429	-0.430178	-1.688114	0.003901	0.002636	-0.001838	-0.150271	-0.094548	0.984114	-0.707739	0.705324	-0.040306	-0.690308	-0.702552	-0.172905
42273	9.636086	-0.341813	-1.701565	0.007107	0.003609	-0.003627	-0.150258	-0.094538	0.984116	-0.707741	0.705321	-0.040305	-0.690308	-0.702556	-0.172888
42274	9.665908	-0.404012	-1.666966	0.006413	0.001946	-0.003578	-0.150257	-0.094540	0.984116	-0.707739	0.705323	-0.040302	-0.690310	-0.702553	-0.172889
42275	9.650246	-0.388752	-1.677810	0.007041	0.001342	-0.002160	-0.150270	-0.094536	0.984115	-0.707738	0.705323	-0.040314	-0.690308	-0.702554	-0.172896
42276	9.657251	-0.397248	-1.699494	0.007604	-0.000666	-0.002981	-0.150291	-0.094552	0.984110	-0.707744	0.705318	-0.040319	-0.690298	-0.702557	-0.172922
42277	9.674613	-0.379876	-1.700643	0.007670	0.001600	-0.004448	-0.150286	-0.094562	0.984110	-0.707750	0.705312	-0.040310	-0.690293	-0.702562	-0.172924
42278	9.648625	-0.390320	-1.731902	0.005850	0.003953	-0.002757	-0.150276	-0.094544	0.984113	-0.707743	0.705319	-0.040314	-0.690302	-0.702557	-0.172906
42279	9.674720	-0.379405	-1.700137	0.006976	-0.000063	-0.004398	-0.150284	-0.094567	0.984110	-0.707747	0.705315	-0.040304	-0.690296	-0.702558	-0.172927
42280	9.640077	-0.413424	-1.697566	0.006413	0.001945	-0.003577	-0.150282	-0.094569	0.984110	-0.707745	0.705317	-0.040301	-0.690298	-0.702556	-0.172928
42281	9.641835	-0.411125	-1.642845	0.005785	0.001686	-0.001289	-0.150299	-0.094556	0.984109	-0.707734	0.705328	-0.040319	-0.690307	-0.702547	-0.172930
42282	9.634797	-0.372269	-1.687707	0.007669	0.001599	-0.004447	-0.150293	-0.094566	0.984108	-0.707742	0.705321	-0.040310	-0.690300	-0.702553	-0.172933
42283	9.647200	-0.421525	-1.718706	0.005156	0.002289	-0.002707	-0.150297	-0.094559	0.984108	-0.707728	0.705333	-0.040314	-0.690313	-0.702541	-0.172932
42284	9.626277	-0.395400	-1.653191	0.008363	0.003261	-0.004496	-0.150280	-0.094559	0.984111	-0.707741	0.705321	-0.040306	-0.690303	-0.702553	-0.172919
42285	9.673345	-0.410403	-1.686686	0.006347	-0.000322	-0.002109	-0.150306	-0.094567	0.984106	-0.707736	0.705325	-0.040318	-0.690302	-0.702548	-0.172943
42286	9.641969	-0.380000	-1.708642	0.005784	0.002547	-0.004995	-0.150291	-0.094574	0.984108	-0.707732	0.705330	-0.040300	-0.690310	-0.702542	-0.172938
42287	9.673428	-0.409987	-1.686311	0.004528	0.002031	-0.000419	-0.150310	-0.094553	0.984107	-0.707711	0.705350	-0.040324	-0.690327	-0.702525	-0.172938
42288	9.642051	-0.379770	-1.708232	0.008297	0.000995	-0.003028	-0.150319	-0.094558	0.984105	-0.707721	0.705340	-0.040330	-0.690315	-0.702535	-0.172947
42289	9.650795	-0.386018	-1.675278	0.006412	0.001943	-0.003576	-0.150317	-0.094559	0.984105	-0.707717	0.705344	-0.040326	-0.690319	-0.702530	-0.172946
42290	9.656132	-0.396588	-1.751336	0.007669	0.001597	-0.004446	-0.150312	-0.094570	0.984105	-0.707725	0.705336	-0.040317	-0.690312	-0.702536	-0.172950
42291	9.657892	-0.394197	-1.696563	0.007734	0.003002	-0.002207	-0.150314	-0.094555	0.984106	-0.707731	0.705330	-0.040330	-0.690306	-0.702545	-0.172940
42292	9.650950	-0.385259	-1.674563	0.008297	0.001854	-0.006733	-0.150291	-0.094580	0.984107	-0.707747	0.705316	-0.040300	-0.690295	-0.702555	-0.172941
42293	9.658020	-0.393411	-1.696015	0.003899	0.003493	-0.005544	-0.150265	-0.094584	0.984111	-0.707730	0.705334	-0.040274	-0.690318	-0.702537	-0.172927
42294	9.642361	-0.377953	-1.706883	0.006975	-0.000066	-0.004395	-0.150272	-0.094606	0.984108	-0.707733	0.705331	-0.040264	-0.690313	-0.702536	-0.172948
42295	9.656495	-0.425010	-1.683320	0.005848	0.003950	-0.002756	-0.150265	-0.094588	0.984111	-0.707727	0.705338	-0.040270	-0.690321	-0.702532	-0.172930
42296	9.658156	-0.392656	-1.695416	0.006347	-0.000323	-0.002107	-0.150290	-0.094596	0.984106	-0.707722	0.705342	-0.040281	-0.690321	-0.702527	-0.172953
42297	9.640853	-0.409644	-1.694072	0.006412	0.001942	-0.003575	-0.150288	-0.094597	0.984106	-0.707719	0.705345	-0.040278	-0.690324	-0.702524	-0.172954
42298	9.651221	-0.383574	-1.673385	0.007668	0.001596	-0.004444	-0.150283	-0.094608	0.984106	-0.707727	0.705338	-0.040269	-0.690317	-0.702530	-0.172957
42299	9.633955	-0.400495	-1.671849	0.005848	0.003949	-0.002756	-0.150273	-0.094590	0.984109	-0.707720	0.705345	-0.040273	-0.690327	-0.702525	-0.172937
42300	9.658320	-0.391931	-1.694649	0.006975	-0.000926	-0.000688	-0.150312	-0.094592	0.984103	-0.707717	0.705346	-0.040299	-0.690321	-0.702524	-0.172966
42301	9.675661	-0.374651	-1.695832	0.007668	0.001595	-0.004444	-0.150306	-0.094601	0.984103	-0.707723	0.705340	-0.040290	-0.690316	-0.702528	-0.172968
42302	9.632363	-0.402214	-1.725909	0.005783	0.002543	-0.004993	-0.150291	-0.094609	0.984105	-0.707719	0.705345	-0.040272	-0.690324	-0.702522	-0.172963
42303	9.665497	-0.399850	-1.715589	0.007233	0.007273	-0.002855	-0.150258	-0.094569	0.984113	-0.707722	0.705342	-0.040278	-0.690327	-0.702531	-0.172912
42304	9.658534	-0.391142	-1.693610	0.006282	-0.002589	-0.000637	-0.150309	-0.094582	0.984104	-0.707715	0.705348	-0.040304	-0.690324	-0.702523	-0.172957
42305	9.658550	-0.391018	-1.693549	0.008360	0.003256	-0.004493	-0.150293	-0.094583	0.984107	-0.707729	0.705333	-0.040295	-0.690312	-0.702537	-0.172946
42306	9.635883	-0.366994	-1.682655	0.003834	0.001226	-0.004074	-0.150293	-0.094593	0.984106	-0.707710	0.705353	-0.040283	-0.690332	-0.702516	-0.172954
42307	9.657035	-0.422639	-1.680816	0.006411	0.001940	-0.003574	-0.150293	-0.094596	0.984106	-0.707710	0.705353	-0.040280	-0.690332	-0.702516	-0.172956
42308	9.635955	-0.366472	-1.682355	0.005718	0.000277	-0.003524	-0.150303	-0.094610	0.984103	-0.707704	0.705361	-0.040276	-0.690337	-0.702507	-0.172974
42309	9.681463	-0.413633	-1.703373	0.009052	0.004917	-0.004542	-0.150275	-0.094599	0.984108	-0.707723	0.705342	-0.040268	-0.690323	-0.702527	-0.172945
42310	9.665835	-0.398248	-1.714057	0.005783	0.002541	-0.004993	-0.150260	-0.094607	0.984110	-0.707719	0.705347	-0.040251	-0.690331	-0.702521	-0.172940
42311	9.651859	-0.380794	-1.670336	0.007103	0.002744	0.000083	-0.150279	-0.094578	0.984109	-0.707716	0.705347	-0.040285	-0.690329	-0.702524	-0.172933
42312	9.658921	-0.389403	-1.691804	0.006411	0.001939	-0.003573	-0.150278	-0.094580	0.984109	-0.707714	0.705349	-0.040283	-0.690331	-0.702522	-0.172934
42313	9.627557	-0.359077	-1.713670	0.007103	0.003601	-0.003623	-0.150266	-0.094569	0.984112	-0.707717	0.705347	-0.040282	-0.690331	-0.702526	-0.172918
42314	9.664448	-0.429917	-1.700613	0.005782	0.001683	-0.001286	-0.150282	-0.094557	0.984111	-0.707707	0.705356	-0.040300	-0.690338	-0.702518	-0.172921
42315	9.659075	-0.388879	-1.691045	0.007667	0.001591	-0.004441	-0.150279	-0.094567	0.984110	-0.707714	0.705349	-0.040292	-0.690331	-0.702524	-0.172925
42316	9.619071	-0.382062	-1.678959	0.006411	0.001938	-0.003573	-0.150278	-0.094569	0.984110	-0.707712	0.705352	-0.040289	-0.690334	-0.702521	-0.172926
42317	9.666193	-0.397123	-1.712297	0.007731	0.002998	-0.002204	-0.150280	-0.094554	0.984112	-0.707716	0.705346	-0.040303	-0.690328	-0.702529	-0.172916
42318	9.643521	-0.373178	-1.701375	0.005782	0.002539	-0.004992	-0.150264	-0.094561	0.984113	-0.707712	0.705351	-0.040285	-0.690336	-0.702522	-0.172911
42319	9.650651	-0.411404	-1.656084	0.006975	-0.000071	-0.004390	-0.150269	-0.094583	0.984110	-0.707714	0.705350	-0.040273	-0.690333	-0.702520	-0.172930
42320	9.660920	-0.355433	-1.702280	0.005846	0.003946	-0.002755	-0.150260	-0.094565	0.984114	-0.707707	0.705357	-0.040277	-0.690343	-0.702516	-0.172911
42321	9.638813	-0.439122	-1.730451	0.007102	0.003599	-0.003622	-0.150245	-0.094555	0.984117	-0.707708	0.705356	-0.040274	-0.690344	-0.702518	-0.172894
42322	9.661084	-0.355009	-1.701438	0.007794	0.005260	-0.003673	-0.150220	-0.094535	0.984122	-0.707716	0.705348	-0.040273	-0.690342	-0.702529	-0.172861
42323	9.659560	-0.386981	-1.688711	0.006410	0.001936	-0.003572	-0.150218	-0.094537	0.984123	-0.707712	0.705352	-0.040269	-0.690346	-0.702525	-0.172862
42324	9.643891	-0.371712	-1.699594	0.006410	0.001936	-0.003572	-0.150217	-0.094539	0.984123	-0.707710	0.705354	-0.040266	-0.690348	-0.702522	-0.172862
42325	9.626639	-0.388830	-1.698001	0.007793	0.004405	0.000034	-0.150223	-0.094497	0.984126	-0.707711	0.705352	-0.040300	-0.690347	-0.702530	-0.172837
42326	9.689510	-0.419010	-1.720082	0.008358	0.003251	-0.004489	-0.150206	-0.094497	0.984128	-0.707723	0.705340	-0.040291	-0.690338	-0.702543	-0.172824
42327	9.651097	-0.379971	-1.720389	0.006975	-0.000073	-0.004388	-0.150213	-0.094518	0.984125	-0.707724	0.705340	-0.040282	-0.690335	-0.702540	-0.172844
42328	9.642513	-0.403171	-1.686159	0.004525	0.002883	-0.004123	-0.150201	-0.094517	0.984127	-0.707710	0.705355	-0.040270	-0.690352	-0.702525	-0.172836
42329	9.684221	-0.377269	-1.710126	0.005153	0.002282	-0.002703	-0.150204	-0.094511	0.984127	-0.707699	0.705365	-0.040274	-0.690362	-0.702515	-0.172834
42330	9.625308	-0.419858	-1.684413	0.007666	0.001588	-0.004438	-0.150199	-0.094522	0.984127	-0.707707	0.705357	-0.040264	-0.690355	-0.702521	-0.172838
42331	9.691407	-0.415327	-1.664521	0.005153	0.002282	-0.002703	-0.150201	-0.094516	0.984127	-0.707695	0.705369	-0.040267	-0.690367	-0.702510	-0.172836
42332	9.649760	-0.410938	-1.706862	0.007101	0.003596	-0.003621	-0.150188	-0.094507	0.984130	-0.707698	0.705367	-0.040265	-0.690367	-0.702514	-0.172820
42333	9.634106	-0.395717	-1.717662	0.005153	0.002282	-0.002703	-0.150193	-0.094501	0.984130	-0.707686	0.705378	-0.040270	-0.690378	-0.702503	-0.172820
42334	9.700188	-0.391174	-1.697849	0.006975	-0.000075	-0.004387	-0.150200	-0.094522	0.984127	-0.707689	0.705376	-0.040260	-0.690374	-0.702503	-0.172840
42335	9.609845	-0.403726	-1.694348	0.005844	0.003943	-0.002754	-0.150191	-0.094504	0.984130	-0.707681	0.705384	-0.040264	-0.690384	-0.702498	-0.172821
42336	9.677512	-0.367136	-1.686889	0.008231	-0.001275	-0.001547	-0.150226	-0.094515	0.984124	-0.707689	0.705375	-0.040285	-0.690369	-0.702505	-0.172853
42337	9.642916	-0.401359	-1.684289	0.006409	0.001934	-0.003570	-0.150226	-0.094517	0.984123	-0.707688	0.705376	-0.040283	-0.690369	-0.702504	-0.172855
42338	9.684603	-0.375576	-1.708333	0.005781	0.001681	-0.001283	-0.150243	-0.094505	0.984122	-0.707678	0.705385	-0.040301	-0.690376	-0.702497	-0.172858
42339	9.634305	-0.394823	-1.716748	0.008294	0.000986	-0.003017	-0.150251	-0.094509	0.984120	-0.707687	0.705375	-0.040306	-0.690365	-0.702505	-0.172867
42340	9.643039	-0.400949	-1.683681	0.007101	0.003595	-0.003620	-0.150238	-0.094500	0.984123	-0.707690	0.705372	-0.040304	-0.690365	-0.702509	-0.172851
42341	9.670668	-0.357633	-1.664252	0.007666	0.001585	-0.004436	-0.150233	-0.094511	0.984123	-0.707699	0.705364	-0.040295	-0.690356	-0.702517	-0.172854
42342	9.610093	-0.402758	-1.693171	0.005717	-0.000581	0.000188	-0.150276	-0.094504	0.984117	-0.707687	0.705374	-0.040328	-0.690360	-0.702507	-0.172880
42343	9.700514	-0.389926	-1.696270	0.005844	0.003942	-0.002753	-0.150267	-0.094487	0.984120	-0.707681	0.705380	-0.040332	-0.690368	-0.702503	-0.172861
42344	9.627483	-0.385398	-1.693998	0.008294	0.000985	-0.003016	-0.150276	-0.094491	0.984118	-0.707691	0.705370	-0.040338	-0.690356	-0.702513	-0.172871
42345	9.665999	-0.423894	-1.693292	0.007665	0.001584	-0.004436	-0.150271	-0.094502	0.984118	-0.707699	0.705362	-0.040330	-0.690348	-0.702520	-0.172874
42346	9.670846	-0.356852	-1.663385	0.006409	0.001932	-0.003569	-0.150270	-0.094504	0.984118	-0.707697	0.705364	-0.040327	-0.690350	-0.702517	-0.172875
42347	9.633056	-0.425712	-1.702780	0.007665	0.000733	-0.000729	-0.150297	-0.094495	0.984115	-0.707701	0.705359	-0.040353	-0.690341	-0.702523	-0.172887
42348	9.684976	-0.374086	-1.706546	0.005717	0.000270	-0.003518	-0.150308	-0.094508	0.984112	-0.707694	0.705366	-0.040350	-0.690346	-0.702514	-0.172905
42349	9.650414	-0.408282	-1.703799	0.007728	0.002993	-0.002200	-0.150310	-0.094493	0.984113	-0.707698	0.705361	-0.040364	-0.690341	-0.702522	-0.172895
42350	9.667775	-0.390871	-1.704787	0.005781	0.002530	-0.004988	-0.150295	-0.094501	0.984114	-0.707694	0.705366	-0.040346	-0.690348	-0.702516	-0.172890
42351	9.629335	-0.351923	-1.705146	0.007036	0.001332	-0.002148	-0.150309	-0.094496	0.984113	-0.707692	0.705367	-0.040359	-0.690347	-0.702515	-0.172897
42352	9.664684	-0.454869	-1.679683	0.007602	-0.000678	-0.002963	-0.150330	-0.094512	0.984108	-0.707698	0.705361	-0.040364	-0.690337	-0.702519	-0.172923
42353	9.646660	-0.334469	-1.706332	0.008293	0.000983	-0.003015	-0.150341	-0.094518	0.984106	-0.707708	0.705350	-0.040371	-0.690323	-0.702529	-0.172934
42354	9.649033	-0.439589	-1.690482	0.004586	0.004288	-0.001887	-0.150336	-0.094491	0.984109	-0.707691	0.705367	-0.040382	-0.690342	-0.702516	-0.172913
42355	9.675016	-0.398780	-1.725556	0.006408	0.001930	-0.003568	-0.150336	-0.094492	0.984109	-0.707688	0.705370	-0.040381	-0.690345	-0.702513	-0.172914
42356	9.645227	-0.366246	-1.693186	0.003832	0.000366	-0.000364	-0.150368	-0.094483	0.984105	-0.707664	0.705393	-0.040405	-0.690363	-0.702491	-0.172931
42357	9.649181	-0.439188	-1.689742	0.009046	0.004904	-0.004537	-0.150341	-0.094471	0.984110	-0.707683	0.705375	-0.040398	-0.690350	-0.702511	-0.172903
42358	9.669691	-0.357472	-1.715553	0.007036	0.001330	-0.002147	-0.150354	-0.094468	0.984108	-0.707683	0.705374	-0.040410	-0.690347	-0.702513	-0.172909
42359	9.650853	-0.406740	-1.701678	0.007036	0.001330	-0.002147	-0.150368	-0.094465	0.984107	-0.707684	0.705372	-0.040423	-0.690342	-0.702515	-0.172917
42360	9.661145	-0.380597	-1.681072	0.005780	0.002527	-0.004987	-0.150353	-0.094473	0.984108	-0.707680	0.705377	-0.040405	-0.690350	-0.702509	-0.172912
42361	9.642343	-0.429599	-1.667066	0.004523	0.002876	-0.004121	-0.150342	-0.094472	0.984110	-0.707667	0.705391	-0.040394	-0.690366	-0.702495	-0.172905
42362	9.676972	-0.394916	-1.669490	0.006974	-0.000081	-0.004381	-0.150349	-0.094494	0.984107	-0.707670	0.705388	-0.040384	-0.690361	-0.702494	-0.172925
42363	9.628275	-0.381862	-1.690292	0.007098	0.003590	-0.003619	-0.150335	-0.094486	0.984110	-0.707674	0.705385	-0.040381	-0.690360	-0.702499	-0.172909
42364	9.659786	-0.411629	-1.667691	0.005151	0.002277	-0.002701	-0.150338	-0.094479	0.984110	-0.707662	0.705396	-0.040385	-0.690372	-0.702488	-0.172907
42365	9.645698	-0.364201	-1.690946	0.006470	0.004188	-0.005038	-0.150312	-0.094476	0.984114	-0.707663	0.705396	-0.040369	-0.690376	-0.702489	-0.172887
42366	9.640994	-0.430932	-1.720332	0.008291	0.000133	0.000694	-0.150354	-0.094460	0.984109	-0.707667	0.705389	-0.040411	-0.690363	-0.702498	-0.172904
42367	9.661475	-0.379047	-1.679529	0.006974	-0.000082	-0.004380	-0.150360	-0.094482	0.984106	-0.707671	0.705386	-0.040401	-0.690358	-0.702498	-0.172924
42368	9.644216	-0.395994	-1.678104	0.005151	0.002276	-0.002701	-0.150362	-0.094476	0.984106	-0.707659	0.705398	-0.040404	-0.690370	-0.702487	-0.172922
42369	9.611247	-0.397999	-1.687734	0.006407	0.001927	-0.003566	-0.150361	-0.094478	0.984106	-0.707656	0.705401	-0.040401	-0.690372	-0.702484	-0.172923
42370	9.675715	-0.395867	-1.722306	0.005151	0.002276	-0.002700	-0.150364	-0.094471	0.984107	-0.707644	0.705413	-0.040405	-0.690384	-0.702473	-0.172921
42371	9.645920	-0.363183	-1.689896	0.007664	0.001578	-0.004431	-0.150359	-0.094482	0.984106	-0.707651	0.705407	-0.040396	-0.690379	-0.702477	-0.172924
42372	9.628679	-0.380168	-1.688373	0.003894	0.002624	-0.001835	-0.150366	-0.094466	0.984107	-0.707629	0.705428	-0.040406	-0.690400	-0.702458	-0.172919
42373	9.684550	-0.401420	-1.688684	0.006469	0.004186	-0.005038	-0.150340	-0.094464	0.984111	-0.707630	0.705428	-0.040389	-0.690404	-0.702459	-0.172900
42374	9.628794	-0.379840	-1.687790	0.008291	0.000133	0.000696	-0.150381	-0.094448	0.984106	-0.707635	0.705421	-0.040432	-0.690390	-0.702468	-0.172917
42375	9.651589	-0.403504	-1.698271	0.006973	-0.000084	-0.004379	-0.150388	-0.094470	0.984103	-0.707638	0.705418	-0.040421	-0.690385	-0.702468	-0.172937
42376	9.668915	-0.385970	-1.699431	0.005779	0.002524	-0.004986	-0.150372	-0.094478	0.984105	-0.707634	0.705423	-0.040404	-0.690393	-0.702461	-0.172932
42377	9.634399	-0.420074	-1.696571	0.005150	0.002275	-0.002700	-0.150376	-0.094471	0.984105	-0.707622	0.705435	-0.040408	-0.690404	-0.702451	-0.172930
42378	9.661954	-0.376710	-1.677295	0.007663	0.001576	-0.004430	-0.150371	-0.094482	0.984105	-0.707630	0.705427	-0.040399	-0.690397	-0.702457	-0.172934
42379	9.658842	-0.411158	-1.719123	0.005150	0.002275	-0.002700	-0.150372	-0.094474	0.984105	-0.707617	0.705440	-0.040403	-0.690410	-0.702445	-0.172930
42380	9.636111	-0.387216	-1.708326	0.008353	0.003237	-0.004482	-0.150356	-0.094473	0.984108	-0.707630	0.705428	-0.040394	-0.690401	-0.702458	-0.172917
42381	9.658966	-0.410696	-1.718535	0.005150	0.002274	-0.002700	-0.150359	-0.094467	0.984108	-0.707618	0.705440	-0.040398	-0.690413	-0.702446	-0.172916
42382	9.634674	-0.418864	-1.695305	0.005779	0.002522	-0.004985	-0.150344	-0.094475	0.984109	-0.707613	0.705445	-0.040380	-0.690420	-0.702440	-0.172911
42383	9.630737	-0.345607	-1.698505	0.008229	-0.001280	-0.001536	-0.150380	-0.094486	0.984103	-0.707622	0.705435	-0.040400	-0.690403	-0.702449	-0.172944
42384	9.659058	-0.410057	-1.718171	0.003832	0.001210	-0.004068	-0.150380	-0.094497	0.984102	-0.707603	0.705455	-0.040388	-0.690423	-0.702427	-0.172952
42385	9.629234	-0.377282	-1.685851	0.007663	0.001575	-0.004429	-0.150374	-0.094507	0.984102	-0.707611	0.705448	-0.040378	-0.690416	-0.702433	-0.172955
42386	9.669358	-0.383530	-1.697459	0.006406	0.001924	-0.003564	-0.150373	-0.094509	0.984102	-0.707609	0.705450	-0.040375	-0.690419	-0.702430	-0.172956
42387	9.645056	-0.391736	-1.674270	0.006406	0.001924	-0.003564	-0.150372	-0.094511	0.984102	-0.707607	0.705452	-0.040373	-0.690421	-0.702428	-0.172957
42388	9.636416	-0.385341	-1.707026	0.007601	-0.000684	-0.002956	-0.150393	-0.094527	0.984097	-0.707612	0.705447	-0.040378	-0.690411	-0.702431	-0.172983
42389	9.659264	-0.408787	-1.717317	0.006468	0.004181	-0.005037	-0.150364	-0.094523	0.984102	-0.707610	0.705449	-0.040360	-0.690419	-0.702429	-0.172960
42390	9.662483	-0.373738	-1.674914	0.008352	0.003235	-0.004481	-0.150348	-0.094522	0.984104	-0.707623	0.705437	-0.040351	-0.690409	-0.702442	-0.172947
42391	9.627976	-0.407883	-1.672064	0.009547	0.000627	-0.003872	-0.150221	-0.094615	0.984115	-0.707808	0.705257	-0.040239	-0.690247	-0.702609	-0.172914
42392	9.646828	-0.358447	-1.685723	0.004520	0.002026	-0.000413	-0.150241	-0.094594	0.984114	-0.707789	0.705276	-0.040264	-0.690263	-0.702594	-0.172914
42393	9.635113	-0.416531	-1.693384	0.007034	0.001326	-0.002143	-0.150255	-0.094591	0.984112	-0.707788	0.705276	-0.040276	-0.690260	-0.702594	-0.172921
42394	9.669690	-0.381935	-1.695931	0.006973	-0.000088	-0.004375	-0.150262	-0.094613	0.984109	-0.707791	0.705273	-0.040266	-0.690256	-0.702594	-0.172941
42395	9.661097	-0.405118	-1.661679	0.007034	0.001326	-0.002142	-0.150276	-0.094608	0.984107	-0.707789	0.705275	-0.040280	-0.690255	-0.702593	-0.172948
42396	9.676832	-0.390421	-1.717268	0.007723	0.002986	-0.002195	-0.150277	-0.094592	0.984108	-0.707794	0.705269	-0.040292	-0.690250	-0.702601	-0.172938
42397	9.652529	-0.398619	-1.694077	0.005088	0.000857	-0.004931	-0.150275	-0.094613	0.984107	-0.707787	0.705277	-0.040275	-0.690257	-0.702590	-0.172951
42398	9.652582	-0.398279	-1.693853	0.008351	0.003233	-0.004480	-0.150258	-0.094612	0.984109	-0.707800	0.705264	-0.040266	-0.690248	-0.702603	-0.172938
42399	9.629819	-0.374317	-1.683166	0.009547	0.000625	-0.003870	-0.150262	-0.094626	0.984107	-0.707821	0.705243	-0.040264	-0.690225	-0.702622	-0.172950
42400	9.666824	-0.415380	-1.736775	0.005149	0.002271	-0.002698	-0.150265	-0.094619	0.984108	-0.707809	0.705255	-0.040268	-0.690237	-0.702611	-0.172947
42401	9.652709	-0.397705	-1.693264	0.007033	0.001325	-0.002141	-0.150278	-0.094617	0.984106	-0.707811	0.705252	-0.040280	-0.690232	-0.702614	-0.172955
42402	9.652776	-0.397550	-1.692918	0.007784	0.005242	-0.003668	-0.150253	-0.094596	0.984112	-0.707819	0.705245	-0.040279	-0.690229	-0.702625	-0.172922
42403	9.661467	-0.373958	-1.726722	0.006405	0.001921	-0.003562	-0.150253	-0.094600	0.984111	-0.707817	0.705246	-0.040276	-0.690231	-0.702623	-0.172925
42404	9.635619	-0.414364	-1.691034	0.007033	0.001325	-0.002141	-0.150266	-0.094596	0.984110	-0.707818	0.705245	-0.040288	-0.690228	-0.702624	-0.172931
42405	9.628559	-0.375842	-1.736122	0.006466	0.004177	-0.005036	-0.150239	-0.094592	0.984114	-0.707817	0.705247	-0.040271	-0.690234	-0.702623	-0.172909
42406	9.627088	-0.407750	-1.723302	0.007033	0.001324	-0.002141	-0.150252	-0.094588	0.984112	-0.707817	0.705246	-0.040283	-0.690231	-0.702624	-0.172916
42407	9.668795	-0.411389	-1.680362	0.005777	0.002515	-0.004983	-0.150237	-0.094597	0.984114	-0.707815	0.705249	-0.040265	-0.690237	-0.702620	-0.172912
42408	9.621600	-0.366331	-1.713941	0.006911	-0.002348	-0.002898	-0.150270	-0.094625	0.984106	-0.707816	0.705249	-0.040269	-0.690229	-0.702617	-0.172954
42409	9.675905	-0.419666	-1.701985	0.007661	0.001569	-0.004425	-0.150265	-0.094635	0.984106	-0.707822	0.705242	-0.040260	-0.690223	-0.702622	-0.172958
42410	9.654656	-0.363526	-1.703898	0.007661	0.001569	-0.004425	-0.150260	-0.094646	0.984106	-0.707830	0.705235	-0.040251	-0.690216	-0.702628	-0.172962
42411	9.660266	-0.404104	-1.712784	0.005777	0.002514	-0.004982	-0.150246	-0.094654	0.984107	-0.707830	0.705236	-0.040234	-0.690220	-0.702625	-0.172958
42412	9.653261	-0.394953	-1.690763	0.010295	0.004539	-0.005395	-0.150214	-0.094651	0.984112	-0.707857	0.705209	-0.040220	-0.690198	-0.702653	-0.172931
42413	9.627404	-0.405981	-1.721954	0.003890	0.001780	0.001872	-0.150252	-0.094615	0.984110	-0.707828	0.705236	-0.040266	-0.690220	-0.702631	-0.172934
42414	9.686342	-0.392521	-1.680479	0.009486	-0.000794	-0.006098	-0.150251	-0.094654	0.984106	-0.707851	0.705214	-0.040244	-0.690196	-0.702647	-0.172961
42415	9.637621	-0.379698	-1.701483	0.004519	0.002024	-0.000412	-0.150272	-0.094632	0.984105	-0.707830	0.705234	-0.040269	-0.690214	-0.702630	-0.172961
42416	9.651893	-0.426648	-1.677424	0.007093	0.003579	-0.003614	-0.150259	-0.094623	0.984108	-0.707833	0.705231	-0.040267	-0.690214	-0.702634	-0.172945
42417	9.621982	-0.364453	-1.712198	0.005715	0.000257	-0.003507	-0.150269	-0.094637	0.984105	-0.707825	0.705239	-0.040263	-0.690219	-0.702625	-0.172962
42418	9.660592	-0.402918	-1.711226	0.007721	0.002983	-0.002192	-0.150270	-0.094622	0.984107	-0.707831	0.705233	-0.040276	-0.690214	-0.702633	-0.172951
42419	9.637827	-0.379055	-1.700456	0.007093	0.003578	-0.003613	-0.150258	-0.094613	0.984109	-0.707834	0.705230	-0.040273	-0.690213	-0.702637	-0.172937
42420	9.670856	-0.376622	-1.690461	0.004398	-0.001648	-0.001168	-0.150298	-0.094624	0.984102	-0.707814	0.705249	-0.040291	-0.690224	-0.702617	-0.172974
42421	9.643487	-0.419645	-1.709115	0.007842	0.007493	-0.005142	-0.150248	-0.094597	0.984112	-0.707824	0.705240	-0.040275	-0.690225	-0.702630	-0.172918
42422	9.630909	-0.369698	-1.677943	0.007032	0.001322	-0.002138	-0.150261	-0.094593	0.984111	-0.707824	0.705239	-0.040288	-0.690222	-0.702631	-0.172925
42423	9.653791	-0.393172	-1.688150	0.005776	0.002511	-0.004981	-0.150246	-0.094600	0.984112	-0.707818	0.705246	-0.040270	-0.690232	-0.702623	-0.172920
42424	9.646729	-0.384162	-1.666368	0.005086	0.000013	-0.001221	-0.150274	-0.094599	0.984108	-0.707803	0.705260	-0.040288	-0.690241	-0.702609	-0.172940
42425	9.636596	-0.410091	-1.686507	0.008977	0.002631	-0.003054	-0.150271	-0.094593	0.984109	-0.707819	0.705244	-0.040294	-0.690225	-0.702626	-0.172932
42426	9.669642	-0.407697	-1.676386	0.005775	0.001673	-0.001275	-0.150288	-0.094580	0.984108	-0.707809	0.705253	-0.040313	-0.690232	-0.702619	-0.172935
42427	9.653925	-0.392658	-1.687499	0.005715	0.000256	-0.003505	-0.150297	-0.094593	0.984105	-0.707803	0.705259	-0.040309	-0.690236	-0.702611	-0.172952
42428	9.653943	-0.392598	-1.687411	0.006403	0.001078	0.000147	-0.150328	-0.094575	0.984102	-0.707795	0.705265	-0.040343	-0.690237	-0.702607	-0.172961
42429	9.646927	-0.383669	-1.665334	0.007841	0.007490	-0.005142	-0.150280	-0.094550	0.984112	-0.707806	0.705255	-0.040328	-0.690237	-0.702621	-0.172908
42430	9.652562	-0.394862	-1.741085	0.006972	-0.000096	-0.004368	-0.150287	-0.094571	0.984109	-0.707809	0.705252	-0.040318	-0.690232	-0.702620	-0.172929
42431	9.647053	-0.383097	-1.664740	0.005835	0.003927	-0.002750	-0.150278	-0.094554	0.984112	-0.707805	0.705256	-0.040323	-0.690238	-0.702619	-0.172910
42432	9.645573	-0.385651	-1.718922	0.005147	0.002266	-0.002696	-0.150280	-0.094548	0.984112	-0.707793	0.705268	-0.040326	-0.690250	-0.702608	-0.172908
42433	9.661395	-0.400383	-1.707283	0.006523	0.005586	-0.002803	-0.150259	-0.094520	0.984118	-0.707795	0.705265	-0.040331	-0.690252	-0.702614	-0.172874
42434	9.645736	-0.385216	-1.718106	0.005776	0.002508	-0.004980	-0.150244	-0.094528	0.984119	-0.707791	0.705270	-0.040314	-0.690260	-0.702608	-0.172869
42435	9.677283	-0.414744	-1.695349	0.008976	0.002629	-0.003052	-0.150242	-0.094521	0.984120	-0.707806	0.705255	-0.040321	-0.690245	-0.702624	-0.172862
42436	9.664649	-0.364812	-1.664350	0.007091	0.003574	-0.003611	-0.150229	-0.094512	0.984123	-0.707809	0.705252	-0.040319	-0.690245	-0.702628	-0.172846
42437	9.644391	-0.416725	-1.704723	0.006343	-0.000340	-0.002082	-0.150254	-0.094521	0.984119	-0.707806	0.705255	-0.040330	-0.690243	-0.702624	-0.172870
42438	9.670315	-0.405338	-1.673073	0.005775	0.002507	-0.004979	-0.150239	-0.094529	0.984120	-0.707801	0.705260	-0.040312	-0.690250	-0.702618	-0.172865
42439	9.628750	-0.401325	-1.715504	0.005834	0.003925	-0.002749	-0.150230	-0.094510	0.984123	-0.707792	0.705269	-0.040317	-0.690262	-0.702611	-0.172846
42440	9.670444	-0.404797	-1.672460	0.008917	0.001210	-0.005282	-0.150222	-0.094529	0.984123	-0.707810	0.705252	-0.040302	-0.690245	-0.702626	-0.172853
42441	9.647633	-0.380789	-1.661902	0.006403	0.001913	-0.003557	-0.150222	-0.094531	0.984122	-0.707806	0.705257	-0.040299	-0.690250	-0.702621	-0.172855
42442	9.636012	-0.409362	-1.736462	0.006403	0.001913	-0.003557	-0.150221	-0.094533	0.984122	-0.707803	0.705259	-0.040296	-0.690252	-0.702619	-0.172856
42443	9.654842	-0.389249	-1.683039	0.006461	0.003331	-0.001327	-0.150228	-0.094510	0.984124	-0.707798	0.705264	-0.040317	-0.690256	-0.702617	-0.172844
42444	9.646279	-0.412370	-1.648542	0.007660	0.001561	-0.004419	-0.150224	-0.094520	0.984123	-0.707806	0.705256	-0.040308	-0.690249	-0.702623	-0.172848
42445	9.686434	-0.389183	-1.727075	0.006463	0.004166	-0.005032	-0.150198	-0.094517	0.984128	-0.707806	0.705257	-0.040292	-0.690255	-0.702623	-0.172828
42446	9.639303	-0.373647	-1.693274	0.008406	0.004639	-0.002242	-0.150188	-0.094491	0.984132	-0.707815	0.705247	-0.040306	-0.690247	-0.702637	-0.172801
42447	9.676469	-0.444319	-1.679417	0.004517	0.002023	-0.000410	-0.150209	-0.094469	0.984130	-0.707795	0.705266	-0.040332	-0.690264	-0.702620	-0.172802
42448	9.672391	-0.371074	-1.682889	0.006344	0.000493	-0.005786	-0.150202	-0.094497	0.984129	-0.707796	0.705267	-0.040307	-0.690264	-0.702616	-0.172817
42449	9.653681	-0.420027	-1.668782	0.007659	0.001559	-0.004418	-0.150199	-0.094508	0.984128	-0.707804	0.705259	-0.040298	-0.690257	-0.702623	-0.172822
42450	9.640976	-0.340682	-1.705092	0.006402	0.001911	-0.003556	-0.150198	-0.094510	0.984128	-0.707802	0.705261	-0.040295	-0.690259	-0.702620	-0.172823
42451	9.627920	-0.430641	-1.699782	0.006462	0.004164	-0.005032	-0.150169	-0.094508	0.984133	-0.707806	0.705258	-0.040277	-0.690261	-0.702623	-0.172801
42452	9.665465	-0.361052	-1.660426	0.006343	-0.000342	-0.002079	-0.150194	-0.094515	0.984128	-0.707801	0.705262	-0.040289	-0.690260	-0.702618	-0.172824
42453	9.672629	-0.369651	-1.681835	0.006462	0.004163	-0.005032	-0.150170	-0.094513	0.984132	-0.707801	0.705263	-0.040273	-0.690266	-0.702618	-0.172805
42454	9.652457	-0.421404	-1.721993	0.005774	0.002503	-0.004977	-0.150154	-0.094521	0.984134	-0.707797	0.705268	-0.040255	-0.690273	-0.702612	-0.172801
42455	9.639749	-0.371288	-1.691253	0.006972	-0.000102	-0.004362	-0.150162	-0.094543	0.984131	-0.707803	0.705262	-0.040246	-0.690265	-0.702614	-0.172822
42456	9.676924	-0.441754	-1.677472	0.004575	0.004275	-0.001886	-0.150156	-0.094517	0.984134	-0.707786	0.705279	-0.040256	-0.690284	-0.702601	-0.172800
42457	9.639858	-0.370915	-1.690712	0.006402	0.001910	-0.003555	-0.150158	-0.094519	0.984134	-0.707782	0.705283	-0.040255	-0.690288	-0.702596	-0.172802
42458	9.662799	-0.394316	-1.700736	0.006461	0.004162	-0.005031	-0.150131	-0.094516	0.984138	-0.707782	0.705284	-0.040238	-0.690293	-0.702596	-0.172781
42459	9.668487	-0.434945	-1.709471	0.005715	0.000250	-0.003500	-0.150142	-0.094529	0.984135	-0.707775	0.705292	-0.040235	-0.690299	-0.702587	-0.172799
42460	9.650124	-0.343987	-1.669790	0.006402	0.001910	-0.003554	-0.150141	-0.094531	0.984135	-0.707773	0.705294	-0.040232	-0.690301	-0.702584	-0.172800
42461	9.670035	-0.402451	-1.721881	0.006342	-0.000342	-0.002077	-0.150165	-0.094539	0.984131	-0.707768	0.705298	-0.040243	-0.690301	-0.702579	-0.172823
42462	9.640080	-0.369515	-1.689753	0.004518	0.003686	-0.007821	-0.150122	-0.094558	0.984135	-0.707759	0.705309	-0.040195	-0.690319	-0.702565	-0.172807
42463	9.668685	-0.433736	-1.708661	0.005832	0.003922	-0.002747	-0.150114	-0.094541	0.984138	-0.707752	0.705316	-0.040200	-0.690328	-0.702560	-0.172790
42464	9.630098	-0.394881	-1.709426	0.009485	-0.000808	-0.006082	-0.150114	-0.094580	0.984134	-0.707775	0.705294	-0.040178	-0.690304	-0.702577	-0.172816
42465	9.645872	-0.409511	-1.698075	0.005772	0.001670	-0.001270	-0.150131	-0.094568	0.984133	-0.707767	0.705302	-0.040197	-0.690309	-0.702571	-0.172820
42466	9.663168	-0.392195	-1.699130	0.009660	0.004283	-0.003102	-0.150117	-0.094550	0.984137	-0.707786	0.705282	-0.040204	-0.690292	-0.702594	-0.172796
42467	9.689091	-0.380772	-1.667283	0.006401	0.001908	-0.003553	-0.150115	-0.094552	0.984137	-0.707785	0.705283	-0.040201	-0.690294	-0.702592	-0.172797
42468	9.630322	-0.394018	-1.708363	0.005832	0.004751	-0.006453	-0.150074	-0.094555	0.984143	-0.707784	0.705286	-0.040169	-0.690304	-0.702589	-0.172770
42469	9.654736	-0.414702	-1.664004	0.007598	-0.001527	0.000769	-0.150128	-0.094551	0.984135	-0.707784	0.705283	-0.040211	-0.690292	-0.702592	-0.172804
42470	9.656237	-0.382570	-1.676554	0.008345	0.003214	-0.004469	-0.150111	-0.094550	0.984138	-0.707797	0.705271	-0.040203	-0.690283	-0.702604	-0.172791
42471	9.646180	-0.408369	-1.696600	0.006971	-0.000105	-0.004359	-0.150120	-0.094572	0.984134	-0.707799	0.705269	-0.040194	-0.690278	-0.702604	-0.172813
42472	9.687816	-0.382558	-1.720792	0.007715	0.002975	-0.002185	-0.150121	-0.094557	0.984136	-0.707804	0.705263	-0.040207	-0.690273	-0.702611	-0.172803
42473	9.639146	-0.399118	-1.674524	0.004516	0.002852	-0.004114	-0.150109	-0.094557	0.984137	-0.707790	0.705279	-0.040194	-0.690290	-0.702596	-0.172795
42474	9.640669	-0.366831	-1.686973	0.007028	0.001316	-0.002130	-0.150122	-0.094553	0.984136	-0.707790	0.705278	-0.040207	-0.690287	-0.702597	-0.172802
42475	9.630606	-0.392877	-1.707025	0.005771	0.001669	-0.001269	-0.150139	-0.094541	0.984134	-0.707781	0.705286	-0.040225	-0.690293	-0.702591	-0.172805
42476	9.646385	-0.407556	-1.695630	0.006971	-0.000106	-0.004358	-0.150146	-0.094563	0.984131	-0.707784	0.705284	-0.040216	-0.690289	-0.702590	-0.172825
42477	9.658002	-0.348968	-1.687899	0.008973	0.003451	-0.006751	-0.150111	-0.094576	0.984135	-0.707803	0.705266	-0.040186	-0.690277	-0.702606	-0.172809
42478	9.636397	-0.432863	-1.715456	0.006971	-0.000107	-0.004357	-0.150118	-0.094598	0.984132	-0.707806	0.705264	-0.040176	-0.690272	-0.702605	-0.172830
42479	9.663762	-0.389277	-1.696417	0.005830	0.003919	-0.002747	-0.150110	-0.094580	0.984135	-0.707798	0.705271	-0.040181	-0.690281	-0.702601	-0.172811
42480	9.646605	-0.406277	-1.694685	0.004516	0.002850	-0.004114	-0.150098	-0.094579	0.984137	-0.707784	0.705286	-0.040169	-0.690299	-0.702586	-0.172804
42481	9.646652	-0.406043	-1.694475	0.008285	0.000961	-0.002989	-0.150107	-0.094584	0.984135	-0.707796	0.705273	-0.040175	-0.690284	-0.702598	-0.172813
42482	9.663903	-0.388635	-1.695761	0.004457	0.000599	-0.002636	-0.150122	-0.094589	0.984132	-0.707780	0.705290	-0.040178	-0.690298	-0.702580	-0.172827
42483	9.629498	-0.422890	-1.692776	0.008343	0.003211	-0.004467	-0.150104	-0.094588	0.984135	-0.707791	0.705279	-0.040169	-0.690290	-0.702592	-0.172813
42484	9.648248	-0.373278	-1.706596	0.007657	0.001552	-0.004411	-0.150100	-0.094598	0.984135	-0.707799	0.705271	-0.040160	-0.690283	-0.702598	-0.172817
42485	9.669733	-0.428882	-1.703950	0.002629	0.002965	-0.000971	-0.150109	-0.094575	0.984136	-0.707766	0.705303	-0.040176	-0.690314	-0.702569	-0.172809
42486	9.646886	-0.405267	-1.693329	0.009655	0.003452	0.000607	-0.150127	-0.094537	0.984137	-0.707781	0.705287	-0.040219	-0.690296	-0.702591	-0.172794
42487	9.648411	-0.373114	-1.705711	0.005772	0.002495	-0.004974	-0.150113	-0.094545	0.984138	-0.707779	0.705289	-0.040203	-0.690301	-0.702587	-0.172790
42488	9.645548	-0.436922	-1.680004	0.008343	0.003210	-0.004466	-0.150097	-0.094544	0.984140	-0.707791	0.705277	-0.040195	-0.690291	-0.702599	-0.172777
42489	9.648536	-0.372518	-1.705135	0.006400	0.001904	-0.003550	-0.150096	-0.094547	0.984140	-0.707789	0.705279	-0.040192	-0.690294	-0.702597	-0.172779
42490	9.664363	-0.387036	-1.693505	0.006458	0.004153	-0.005029	-0.150069	-0.094543	0.984145	-0.707790	0.705280	-0.040175	-0.690299	-0.702597	-0.172757
42491	9.614219	-0.406450	-1.701758	0.008284	0.000960	-0.002987	-0.150080	-0.094548	0.984143	-0.707801	0.705268	-0.040182	-0.690285	-0.702607	-0.172768
42492	9.680217	-0.401369	-1.681760	0.007657	0.001550	-0.004410	-0.150076	-0.094559	0.984142	-0.707809	0.705261	-0.040173	-0.690278	-0.702613	-0.172772
42493	9.657368	-0.377284	-1.671227	0.003887	0.003437	-0.005536	-0.150052	-0.094565	0.984145	-0.707793	0.705278	-0.040147	-0.690300	-0.702595	-0.172761
42494	9.671701	-0.394815	-1.714273	0.008226	-0.001290	-0.001508	-0.150087	-0.094575	0.984139	-0.707800	0.705270	-0.040168	-0.690284	-0.702603	-0.172792
42495	9.641646	-0.362182	-1.682391	0.007027	0.001313	-0.002127	-0.150102	-0.094571	0.984137	-0.707800	0.705269	-0.040182	-0.690281	-0.702604	-0.172799
42496	9.663138	-0.417788	-1.679755	0.006399	0.001903	-0.003550	-0.150101	-0.094573	0.984137	-0.707798	0.705271	-0.040179	-0.690283	-0.702601	-0.172800
42497	9.666098	-0.353424	-1.704989	0.006399	0.001903	-0.003549	-0.150102	-0.094575	0.984137	-0.707795	0.705274	-0.040177	-0.690287	-0.702598	-0.172802
42498	9.646014	-0.434569	-1.677934	0.006399	0.001902	-0.003549	-0.150101	-0.094577	0.984137	-0.707793	0.705277	-0.040175	-0.690289	-0.702595	-0.172803
42499	9.638929	-0.396433	-1.723222	0.008398	0.004631	-0.002238	-0.150090	-0.094549	0.984141	-0.707800	0.705269	-0.040189	-0.690284	-0.702607	-0.172776
42500	9.649041	-0.370071	-1.702808	0.008228	-0.000465	-0.005212	-0.150094	-0.094579	0.984137	-0.707813	0.705256	-0.040173	-0.690270	-0.702615	-0.172799
42501	9.654778	-0.410805	-1.711507	0.007712	0.002971	-0.002182	-0.150095	-0.094563	0.984139	-0.707816	0.705253	-0.040186	-0.690267	-0.702621	-0.172788
42502	9.664899	-0.384425	-1.691039	0.005771	0.002491	-0.004972	-0.150080	-0.094571	0.984140	-0.707812	0.705258	-0.040168	-0.690274	-0.702615	-0.172783
42503	9.630487	-0.418694	-1.688184	0.005656	-0.002006	-0.002014	-0.150116	-0.094591	0.984133	-0.707804	0.705266	-0.040178	-0.690275	-0.702604	-0.172823
42504	9.674996	-0.357837	-1.670735	0.008341	0.003206	-0.004464	-0.150099	-0.094590	0.984136	-0.707816	0.705253	-0.040170	-0.690265	-0.702617	-0.172810
42505	9.649257	-0.368885	-1.701844	0.005199	0.004504	-0.004169	-0.150078	-0.094577	0.984140	-0.707805	0.705265	-0.040161	-0.690281	-0.702607	-0.172786
42506	9.646405	-0.432765	-1.676153	0.007598	-0.000702	-0.002928	-0.150099	-0.094593	0.984135	-0.707811	0.705259	-0.040167	-0.690271	-0.702611	-0.172812
42507	9.673725	-0.360109	-1.724375	0.007769	0.005219	-0.003660	-0.150074	-0.094572	0.984141	-0.707816	0.705254	-0.040165	-0.690271	-0.702619	-0.172780
42508	9.637938	-0.426409	-1.708400	0.004514	0.002844	-0.004112	-0.150063	-0.094571	0.984143	-0.707802	0.705269	-0.040153	-0.690288	-0.702604	-0.172772
42509	9.665282	-0.382689	-1.689243	0.009026	0.004864	-0.004519	-0.150035	-0.094559	0.984148	-0.707820	0.705251	-0.040146	-0.690276	-0.702623	-0.172743
42510	9.672489	-0.391511	-1.710582	0.005712	-0.000583	0.000214	-0.150078	-0.094553	0.984143	-0.707808	0.705262	-0.040179	-0.690279	-0.702614	-0.172769
42511	9.655286	-0.408724	-1.709140	0.009540	0.000602	-0.003842	-0.150084	-0.094566	0.984140	-0.707828	0.705241	-0.040179	-0.690257	-0.702632	-0.172781
42512	9.616659	-0.369897	-1.709951	0.004571	0.005091	-0.005592	-0.150046	-0.094560	0.984147	-0.707816	0.705255	-0.040153	-0.690277	-0.702620	-0.172752
42513	9.638230	-0.425197	-1.707052	0.007028	0.002133	-0.005829	-0.150028	-0.094576	0.984148	-0.707822	0.705250	-0.040129	-0.690275	-0.702622	-0.172750
42514	9.681301	-0.396218	-1.676737	0.006398	0.001899	-0.003547	-0.150027	-0.094578	0.984148	-0.707820	0.705252	-0.040127	-0.690278	-0.702619	-0.172751
42515	9.634039	-0.351540	-1.710625	0.005086	0.000829	-0.004914	-0.150024	-0.094598	0.984146	-0.707813	0.705261	-0.040108	-0.690286	-0.702608	-0.172764
42516	9.671340	-0.421734	-1.696597	0.007655	0.001544	-0.004405	-0.150019	-0.094609	0.984146	-0.707821	0.705253	-0.040099	-0.690278	-0.702614	-0.172768
42517	9.651340	-0.362611	-1.644351	0.006455	0.004146	-0.005027	-0.149994	-0.094606	0.984150	-0.707820	0.705255	-0.040083	-0.690285	-0.702613	-0.172748
42518	9.645665	-0.432560	-1.727504	0.007026	0.001310	-0.002123	-0.150007	-0.094602	0.984149	-0.707820	0.705254	-0.040095	-0.690282	-0.702615	-0.172754
42519	9.658617	-0.371101	-1.665385	0.008340	0.003202	-0.004461	-0.149993	-0.094600	0.984151	-0.707829	0.705245	-0.040088	-0.690276	-0.702623	-0.172743
42520	9.632874	-0.382268	-1.696600	0.005141	0.002253	-0.002688	-0.149996	-0.094594	0.984151	-0.707817	0.705257	-0.040092	-0.690287	-0.702612	-0.172741
42521	9.655867	-0.405810	-1.706548	0.008967	0.002614	-0.003037	-0.149992	-0.094588	0.984152	-0.707833	0.705241	-0.040098	-0.690271	-0.702630	-0.172733
42522	9.683152	-0.362173	-1.687573	0.006398	0.001898	-0.003546	-0.149991	-0.094590	0.984152	-0.707831	0.705243	-0.040095	-0.690274	-0.702627	-0.172734
42523	9.647359	-0.428512	-1.671747	0.006398	0.001897	-0.003546	-0.149990	-0.094591	0.984152	-0.707828	0.705246	-0.040093	-0.690277	-0.702624	-0.172734
42524	9.657421	-0.373155	-1.718785	0.007598	-0.000705	-0.002924	-0.150012	-0.094607	0.984147	-0.707833	0.705241	-0.040098	-0.690267	-0.702627	-0.172760
42525	9.647408	-0.428153	-1.671558	0.005140	0.002252	-0.002688	-0.150014	-0.094599	0.984148	-0.707820	0.705254	-0.040102	-0.690280	-0.702615	-0.172757
42526	9.666113	-0.378767	-1.685366	0.010963	0.005342	-0.001726	-0.150003	-0.094564	0.984153	-0.707847	0.705226	-0.040126	-0.690255	-0.702648	-0.172723
42527	9.640390	-0.389899	-1.716526	0.005715	0.001058	-0.007194	-0.149981	-0.094597	0.984153	-0.707844	0.705230	-0.040086	-0.690263	-0.702639	-0.172731
42528	9.649030	-0.395328	-1.683434	0.006397	0.001896	-0.003545	-0.149981	-0.094599	0.984153	-0.707842	0.705233	-0.040084	-0.690265	-0.702637	-0.172732
42529	9.640482	-0.389253	-1.716152	0.006397	0.001896	-0.003545	-0.149979	-0.094601	0.984153	-0.707841	0.705234	-0.040081	-0.690266	-0.702635	-0.172733
42530	9.656292	-0.403863	-1.704604	0.007025	0.001308	-0.002121	-0.149993	-0.094597	0.984151	-0.707841	0.705233	-0.040093	-0.690263	-0.702636	-0.172740
42531	9.633382	-0.380037	-1.694218	0.005140	0.002251	-0.002687	-0.149993	-0.094592	0.984152	-0.707830	0.705244	-0.040095	-0.690274	-0.702626	-0.172737
42532	9.672165	-0.418269	-1.692747	0.008339	0.003199	-0.004459	-0.149977	-0.094591	0.984154	-0.707843	0.705232	-0.040087	-0.690265	-0.702638	-0.172724
42533	9.626282	-0.370832	-1.672263	0.007595	-0.001526	0.000784	-0.150030	-0.094588	0.984146	-0.707844	0.705228	-0.040128	-0.690252	-0.702643	-0.172758
42534	9.663636	-0.412268	-1.725364	0.004569	0.005084	-0.005592	-0.149992	-0.094582	0.984153	-0.707833	0.705241	-0.040102	-0.690272	-0.702630	-0.172729
42535	9.643577	-0.353049	-1.673239	0.006970	-0.000119	-0.004345	-0.149999	-0.094604	0.984150	-0.707836	0.705238	-0.040092	-0.690267	-0.702630	-0.172749
42536	9.679518	-0.426385	-1.713530	0.007081	0.003553	-0.003601	-0.149987	-0.094595	0.984152	-0.707839	0.705236	-0.040090	-0.690267	-0.702634	-0.172734
42537	9.617900	-0.364080	-1.704207	0.007708	0.002966	-0.002177	-0.149987	-0.094580	0.984154	-0.707845	0.705229	-0.040102	-0.690260	-0.702643	-0.172723
42538	9.662461	-0.443383	-1.711389	0.005824	0.003909	-0.002743	-0.149978	-0.094563	0.984157	-0.707838	0.705236	-0.040106	-0.690270	-0.702638	-0.172705
42539	9.665357	-0.379168	-1.736749	0.008281	0.000951	-0.002977	-0.149988	-0.094568	0.984155	-0.707847	0.705225	-0.040112	-0.690258	-0.702648	-0.172714
42540	9.632424	-0.410432	-1.679136	0.005824	0.003908	-0.002743	-0.149978	-0.094550	0.984158	-0.707840	0.705233	-0.040117	-0.690267	-0.702643	-0.172696
42541	9.674026	-0.384529	-1.703458	0.008800	-0.002490	-0.006001	-0.149991	-0.094599	0.984151	-0.707855	0.705219	-0.040094	-0.690249	-0.702650	-0.172739
42542	9.649668	-0.392453	-1.680445	0.005769	0.002481	-0.004968	-0.149976	-0.094607	0.984153	-0.707851	0.705224	-0.040076	-0.690257	-0.702644	-0.172735
42543	9.639734	-0.418399	-1.700226	0.005823	0.003908	-0.002743	-0.149967	-0.094591	0.984156	-0.707845	0.705229	-0.040080	-0.690264	-0.702641	-0.172717
42544	9.659800	-0.365755	-1.659699	0.006396	0.001893	-0.003543	-0.149966	-0.094593	0.984156	-0.707843	0.705232	-0.040078	-0.690267	-0.702638	-0.172718
42545	9.648450	-0.394920	-1.734070	0.005139	0.002249	-0.002686	-0.149968	-0.094586	0.984156	-0.707830	0.705244	-0.040081	-0.690279	-0.702626	-0.172715
42546	9.672864	-0.415343	-1.689468	0.007708	0.002965	-0.002176	-0.149970	-0.094571	0.984157	-0.707835	0.705239	-0.040094	-0.690274	-0.702634	-0.172705
42547	9.641381	-0.385697	-1.711904	0.007080	0.003551	-0.003600	-0.149957	-0.094562	0.984160	-0.707837	0.705237	-0.040091	-0.690275	-0.702637	-0.172689
42548	9.672979	-0.414985	-1.688898	0.004455	0.000590	-0.002628	-0.149971	-0.094567	0.984157	-0.707820	0.705254	-0.040094	-0.690289	-0.702620	-0.172704
42549	9.667213	-0.373860	-1.680144	0.011423	-0.000349	-0.003265	-0.149989	-0.094582	0.984153	-0.707852	0.705221	-0.040104	-0.690253	-0.702650	-0.172725
42550	9.657252	-0.399839	-1.700109	0.005768	0.002478	-0.004967	-0.149974	-0.094590	0.984155	-0.707848	0.705226	-0.040086	-0.690260	-0.702644	-0.172721
42551	9.667307	-0.373587	-1.679663	0.007131	0.004162	0.002330	-0.149998	-0.094536	0.984156	-0.707843	0.705228	-0.040142	-0.690260	-0.702650	-0.172699
42552	9.657374	-0.399773	-1.699431	0.007026	0.002122	-0.005823	-0.149979	-0.094553	0.984158	-0.707849	0.705224	-0.040118	-0.690258	-0.702652	-0.172698
42553	9.633059	-0.407760	-1.676143	0.007079	0.003550	-0.003599	-0.149966	-0.094542	0.984160	-0.707849	0.705224	-0.040115	-0.690261	-0.702653	-0.172682
42554	9.674702	-0.381930	-1.700204	0.007079	0.003549	-0.003599	-0.149954	-0.094533	0.984163	-0.707852	0.705221	-0.040113	-0.690261	-0.702657	-0.172666
42555	9.656147	-0.431098	-1.685715	0.005083	0.000003	-0.001203	-0.149982	-0.094534	0.984159	-0.707839	0.705233	-0.040130	-0.690268	-0.702645	-0.172687
42556	9.657586	-0.398815	-1.698450	0.008283	0.001764	-0.006679	-0.149959	-0.094559	0.984160	-0.707855	0.705219	-0.040100	-0.690256	-0.702656	-0.172688
42557	9.634652	-0.374975	-1.688111	0.008961	0.001791	0.000674	-0.149990	-0.094530	0.984158	-0.707861	0.705210	-0.040144	-0.690243	-0.702669	-0.172689
42558	9.656267	-0.430603	-1.685154	0.005768	0.002476	-0.004966	-0.149975	-0.094538	0.984160	-0.707857	0.705215	-0.040127	-0.690251	-0.702662	-0.172684
42559	9.641965	-0.383585	-1.709085	0.005822	0.003905	-0.002742	-0.149964	-0.094521	0.984163	-0.707850	0.705222	-0.040129	-0.690260	-0.702658	-0.172665
42560	9.640600	-0.415469	-1.696032	0.006340	-0.000354	-0.002059	-0.149989	-0.094528	0.984158	-0.707845	0.705226	-0.040141	-0.690259	-0.702653	-0.172688
42561	9.659209	-0.365983	-1.710258	0.007653	0.001533	-0.004397	-0.149985	-0.094539	0.984158	-0.707855	0.705217	-0.040132	-0.690251	-0.702660	-0.172692
42562	9.640667	-0.414983	-1.695766	0.007653	0.001533	-0.004397	-0.149980	-0.094550	0.984158	-0.707862	0.705210	-0.040124	-0.690244	-0.702666	-0.172696
42563	9.650691	-0.388464	-1.675492	0.006395	0.001889	-0.003541	-0.149981	-0.094553	0.984157	-0.707861	0.705212	-0.040121	-0.690246	-0.702664	-0.172698
42564	9.657945	-0.397248	-1.696778	0.008963	0.002605	-0.003030	-0.149979	-0.094546	0.984158	-0.707875	0.705197	-0.040128	-0.690231	-0.702680	-0.172691
42565	9.657997	-0.397092	-1.696516	0.005138	0.002246	-0.002684	-0.149983	-0.094539	0.984158	-0.707863	0.705208	-0.040133	-0.690242	-0.702669	-0.172690
42566	9.642249	-0.382134	-1.707806	0.006969	-0.000126	-0.004339	-0.149990	-0.094561	0.984155	-0.707866	0.705206	-0.040124	-0.690238	-0.702669	-0.172711
42567	9.658091	-0.396473	-1.696128	0.004566	0.005074	-0.005591	-0.149953	-0.094555	0.984161	-0.707854	0.705220	-0.040098	-0.690259	-0.702655	-0.172680
42568	9.659489	-0.392972	-1.641538	0.008798	-0.003312	-0.002287	-0.149997	-0.094584	0.984152	-0.707866	0.705207	-0.040112	-0.690236	-0.702665	-0.172732
42569	9.650928	-0.387079	-1.674444	0.007078	0.003546	-0.003598	-0.149985	-0.094576	0.984154	-0.707869	0.705204	-0.040110	-0.690236	-0.702669	-0.172717
42570	9.649615	-0.418811	-1.661152	0.005193	0.004488	-0.004167	-0.149962	-0.094564	0.984159	-0.707860	0.705214	-0.040099	-0.690250	-0.702660	-0.172693
42571	9.658287	-0.395481	-1.695245	0.007652	0.001531	-0.004395	-0.149958	-0.094574	0.984159	-0.707867	0.705207	-0.040091	-0.690244	-0.702666	-0.172697
42572	9.633932	-0.403522	-1.672146	0.005712	0.000230	-0.003481	-0.149969	-0.094588	0.984156	-0.707860	0.705214	-0.040088	-0.690249	-0.702657	-0.172715
42573	9.658379	-0.395014	-1.694830	0.006503	0.005561	-0.002800	-0.149947	-0.094559	0.984162	-0.707859	0.705215	-0.040092	-0.690255	-0.702659	-0.172679
42574	9.649876	-0.389165	-1.727424	0.007022	0.001303	-0.002114	-0.149961	-0.094555	0.984160	-0.707859	0.705214	-0.040105	-0.690252	-0.702661	-0.172686
42575	9.668477	-0.368343	-1.674079	0.004565	0.005072	-0.005591	-0.149923	-0.094549	0.984166	-0.707847	0.705227	-0.040079	-0.690272	-0.702648	-0.172656
42576	9.625634	-0.396973	-1.703737	0.009589	0.002018	-0.001603	-0.149935	-0.094537	0.984166	-0.707865	0.705209	-0.040101	-0.690252	-0.702669	-0.172655
42577	9.658620	-0.394305	-1.693617	0.004455	0.000586	-0.002625	-0.149950	-0.094542	0.984163	-0.707850	0.705224	-0.040104	-0.690264	-0.702653	-0.172670
42578	9.650071	-0.417037	-1.658949	0.006450	0.004129	-0.005022	-0.149923	-0.094539	0.984167	-0.707850	0.705224	-0.040087	-0.690269	-0.702653	-0.172649
42579	9.658737	-0.393646	-1.693106	0.005084	0.000813	-0.004905	-0.149921	-0.094558	0.984166	-0.707841	0.705234	-0.040069	-0.690279	-0.702640	-0.172661
42580	9.642970	-0.378704	-1.704496	0.006339	-0.000356	-0.002055	-0.149946	-0.094566	0.984161	-0.707836	0.705239	-0.040081	-0.690278	-0.702635	-0.172684
42581	9.648823	-0.419499	-1.713031	0.007651	0.001529	-0.004394	-0.149942	-0.094578	0.984161	-0.707845	0.705230	-0.040071	-0.690270	-0.702642	-0.172690
42582	9.641665	-0.410216	-1.691250	0.008334	0.003186	-0.004452	-0.149926	-0.094577	0.984163	-0.707858	0.705218	-0.040063	-0.690260	-0.702654	-0.172678
42583	9.674688	-0.407346	-1.680950	0.003252	0.003185	-0.003252	-0.149920	-0.094569	0.984165	-0.707833	0.705243	-0.040058	-0.690287	-0.702630	-0.172669
42584	9.635951	-0.368799	-1.682048	0.010846	0.001660	-0.002457	-0.149928	-0.094565	0.984164	-0.707860	0.705215	-0.040074	-0.690258	-0.702658	-0.172670
42585	9.641838	-0.409600	-1.690409	0.004509	0.002827	-0.004108	-0.149918	-0.094564	0.984166	-0.707844	0.705232	-0.040064	-0.690276	-0.702642	-0.172663
42586	9.633343	-0.403629	-1.723037	0.007076	0.003543	-0.003596	-0.149905	-0.094555	0.984169	-0.707847	0.705229	-0.040062	-0.690276	-0.702646	-0.172648
42587	9.666359	-0.400829	-1.712762	0.005137	0.002243	-0.002682	-0.149907	-0.094547	0.984169	-0.707833	0.705242	-0.040065	-0.690290	-0.702634	-0.172644
42588	9.626222	-0.394276	-1.701038	0.008278	0.000943	-0.002967	-0.149917	-0.094552	0.984167	-0.707843	0.705232	-0.040071	-0.690277	-0.702643	-0.172654
42589	9.666464	-0.400518	-1.712237	0.006501	0.005558	-0.002799	-0.149895	-0.094524	0.984173	-0.707843	0.705232	-0.040075	-0.690283	-0.702647	-0.172619
42590	9.659308	-0.391394	-1.690365	0.007021	0.001301	-0.002112	-0.149908	-0.094520	0.984171	-0.707843	0.705231	-0.040087	-0.690280	-0.702648	-0.172626
42591	9.659331	-0.391201	-1.690281	0.006969	-0.000131	-0.004333	-0.150120	-0.094644	0.984127	-0.707775	0.705297	-0.040136	-0.690303	-0.702566	-0.172866
42592	9.675163	-0.405655	-1.678624	0.005818	0.003899	-0.002741	-0.150111	-0.094627	0.984130	-0.707768	0.705304	-0.040140	-0.690313	-0.702561	-0.172848
42593	9.642260	-0.408064	-1.688376	0.005711	0.000226	-0.003478	-0.150123	-0.094640	0.984127	-0.707760	0.705312	-0.040137	-0.690318	-0.702551	-0.172866
42594	9.659469	-0.390531	-1.689646	0.007076	0.003541	-0.003595	-0.150110	-0.094631	0.984130	-0.707762	0.705310	-0.040135	-0.690318	-0.702555	-0.172851
42595	9.643735	-0.375540	-1.700866	0.005084	0.000809	-0.004903	-0.150108	-0.094651	0.984128	-0.707753	0.705320	-0.040117	-0.690328	-0.702542	-0.172864
42596	9.642392	-0.407288	-1.687808	0.007021	0.001300	-0.002111	-0.150122	-0.094647	0.984127	-0.707753	0.705319	-0.040130	-0.690325	-0.702543	-0.172870
42597	9.666848	-0.398813	-1.710467	0.009014	0.004840	-0.004508	-0.150092	-0.094636	0.984132	-0.707771	0.705302	-0.040120	-0.690313	-0.702562	-0.172841
42598	9.659683	-0.389619	-1.688631	0.007021	0.001300	-0.002111	-0.150106	-0.094632	0.984131	-0.707771	0.705301	-0.040133	-0.690310	-0.702564	-0.172848
42599	9.626788	-0.392117	-1.698334	0.005818	0.003898	-0.002740	-0.150097	-0.094615	0.984133	-0.707764	0.705308	-0.040138	-0.690319	-0.702559	-0.172830
42600	9.642622	-0.406562	-1.686666	0.006969	-0.000133	-0.004331	-0.150105	-0.094637	0.984130	-0.707767	0.705305	-0.040128	-0.690315	-0.702558	-0.172851
42601	9.651270	-0.383335	-1.720923	0.007075	0.003540	-0.003594	-0.150093	-0.094627	0.984133	-0.707767	0.705305	-0.040126	-0.690317	-0.702560	-0.172835
42602	9.644100	-0.374151	-1.699102	0.003878	0.002599	-0.001827	-0.150099	-0.094613	0.984133	-0.707745	0.705327	-0.040136	-0.690338	-0.702540	-0.172831
42603	9.635544	-0.396940	-1.664415	0.006393	0.001882	-0.003535	-0.150100	-0.094613	0.984133	-0.707741	0.705331	-0.040135	-0.690342	-0.702536	-0.172832
42604	9.659990	-0.388527	-1.687126	0.006445	0.003315	-0.001314	-0.150105	-0.094590	0.984135	-0.707736	0.705335	-0.040154	-0.690346	-0.702535	-0.172819
42605	9.642908	-0.405635	-1.685257	0.006447	0.004122	-0.005019	-0.150079	-0.094587	0.984139	-0.707736	0.705336	-0.040137	-0.690352	-0.702534	-0.172798
42606	9.660114	-0.387930	-1.686553	0.009483	-0.000851	-0.006038	-0.150079	-0.094626	0.984135	-0.707759	0.705314	-0.040115	-0.690329	-0.702551	-0.172825
42607	9.651605	-0.381990	-1.719347	0.005817	0.003897	-0.002740	-0.150070	-0.094607	0.984138	-0.707750	0.705323	-0.040119	-0.690340	-0.702545	-0.172806
42608	9.651658	-0.381866	-1.719072	0.007020	0.001298	-0.002109	-0.150083	-0.094604	0.984137	-0.707750	0.705322	-0.040132	-0.690337	-0.702546	-0.172813
42609	9.644457	-0.372685	-1.697394	0.006393	0.001881	-0.003534	-0.150081	-0.094606	0.984137	-0.707747	0.705326	-0.040128	-0.690341	-0.702542	-0.172813
42610	9.660292	-0.387086	-1.685729	0.007650	0.001522	-0.004388	-0.150077	-0.094616	0.984136	-0.707754	0.705318	-0.040120	-0.690334	-0.702548	-0.172817
42611	9.660336	-0.386821	-1.685538	0.006392	0.001880	-0.003534	-0.150077	-0.094618	0.984136	-0.707753	0.705320	-0.040117	-0.690335	-0.702546	-0.172819
42612	9.644597	-0.371852	-1.696781	0.005765	0.002463	-0.004960	-0.150062	-0.094627	0.984138	-0.707748	0.705326	-0.040100	-0.690343	-0.702539	-0.172815
42613	9.643275	-0.403694	-1.683618	0.006390	0.001074	0.000171	-0.150093	-0.094610	0.984135	-0.707744	0.705328	-0.040133	-0.690341	-0.702539	-0.172824
42614	9.637433	-0.362566	-1.674900	0.005765	0.002462	-0.004960	-0.150078	-0.094618	0.984136	-0.707740	0.705333	-0.040116	-0.690348	-0.702533	-0.172820
42615	9.666401	-0.427067	-1.693190	0.009586	0.002014	-0.001595	-0.150092	-0.094606	0.984135	-0.707758	0.705314	-0.040138	-0.690327	-0.702554	-0.172820
42616	9.644788	-0.371197	-1.695840	0.007704	0.003760	-0.005872	-0.150062	-0.094612	0.984139	-0.707768	0.705305	-0.040115	-0.690323	-0.702562	-0.172802
42617	9.660646	-0.385518	-1.684058	0.006392	0.001879	-0.003533	-0.150060	-0.094614	0.984139	-0.707765	0.705308	-0.040111	-0.690326	-0.702559	-0.172803
42618	9.666588	-0.426392	-1.692293	0.006443	0.003313	-0.001313	-0.150065	-0.094591	0.984141	-0.707760	0.705312	-0.040131	-0.690331	-0.702558	-0.172790
42619	9.644965	-0.370509	-1.694982	0.007022	0.002102	-0.005812	-0.150045	-0.094608	0.984142	-0.707767	0.705307	-0.040105	-0.690328	-0.702561	-0.172789
42620	9.673943	-0.434936	-1.713299	0.007019	0.001297	-0.002107	-0.150059	-0.094604	0.984140	-0.707767	0.705306	-0.040118	-0.690325	-0.702562	-0.172795
42621	9.652317	-0.379056	-1.715995	0.006446	0.004117	-0.005018	-0.150033	-0.094602	0.984145	-0.707770	0.705304	-0.040101	-0.690327	-0.702565	-0.172775
42622	9.643763	-0.401580	-1.681329	0.009483	-0.000856	-0.006033	-0.150034	-0.094641	0.984141	-0.707793	0.705282	-0.040079	-0.690303	-0.702581	-0.172803
42623	9.645120	-0.369514	-1.694321	0.008273	0.000133	0.000745	-0.150073	-0.094626	0.984136	-0.707799	0.705274	-0.040121	-0.690289	-0.702592	-0.172818
42624	9.643798	-0.401570	-1.681133	0.006442	0.003312	-0.001313	-0.150078	-0.094602	0.984138	-0.707794	0.705278	-0.040140	-0.690293	-0.702591	-0.172806
42625	9.643850	-0.401414	-1.680872	0.007649	0.001518	-0.004386	-0.150074	-0.094613	0.984137	-0.707801	0.705271	-0.040131	-0.690286	-0.702596	-0.172810
42626	9.651139	-0.410301	-1.702177	0.005761	0.001655	-0.001253	-0.150091	-0.094601	0.984136	-0.707791	0.705280	-0.040150	-0.690293	-0.702589	-0.172814
42627	9.661073	-0.383811	-1.682001	0.006392	0.001877	-0.003532	-0.150090	-0.094603	0.984136	-0.707788	0.705283	-0.040147	-0.690296	-0.702586	-0.172815
42628	9.661104	-0.383574	-1.681877	0.005711	0.000220	-0.003472	-0.150101	-0.094616	0.984133	-0.707781	0.705290	-0.040144	-0.690301	-0.702577	-0.172833
42629	9.684182	-0.406996	-1.691751	0.007649	0.001517	-0.004385	-0.150098	-0.094628	0.984132	-0.707791	0.705281	-0.040136	-0.690292	-0.702584	-0.172838
42630	9.612482	-0.371063	-1.702843	0.009691	0.006488	-0.004564	-0.150058	-0.094605	0.984140	-0.707813	0.705259	-0.040129	-0.690278	-0.702609	-0.172793
42631	9.674437	-0.432938	-1.711014	0.008222	-0.001303	-0.001472	-0.150095	-0.094614	0.984134	-0.707821	0.705249	-0.040151	-0.690261	-0.702618	-0.172825
42632	9.628379	-0.385329	-1.690852	0.004560	0.005055	-0.005591	-0.150058	-0.094609	0.984140	-0.707810	0.705263	-0.040125	-0.690281	-0.702605	-0.172796
42633	9.644237	-0.399582	-1.679088	0.006968	-0.000141	-0.004324	-0.150066	-0.094631	0.984137	-0.707814	0.705259	-0.040115	-0.690275	-0.702605	-0.172816
42634	9.660070	-0.414024	-1.667416	0.007699	0.002952	-0.002165	-0.150067	-0.094616	0.984138	-0.707819	0.705254	-0.040128	-0.690270	-0.702613	-0.172807
42635	9.645654	-0.367284	-1.691763	0.005710	0.000218	-0.003471	-0.150079	-0.094631	0.984135	-0.707813	0.705259	-0.040125	-0.690273	-0.702606	-0.172825
42636	9.660196	-0.385270	-1.734607	0.005761	0.001654	-0.001252	-0.150096	-0.094618	0.984133	-0.707803	0.705268	-0.040144	-0.690279	-0.702598	-0.172829
42637	9.645739	-0.366954	-1.691351	0.006444	0.004113	-0.005017	-0.150070	-0.094615	0.984138	-0.707802	0.705270	-0.040127	-0.690286	-0.702597	-0.172808
42638	9.651720	-0.407793	-1.699487	0.004503	0.002014	-0.000399	-0.150091	-0.094594	0.984137	-0.707782	0.705289	-0.040152	-0.690302	-0.702581	-0.172809
42639	9.661623	-0.381280	-1.679411	0.006968	-0.000142	-0.004323	-0.150099	-0.094616	0.984133	-0.707785	0.705287	-0.040143	-0.690298	-0.702580	-0.172830
42640	9.651821	-0.407285	-1.699031	0.005240	0.006709	-0.005651	-0.150050	-0.094599	0.984142	-0.707778	0.705295	-0.040118	-0.690316	-0.702574	-0.172785
42641	9.660518	-0.384076	-1.733074	0.010213	0.002231	-0.003869	-0.150044	-0.094601	0.984143	-0.707804	0.705269	-0.040119	-0.690290	-0.702600	-0.172781
42642	9.669103	-0.389418	-1.699853	0.006391	0.001874	-0.003530	-0.150044	-0.094604	0.984143	-0.707802	0.705271	-0.040116	-0.690292	-0.702597	-0.172782
42643	9.659269	-0.415650	-1.719629	0.007018	0.001294	-0.002104	-0.150056	-0.094599	0.984141	-0.707801	0.705271	-0.040128	-0.690291	-0.702597	-0.172788
42644	9.653365	-0.374480	-1.711095	0.005710	0.000217	-0.003470	-0.150068	-0.094613	0.984138	-0.707794	0.705279	-0.040125	-0.690295	-0.702588	-0.172806
42645	9.643466	-0.429137	-1.663367	0.007698	0.002950	-0.002164	-0.150069	-0.094600	0.984139	-0.707800	0.705272	-0.040137	-0.690289	-0.702597	-0.172797
42646	9.676485	-0.397924	-1.720796	0.005657	-0.002020	-0.001983	-0.150106	-0.094619	0.984132	-0.707790	0.705281	-0.040148	-0.690291	-0.702585	-0.172837
42647	9.646131	-0.365117	-1.689512	0.008222	-0.001304	-0.001469	-0.150142	-0.094627	0.984126	-0.707795	0.705275	-0.040169	-0.690278	-0.702590	-0.172868
42648	9.669235	-0.388646	-1.699280	0.005186	0.004470	-0.004164	-0.150119	-0.094616	0.984130	-0.707785	0.705285	-0.040159	-0.690293	-0.702582	-0.172845
42649	9.670635	-0.356403	-1.712014	0.007648	0.001513	-0.004382	-0.150116	-0.094626	0.984130	-0.707790	0.705281	-0.040150	-0.690289	-0.702584	-0.172849
42650	9.636414	-0.390823	-1.708763	0.005133	0.002233	-0.002677	-0.150119	-0.094619	0.984130	-0.707778	0.705293	-0.040154	-0.690301	-0.702573	-0.172847
42651	9.653593	-0.373296	-1.710067	0.006390	0.001872	-0.003529	-0.150120	-0.094621	0.984130	-0.707774	0.705297	-0.040152	-0.690305	-0.702568	-0.172849
42652	9.645060	-0.395852	-1.675234	0.006443	0.004109	-0.005016	-0.150093	-0.094618	0.984134	-0.707774	0.705298	-0.040135	-0.690310	-0.702568	-0.172829
42653	9.635266	-0.421923	-1.694875	0.007647	0.001512	-0.004381	-0.150089	-0.094629	0.984133	-0.707780	0.705292	-0.040125	-0.690305	-0.702573	-0.172833
42654	9.676859	-0.396118	-1.719104	0.005812	0.003889	-0.002737	-0.150080	-0.094612	0.984136	-0.707773	0.705299	-0.040130	-0.690314	-0.702568	-0.172815
42655	9.629443	-0.380300	-1.685922	0.005713	0.001014	-0.007173	-0.150059	-0.094645	0.984136	-0.707771	0.705304	-0.040090	-0.690321	-0.702559	-0.172825
42656	9.669687	-0.386347	-1.697229	0.005759	0.001653	-0.001250	-0.150077	-0.094633	0.984135	-0.707761	0.705313	-0.040109	-0.690327	-0.702551	-0.172829
42657	9.645324	-0.394466	-1.674044	0.006390	0.001871	-0.003528	-0.150076	-0.094636	0.984135	-0.707759	0.705315	-0.040106	-0.690329	-0.702549	-0.172830
42658	9.668454	-0.417995	-1.683708	0.007697	0.002948	-0.002162	-0.150078	-0.094621	0.984136	-0.707764	0.705309	-0.040119	-0.690324	-0.702557	-0.172821
42659	9.686958	-0.368577	-1.698045	0.006390	0.001871	-0.003528	-0.150076	-0.094623	0.984136	-0.707762	0.705311	-0.040116	-0.690326	-0.702555	-0.172821
42660	9.619853	-0.405640	-1.704613	0.008379	0.005403	-0.005928	-0.150035	-0.094618	0.984143	-0.707778	0.705297	-0.040093	-0.690319	-0.702570	-0.172787
42661	9.679797	-0.358998	-1.676028	0.005027	-0.002240	0.000299	-0.150089	-0.094621	0.984134	-0.707758	0.705314	-0.040126	-0.690327	-0.702552	-0.172829
42662	9.654159	-0.370734	-1.707427	0.008327	0.003166	-0.004440	-0.150073	-0.094621	0.984137	-0.707771	0.705302	-0.040118	-0.690317	-0.702564	-0.172817
42663	9.651570	-0.434465	-1.680999	0.004501	0.002013	-0.000398	-0.150094	-0.094599	0.984136	-0.707751	0.705321	-0.040143	-0.690334	-0.702548	-0.172817
42664	9.638462	-0.355923	-1.718410	0.007069	0.003527	-0.003588	-0.150082	-0.094591	0.984138	-0.707753	0.705318	-0.040141	-0.690334	-0.702551	-0.172802
42665	9.658958	-0.443306	-1.701900	0.007016	0.001291	-0.002100	-0.150094	-0.094586	0.984137	-0.707752	0.705319	-0.040152	-0.690333	-0.702551	-0.172808
42666	9.654370	-0.370208	-1.706347	0.007069	0.003526	-0.003588	-0.150081	-0.094578	0.984140	-0.707755	0.705317	-0.040150	-0.690333	-0.702555	-0.172793
42667	9.653118	-0.401829	-1.692950	0.005762	0.002448	-0.004954	-0.150068	-0.094586	0.984141	-0.707750	0.705322	-0.040133	-0.690340	-0.702549	-0.172790
42668	9.654511	-0.369528	-1.705696	0.006441	0.004105	-0.005015	-0.150041	-0.094583	0.984145	-0.707751	0.705322	-0.040116	-0.690345	-0.702549	-0.172769
42669	9.637447	-0.386786	-1.703846	0.008950	0.001789	0.000693	-0.150072	-0.094555	0.984143	-0.707758	0.705313	-0.040160	-0.690331	-0.702562	-0.172770
42670	9.660581	-0.410390	-1.713512	0.005762	0.002447	-0.004953	-0.150057	-0.094564	0.984145	-0.707754	0.705318	-0.040143	-0.690339	-0.702556	-0.172766
42671	9.629019	-0.381050	-1.736385	0.004501	0.002012	-0.000397	-0.150078	-0.094541	0.984144	-0.707731	0.705339	-0.040168	-0.690357	-0.702538	-0.172765
42672	9.653400	-0.401026	-1.691534	0.007068	0.003525	-0.003587	-0.150065	-0.094533	0.984146	-0.707734	0.705336	-0.040166	-0.690357	-0.702541	-0.172750
42673	9.670581	-0.383460	-1.692786	0.006389	0.001868	-0.003526	-0.150066	-0.094535	0.984146	-0.707732	0.705338	-0.040164	-0.690359	-0.702539	-0.172753
42674	9.614606	-0.362298	-1.692708	0.006389	0.001868	-0.003526	-0.150066	-0.094537	0.984146	-0.707730	0.705341	-0.040162	-0.690361	-0.702536	-0.172755
42675	9.676646	-0.424016	-1.700723	0.006389	0.001868	-0.003526	-0.150066	-0.094540	0.984146	-0.707727	0.705343	-0.040159	-0.690364	-0.702533	-0.172756
42676	9.678006	-0.392049	-1.713576	0.007064	0.002728	0.000118	-0.150085	-0.094510	0.984145	-0.707724	0.705344	-0.040194	-0.690363	-0.702536	-0.172749
42677	9.645137	-0.394520	-1.723338	0.008908	0.001940	-0.008932	-0.150045	-0.094551	0.984148	-0.707748	0.705324	-0.040141	-0.690347	-0.702552	-0.172749
42678	9.670821	-0.382253	-1.691685	0.007016	0.001289	-0.002098	-0.150059	-0.094547	0.984146	-0.707748	0.705323	-0.040154	-0.690344	-0.702553	-0.172756
42679	9.636611	-0.416801	-1.688482	0.004452	0.000572	-0.002613	-0.150076	-0.094553	0.984143	-0.707731	0.705340	-0.040158	-0.690358	-0.702535	-0.172772
42680	9.655068	-0.367465	-1.702988	0.009579	0.002006	-0.001583	-0.150088	-0.094540	0.984142	-0.707748	0.705321	-0.040181	-0.690338	-0.702555	-0.172771
42681	9.662408	-0.376513	-1.724176	0.008952	0.002583	-0.003010	-0.150086	-0.094534	0.984143	-0.707761	0.705308	-0.040187	-0.690325	-0.702570	-0.172764
42682	9.638042	-0.384631	-1.700968	0.007015	0.001288	-0.002098	-0.150100	-0.094530	0.984141	-0.707761	0.705307	-0.040200	-0.690322	-0.702571	-0.172771
42683	9.686809	-0.396211	-1.679228	0.008904	0.001143	-0.005226	-0.150093	-0.094550	0.984140	-0.707779	0.705290	-0.040185	-0.690305	-0.702585	-0.172780
42684	9.644085	-0.425218	-1.709071	0.006336	-0.000368	-0.002036	-0.150119	-0.094558	0.984136	-0.707774	0.705294	-0.040197	-0.690304	-0.702580	-0.172803
42685	9.679608	-0.386640	-1.657351	0.007798	0.007412	-0.005137	-0.150067	-0.094531	0.984146	-0.707782	0.705287	-0.040180	-0.690308	-0.702591	-0.172748
42686	9.646860	-0.360957	-1.734506	0.007015	0.001288	-0.002097	-0.150081	-0.094527	0.984144	-0.707782	0.705287	-0.040193	-0.690305	-0.702592	-0.172755
42687	9.635672	-0.447367	-1.673598	0.006967	-0.000153	-0.004313	-0.150089	-0.094550	0.984141	-0.707786	0.705284	-0.040183	-0.690299	-0.702592	-0.172776
42688	9.662728	-0.374994	-1.722715	0.005761	0.002443	-0.004952	-0.150074	-0.094559	0.984142	-0.707781	0.705289	-0.040165	-0.690307	-0.702585	-0.172772
42689	9.646883	-0.388349	-1.666476	0.006388	0.001865	-0.003524	-0.150072	-0.094561	0.984143	-0.707780	0.705291	-0.040162	-0.690309	-0.702583	-0.172773
42690	9.661525	-0.406363	-1.709144	0.006388	0.001865	-0.003524	-0.150072	-0.094563	0.984142	-0.707777	0.705293	-0.040159	-0.690311	-0.702580	-0.172774
42691	9.639761	-0.350546	-1.712221	0.006388	0.001865	-0.003524	-0.150069	-0.094566	0.984143	-0.707775	0.705295	-0.040155	-0.690314	-0.702578	-0.172775
42692	9.677435	-0.420352	-1.697138	0.007018	0.002080	-0.005801	-0.150051	-0.094583	0.984144	-0.707781	0.705291	-0.040131	-0.690312	-0.702580	-0.172774
42693	9.647146	-0.359122	-1.733297	0.008899	0.000348	-0.001519	-0.150075	-0.094581	0.984140	-0.707791	0.705279	-0.040152	-0.690296	-0.702592	-0.172788
42694	9.621482	-0.399162	-1.696929	0.005808	0.003882	-0.002735	-0.150066	-0.094564	0.984143	-0.707784	0.705287	-0.040157	-0.690306	-0.702587	-0.172770
42695	9.687369	-0.393343	-1.676672	0.006967	-0.000154	-0.004311	-0.150073	-0.094584	0.984140	-0.707785	0.705286	-0.040147	-0.690303	-0.702585	-0.172790
42696	9.637402	-0.413315	-1.684821	0.003971	0.006262	-0.001097	-0.150060	-0.094539	0.984147	-0.707762	0.705308	-0.040165	-0.690329	-0.702569	-0.172749
42697	9.661892	-0.404964	-1.707400	0.006388	0.001863	-0.003523	-0.150059	-0.094541	0.984147	-0.707761	0.705310	-0.040162	-0.690331	-0.702567	-0.172750
42698	9.646104	-0.390255	-1.718892	0.006336	-0.000370	-0.002033	-0.150085	-0.094548	0.984142	-0.707756	0.705314	-0.040174	-0.690330	-0.702562	-0.172774
42699	9.654649	-0.395513	-1.685693	0.007066	0.003519	-0.003585	-0.150072	-0.094540	0.984145	-0.707761	0.705309	-0.040172	-0.690328	-0.702568	-0.172759
42700	9.655995	-0.363462	-1.698589	0.007014	0.001286	-0.002095	-0.150085	-0.094537	0.984143	-0.707761	0.705308	-0.040184	-0.690325	-0.702569	-0.172766
42701	9.654760	-0.395128	-1.685147	0.006439	0.004095	-0.005012	-0.150058	-0.094534	0.984147	-0.707762	0.705309	-0.040167	-0.690330	-0.702569	-0.172745
42702	9.654797	-0.394939	-1.684983	0.008221	-0.001309	-0.001454	-0.150095	-0.094544	0.984141	-0.707769	0.705300	-0.040188	-0.690315	-0.702576	-0.172777
42703	9.639002	-0.380145	-1.696528	0.008276	0.001714	-0.006649	-0.150074	-0.094570	0.984141	-0.707786	0.705285	-0.040158	-0.690302	-0.702588	-0.172780
42704	9.670698	-0.408955	-1.673005	0.003292	0.004605	-0.001036	-0.150073	-0.094536	0.984145	-0.707759	0.705311	-0.040175	-0.690330	-0.702566	-0.172756
42705	9.639162	-0.379740	-1.695709	0.007743	0.005174	-0.003646	-0.150050	-0.094515	0.984150	-0.707767	0.705303	-0.040175	-0.690327	-0.702577	-0.172726
42706	9.655048	-0.394023	-1.683757	0.007645	0.001499	-0.004371	-0.150047	-0.094526	0.984150	-0.707774	0.705296	-0.040167	-0.690320	-0.702583	-0.172730
42707	9.646596	-0.388262	-1.716582	0.007018	0.002075	-0.005799	-0.150031	-0.094544	0.984150	-0.707779	0.705292	-0.040144	-0.690318	-0.702584	-0.172732
42708	9.638047	-0.410641	-1.681784	0.007645	0.001499	-0.004371	-0.150027	-0.094554	0.984150	-0.707787	0.705285	-0.040136	-0.690311	-0.702590	-0.172736
42709	9.672271	-0.375743	-1.684843	0.006336	-0.000371	-0.002031	-0.150053	-0.094563	0.984145	-0.707783	0.705288	-0.040148	-0.690310	-0.702586	-0.172761
42710	9.629608	-0.404937	-1.714535	0.005807	0.003879	-0.002734	-0.150045	-0.094545	0.984148	-0.707776	0.705295	-0.040152	-0.690319	-0.702581	-0.172743
42711	9.655254	-0.392736	-1.682874	0.006967	-0.000158	-0.004308	-0.150053	-0.094568	0.984145	-0.707780	0.705292	-0.040143	-0.690313	-0.702581	-0.172764
42712	9.655321	-0.392432	-1.682562	0.005858	0.006111	-0.004225	-0.150018	-0.094545	0.984152	-0.707775	0.705297	-0.040133	-0.690326	-0.702579	-0.172724
42713	9.688329	-0.389276	-1.672065	0.009580	0.002791	-0.005281	-0.150000	-0.094553	0.984154	-0.707797	0.705276	-0.040119	-0.690307	-0.702600	-0.172715
42714	9.646987	-0.386441	-1.714795	0.007064	0.003516	-0.003583	-0.149988	-0.094544	0.984157	-0.707800	0.705273	-0.040118	-0.690307	-0.702603	-0.172700
42715	9.638439	-0.409016	-1.679930	0.007013	0.001284	-0.002092	-0.150003	-0.094540	0.984155	-0.707797	0.705275	-0.040131	-0.690306	-0.702602	-0.172708
42716	9.664173	-0.368775	-1.715935	0.006386	0.001860	-0.003520	-0.150003	-0.094542	0.984155	-0.707795	0.705277	-0.040129	-0.690308	-0.702599	-0.172710
42717	9.647173	-0.385836	-1.713884	0.007792	0.007402	-0.005136	-0.149953	-0.094517	0.984165	-0.707806	0.705267	-0.040113	-0.690308	-0.702613	-0.172657
42718	9.647253	-0.385507	-1.713506	0.006967	-0.000159	-0.004306	-0.149962	-0.094539	0.984162	-0.707809	0.705265	-0.040104	-0.690303	-0.702612	-0.172678
42719	9.655793	-0.390638	-1.680269	0.005806	0.003878	-0.002734	-0.149953	-0.094522	0.984165	-0.707801	0.705272	-0.040108	-0.690313	-0.702607	-0.172660
42720	9.630244	-0.402510	-1.711531	0.006336	-0.000372	-0.002029	-0.149979	-0.094529	0.984160	-0.707796	0.705277	-0.040121	-0.690312	-0.702602	-0.172684
42721	9.672927	-0.373061	-1.681668	0.006336	-0.000372	-0.002029	-0.150005	-0.094536	0.984155	-0.707792	0.705280	-0.040134	-0.690311	-0.702597	-0.172707
42722	9.646102	-0.416784	-1.699740	0.007064	0.003514	-0.003582	-0.149993	-0.094527	0.984158	-0.707794	0.705278	-0.040132	-0.690311	-0.702601	-0.172692
42723	9.680362	-0.381838	-1.702535	0.007063	0.003514	-0.003582	-0.149981	-0.094517	0.984161	-0.707795	0.705277	-0.040131	-0.690313	-0.702603	-0.172677
42724	9.638909	-0.407136	-1.677690	0.007644	0.001495	-0.004368	-0.149977	-0.094528	0.984160	-0.707802	0.705270	-0.040122	-0.690306	-0.702608	-0.172681
42725	9.637790	-0.410723	-1.731930	0.005128	0.002221	-0.002671	-0.149981	-0.094522	0.984160	-0.707790	0.705282	-0.040126	-0.690318	-0.702597	-0.172681
42726	9.688995	-0.386564	-1.668831	0.007013	0.001283	-0.002091	-0.149995	-0.094518	0.984158	-0.707790	0.705281	-0.040139	-0.690315	-0.702598	-0.172688
42727	9.654996	-0.393013	-1.732953	0.007113	0.005743	-0.005073	-0.149955	-0.094504	0.984166	-0.707793	0.705279	-0.040121	-0.690320	-0.702602	-0.172649
42728	9.631797	-0.397150	-1.655231	0.006335	-0.000373	-0.002027	-0.149981	-0.094511	0.984161	-0.707788	0.705283	-0.040133	-0.690320	-0.702597	-0.172673
42729	9.670899	-0.407107	-1.720954	0.007644	0.001494	-0.004367	-0.149979	-0.094522	0.984161	-0.707795	0.705277	-0.040126	-0.690313	-0.702602	-0.172678
42730	9.623374	-0.391391	-1.687984	0.005128	0.002221	-0.002670	-0.149982	-0.094515	0.984161	-0.707783	0.705289	-0.040130	-0.690325	-0.702591	-0.172677
42731	9.688086	-0.389359	-1.722076	0.008947	0.002574	-0.003001	-0.149981	-0.094509	0.984161	-0.707799	0.705273	-0.040138	-0.690309	-0.702608	-0.172671
42732	9.679535	-0.411808	-1.687232	0.008901	0.001130	-0.005214	-0.149974	-0.094528	0.984161	-0.707816	0.705256	-0.040123	-0.690293	-0.702622	-0.172679
42733	9.647914	-0.382583	-1.710440	0.006335	-0.000373	-0.002027	-0.150000	-0.094536	0.984156	-0.707812	0.705260	-0.040135	-0.690291	-0.702618	-0.172702
42734	9.663774	-0.396958	-1.698609	0.005805	0.003875	-0.002733	-0.149991	-0.094519	0.984159	-0.707805	0.705267	-0.040140	-0.690301	-0.702613	-0.172684
42735	9.656485	-0.387548	-1.677002	0.006966	-0.000163	-0.004303	-0.150000	-0.094540	0.984155	-0.707807	0.705265	-0.040131	-0.690297	-0.702612	-0.172706
42736	9.640691	-0.372754	-1.688551	0.007643	0.001492	-0.004366	-0.149997	-0.094551	0.984155	-0.707815	0.705258	-0.040123	-0.690289	-0.702617	-0.172711
42737	9.663884	-0.396244	-1.698148	0.007012	0.001281	-0.002089	-0.150011	-0.094548	0.984153	-0.707815	0.705257	-0.040136	-0.690286	-0.702619	-0.172718
42738	9.656586	-0.386905	-1.676570	0.006385	0.001855	-0.003518	-0.150011	-0.094550	0.984153	-0.707812	0.705260	-0.040133	-0.690289	-0.702616	-0.172720
42739	9.663975	-0.395781	-1.697738	0.005758	0.002430	-0.004946	-0.149996	-0.094558	0.984154	-0.707808	0.705265	-0.040116	-0.690296	-0.702609	-0.172716
42740	9.638465	-0.407582	-1.728915	0.008946	0.002572	-0.003000	-0.149995	-0.094552	0.984155	-0.707823	0.705250	-0.040123	-0.690282	-0.702625	-0.172710
42741	9.665344	-0.363507	-1.710454	0.005127	0.002219	-0.002669	-0.150000	-0.094546	0.984155	-0.707812	0.705260	-0.040128	-0.690291	-0.702616	-0.172710
42742	9.647014	-0.412604	-1.695579	0.005658	-0.002030	-0.001962	-0.150038	-0.094565	0.984147	-0.707803	0.705269	-0.040140	-0.690293	-0.702605	-0.172750
42743	9.632490	-0.365966	-1.720304	0.009627	0.005011	-0.006767	-0.149993	-0.094568	0.984154	-0.707828	0.705245	-0.040111	-0.690277	-0.702628	-0.172720
42744	9.639768	-0.402758	-1.673808	0.005031	-0.001456	-0.003390	-0.150017	-0.094593	0.984148	-0.707816	0.705257	-0.040108	-0.690283	-0.702613	-0.172755
42745	9.680045	-0.408828	-1.685027	0.007061	0.003509	-0.003580	-0.150003	-0.094584	0.984151	-0.707818	0.705256	-0.040105	-0.690285	-0.702615	-0.172739
42746	9.664295	-0.394146	-1.696298	0.005803	0.003873	-0.002733	-0.149995	-0.094567	0.984154	-0.707810	0.705263	-0.040109	-0.690294	-0.702610	-0.172721
42747	9.671697	-0.403110	-1.717404	0.007642	0.001490	-0.004364	-0.149991	-0.094577	0.984153	-0.707819	0.705255	-0.040101	-0.690286	-0.702617	-0.172725
42748	9.639975	-0.401804	-1.672843	0.007642	0.001489	-0.004364	-0.149987	-0.094588	0.984153	-0.707827	0.705247	-0.040092	-0.690279	-0.702623	-0.172730
42749	9.647364	-0.410767	-1.694029	0.005127	0.002218	-0.002669	-0.149990	-0.094583	0.984153	-0.707816	0.705258	-0.040095	-0.690290	-0.702613	-0.172729
42750	9.648640	-0.378936	-1.707153	0.008265	0.000133	0.000770	-0.150032	-0.094567	0.984148	-0.707820	0.705252	-0.040138	-0.690276	-0.702622	-0.172747
42751	9.664524	-0.393338	-1.695180	0.007110	0.005737	-0.005072	-0.149994	-0.094553	0.984155	-0.707825	0.705248	-0.040122	-0.690280	-0.702628	-0.172710
42752	9.664583	-0.393109	-1.694894	0.006335	-0.000376	-0.002023	-0.150020	-0.094561	0.984151	-0.707820	0.705252	-0.040134	-0.690279	-0.702622	-0.172734
42753	9.647538	-0.410249	-1.693164	0.005757	0.002426	-0.004944	-0.150005	-0.094570	0.984152	-0.707816	0.705257	-0.040116	-0.690286	-0.702616	-0.172730
42754	9.648831	-0.378139	-1.706247	0.008269	0.000915	-0.002934	-0.150015	-0.094575	0.984150	-0.707826	0.705247	-0.040122	-0.690274	-0.702626	-0.172740
42755	9.640287	-0.400631	-1.671328	0.005802	0.003872	-0.002732	-0.150006	-0.094556	0.984153	-0.707817	0.705256	-0.040126	-0.690285	-0.702619	-0.172721
42756	9.648942	-0.377940	-1.705662	0.008314	0.002361	-0.000721	-0.150022	-0.094535	0.984153	-0.707824	0.705247	-0.040155	-0.690275	-0.702631	-0.172717
42757	9.680639	-0.406771	-1.682109	0.007642	0.001487	-0.004362	-0.150018	-0.094546	0.984152	-0.707831	0.705240	-0.040146	-0.690268	-0.702636	-0.172721
42758	9.631970	-0.394979	-1.703550	0.005802	0.003871	-0.002732	-0.150009	-0.094529	0.984155	-0.707824	0.705247	-0.040150	-0.690277	-0.702631	-0.172703
42759	9.681990	-0.374463	-1.694901	0.006966	-0.000168	-0.004298	-0.150018	-0.094551	0.984152	-0.707827	0.705244	-0.040141	-0.690272	-0.702631	-0.172725
42760	9.647883	-0.408909	-1.691525	0.004499	0.002789	-0.004097	-0.150007	-0.094551	0.984153	-0.707813	0.705259	-0.040130	-0.690289	-0.702616	-0.172719
42761	9.649181	-0.376791	-1.704567	0.006384	0.001851	-0.003515	-0.150008	-0.094554	0.984153	-0.707811	0.705261	-0.040128	-0.690291	-0.702614	-0.172721
42762	9.665054	-0.391024	-1.692690	0.006384	0.001851	-0.003514	-0.150008	-0.094557	0.984153	-0.707809	0.705264	-0.040125	-0.690293	-0.702611	-0.172723
42763	9.624881	-0.384429	-1.680978	0.007109	0.005733	-0.005071	-0.149970	-0.094541	0.984160	-0.707811	0.705263	-0.040109	-0.690299	-0.702614	-0.172686
42764	9.698138	-0.387462	-1.681719	0.005175	0.004443	-0.004161	-0.149948	-0.094530	0.984165	-0.707801	0.705273	-0.040099	-0.690314	-0.702605	-0.172662
42765	9.607961	-0.401267	-1.678630	0.006334	-0.000377	-0.002021	-0.149974	-0.094537	0.984160	-0.707795	0.705278	-0.040111	-0.690314	-0.702599	-0.172686
42766	9.672674	-0.399160	-1.712817	0.005757	0.002423	-0.004943	-0.149960	-0.094545	0.984161	-0.707791	0.705284	-0.040094	-0.690322	-0.702592	-0.172682
42767	9.632487	-0.392597	-1.701177	0.005801	0.003870	-0.002731	-0.149950	-0.094527	0.984164	-0.707781	0.705293	-0.040098	-0.690334	-0.702586	-0.172663
42768	9.655722	-0.416039	-1.710667	0.006966	-0.000170	-0.004296	-0.149958	-0.094549	0.984161	-0.707784	0.705290	-0.040089	-0.690329	-0.702585	-0.172684
42769	9.633805	-0.360344	-1.714116	0.007686	0.002932	-0.002148	-0.149959	-0.094534	0.984162	-0.707789	0.705285	-0.040101	-0.690324	-0.702592	-0.172674
42770	9.648452	-0.406511	-1.688854	0.005125	0.002215	-0.002667	-0.149962	-0.094528	0.984162	-0.707777	0.705297	-0.040105	-0.690336	-0.702581	-0.172673
42771	9.658207	-0.379723	-1.668857	0.010202	0.002202	-0.003840	-0.149958	-0.094531	0.984163	-0.707800	0.705273	-0.040106	-0.690312	-0.702605	-0.172670
42772	9.648539	-0.406140	-1.688446	0.004450	0.000559	-0.002603	-0.149973	-0.094536	0.984160	-0.707783	0.705290	-0.040109	-0.690326	-0.702587	-0.172685
42773	9.672977	-0.397847	-1.711411	0.006334	-0.000378	-0.002019	-0.149996	-0.094543	0.984156	-0.707778	0.705295	-0.040119	-0.690327	-0.702581	-0.172707
42774	9.642488	-0.364830	-1.680003	0.007152	0.007178	-0.002860	-0.149964	-0.094503	0.984165	-0.707780	0.705293	-0.040124	-0.690332	-0.702589	-0.172656
42775	9.654846	-0.446676	-1.695625	0.005756	0.002420	-0.004942	-0.149950	-0.094512	0.984166	-0.707775	0.705298	-0.040107	-0.690340	-0.702582	-0.172652
42776	9.665938	-0.360146	-1.756840	0.007592	-0.000743	-0.002865	-0.149972	-0.094528	0.984161	-0.707780	0.705293	-0.040113	-0.690330	-0.702586	-0.172679
42777	9.631697	-0.422474	-1.685810	0.005081	0.000765	-0.004877	-0.149969	-0.094549	0.984159	-0.707772	0.705302	-0.040093	-0.690339	-0.702573	-0.172693
42778	9.634201	-0.358555	-1.712265	0.008943	0.002566	-0.002993	-0.149968	-0.094543	0.984160	-0.707787	0.705287	-0.040101	-0.690324	-0.702589	-0.172687
42779	9.648862	-0.404568	-1.686977	0.005756	0.002419	-0.004942	-0.149954	-0.094552	0.984162	-0.707783	0.705292	-0.040083	-0.690331	-0.702584	-0.172683
42780	9.633074	-0.389897	-1.698471	0.007009	0.001276	-0.002083	-0.149968	-0.094548	0.984160	-0.707783	0.705291	-0.040096	-0.690328	-0.702585	-0.172690
42781	9.640482	-0.399003	-1.719646	0.005125	0.002213	-0.002666	-0.149971	-0.094543	0.984160	-0.707772	0.705302	-0.040099	-0.690338	-0.702575	-0.172690
42782	9.648985	-0.404083	-1.686387	0.007009	0.001276	-0.002082	-0.149985	-0.094539	0.984158	-0.707772	0.705301	-0.040112	-0.690335	-0.702576	-0.172697
42783	9.683160	-0.369169	-1.689366	0.010876	0.003854	-0.003903	-0.149969	-0.094530	0.984161	-0.707802	0.705271	-0.040115	-0.690309	-0.702607	-0.172678
42784	9.656460	-0.412967	-1.707239	0.005707	0.000192	-0.003447	-0.149981	-0.094544	0.984158	-0.707795	0.705278	-0.040112	-0.690313	-0.702598	-0.172696
42785	9.633301	-0.389066	-1.697376	0.007058	0.003501	-0.003576	-0.149971	-0.094534	0.984161	-0.707798	0.705275	-0.040112	-0.690312	-0.702603	-0.172682
42786	9.649196	-0.403301	-1.685371	0.005124	0.002212	-0.002666	-0.149975	-0.094528	0.984161	-0.707786	0.705287	-0.040116	-0.690324	-0.702591	-0.172681
42787	9.649255	-0.403072	-1.685086	0.008315	0.003135	-0.004421	-0.149959	-0.094527	0.984163	-0.707798	0.705275	-0.040108	-0.690315	-0.702603	-0.172668
42788	9.649318	-0.402679	-1.684820	0.008272	0.001686	-0.006631	-0.149937	-0.094553	0.984164	-0.707813	0.705262	-0.040078	-0.690303	-0.702614	-0.172671
42789	9.666387	-0.385142	-1.686417	0.007587	-0.001522	0.000843	-0.149991	-0.094548	0.984156	-0.707814	0.705259	-0.040120	-0.690292	-0.702617	-0.172705
42790	9.666410	-0.385163	-1.686278	0.005799	0.003866	-0.002730	-0.149982	-0.094531	0.984159	-0.707806	0.705266	-0.040124	-0.690301	-0.702612	-0.172687
42791	9.633564	-0.387898	-1.696149	0.006965	-0.000175	-0.004291	-0.150106	-0.094634	0.984130	-0.707739	0.705333	-0.040124	-0.690343	-0.702531	-0.172851
42792	9.666512	-0.384491	-1.685850	0.007062	0.004275	-0.007280	-0.150062	-0.094646	0.984136	-0.707747	0.705327	-0.040086	-0.690344	-0.702535	-0.172828
42793	9.665495	-0.388229	-1.739983	0.007009	0.001274	-0.002081	-0.150078	-0.094642	0.984134	-0.707748	0.705326	-0.040100	-0.690340	-0.702537	-0.172837
42794	9.616678	-0.404292	-1.693786	0.005755	0.002416	-0.004940	-0.150064	-0.094650	0.984135	-0.707743	0.705332	-0.040083	-0.690348	-0.702530	-0.172833
42795	9.682518	-0.398146	-1.673334	0.006425	0.003295	-0.001300	-0.150070	-0.094628	0.984136	-0.707739	0.705335	-0.040102	-0.690351	-0.702530	-0.172821
42796	9.649691	-0.400952	-1.683095	0.004497	0.002781	-0.004095	-0.150059	-0.094628	0.984138	-0.707725	0.705350	-0.040091	-0.690368	-0.702515	-0.172815
42797	9.666818	-0.383210	-1.684386	0.006430	0.004069	-0.005005	-0.150034	-0.094625	0.984142	-0.707726	0.705349	-0.040074	-0.690372	-0.702516	-0.172795
42798	9.649811	-0.400525	-1.682511	0.008262	0.000133	0.000780	-0.150076	-0.094610	0.984137	-0.707731	0.705342	-0.040118	-0.690358	-0.702525	-0.172813
42799	9.649817	-0.400483	-1.682482	0.006965	-0.000177	-0.004289	-0.150085	-0.094632	0.984134	-0.707735	0.705338	-0.040109	-0.690352	-0.702526	-0.172835
42800	9.665831	-0.386846	-1.738422	0.005755	0.002414	-0.004939	-0.150071	-0.094641	0.984135	-0.707731	0.705344	-0.040092	-0.690359	-0.702519	-0.172832
42801	9.665746	-0.414252	-1.670394	0.006382	0.001844	-0.003509	-0.150071	-0.094642	0.984135	-0.707728	0.705347	-0.040090	-0.690362	-0.702516	-0.172833
42802	9.634113	-0.385198	-1.693642	0.006381	0.001843	-0.003509	-0.150071	-0.094644	0.984135	-0.707726	0.705349	-0.040088	-0.690365	-0.702513	-0.172835
42803	9.664767	-0.417894	-1.724411	0.006381	0.001843	-0.003509	-0.150072	-0.094646	0.984134	-0.707722	0.705353	-0.040086	-0.690368	-0.702510	-0.172836
42804	9.658630	-0.376703	-1.716246	0.005750	0.001639	-0.001234	-0.150089	-0.094634	0.984133	-0.707712	0.705362	-0.040105	-0.690374	-0.702502	-0.172840
42805	9.641477	-0.421577	-1.646645	0.010156	0.000744	-0.006043	-0.150079	-0.094662	0.984132	-0.707741	0.705334	-0.040085	-0.690347	-0.702526	-0.172852
42806	9.658712	-0.376094	-1.715919	0.005754	0.002413	-0.004939	-0.150065	-0.094670	0.984133	-0.707736	0.705340	-0.040068	-0.690355	-0.702520	-0.172849
42807	9.641711	-0.393265	-1.714065	0.007008	0.001273	-0.002079	-0.150078	-0.094666	0.984132	-0.707735	0.705341	-0.040079	-0.690354	-0.702519	-0.172855
42808	9.666211	-0.384980	-1.736724	0.007730	0.005151	-0.003639	-0.150054	-0.094646	0.984137	-0.707742	0.705333	-0.040078	-0.690352	-0.702529	-0.172823
42809	9.673533	-0.421694	-1.689890	0.006381	0.001842	-0.003508	-0.150054	-0.094647	0.984137	-0.707737	0.705338	-0.040076	-0.690356	-0.702524	-0.172825
42810	9.634514	-0.383322	-1.691789	0.005754	0.002412	-0.004938	-0.150041	-0.094656	0.984138	-0.707733	0.705344	-0.040059	-0.690364	-0.702517	-0.172821
42811	9.657813	-0.406686	-1.701084	0.007055	0.003496	-0.003573	-0.150028	-0.094647	0.984141	-0.707734	0.705342	-0.040057	-0.690365	-0.702520	-0.172806
42812	9.634667	-0.382798	-1.691035	0.007729	0.005150	-0.003639	-0.150004	-0.094627	0.984147	-0.707742	0.705335	-0.040055	-0.690363	-0.702530	-0.172775
42813	9.650583	-0.396998	-1.678914	0.005123	0.002208	-0.002663	-0.150008	-0.094621	0.984147	-0.707730	0.705347	-0.040059	-0.690374	-0.702519	-0.172774
42814	9.642159	-0.391897	-1.711858	0.008261	0.000133	0.000783	-0.150050	-0.094605	0.984142	-0.707734	0.705340	-0.040102	-0.690360	-0.702528	-0.172792
42815	9.665417	-0.415376	-1.721373	0.005712	0.000959	-0.007146	-0.150029	-0.094639	0.984142	-0.707730	0.705346	-0.040063	-0.690369	-0.702517	-0.172801
42816	9.636028	-0.350230	-1.703684	0.006381	0.001841	-0.003507	-0.150029	-0.094641	0.984141	-0.707728	0.705348	-0.040060	-0.690371	-0.702514	-0.172803
42817	9.633691	-0.413594	-1.676592	0.007055	0.003495	-0.003573	-0.150018	-0.094633	0.984144	-0.707727	0.705349	-0.040057	-0.690374	-0.702515	-0.172790
42818	9.685924	-0.356910	-1.626838	0.005754	0.002410	-0.004937	-0.150004	-0.094642	0.984145	-0.707723	0.705355	-0.040040	-0.690382	-0.702508	-0.172786
42819	9.607294	-0.429423	-1.761833	0.008313	0.003127	-0.004416	-0.149989	-0.094642	0.984148	-0.707735	0.705343	-0.040032	-0.690373	-0.702520	-0.172775
42820	9.685008	-0.360451	-1.680634	0.008312	0.003127	-0.004416	-0.149973	-0.094641	0.984150	-0.707748	0.705331	-0.040024	-0.690363	-0.702532	-0.172763
42821	9.644762	-0.354006	-1.669230	0.006333	-0.000383	-0.002010	-0.149999	-0.094649	0.984145	-0.707743	0.705335	-0.040037	-0.690363	-0.702527	-0.172787
42822	9.666850	-0.409334	-1.665205	0.005796	0.003861	-0.002728	-0.149991	-0.094632	0.984148	-0.707735	0.705342	-0.040041	-0.690372	-0.702522	-0.172769
42823	9.659673	-0.372217	-1.711345	0.008312	0.003126	-0.004416	-0.149976	-0.094631	0.984150	-0.707747	0.705330	-0.040033	-0.690363	-0.702534	-0.172758
42824	9.641511	-0.421084	-1.695966	0.005754	0.002408	-0.004936	-0.149962	-0.094640	0.984152	-0.707743	0.705336	-0.040016	-0.690370	-0.702527	-0.172754
42825	9.651209	-0.394058	-1.676004	0.008312	0.003126	-0.004415	-0.149947	-0.094640	0.984154	-0.707755	0.705324	-0.040008	-0.690361	-0.702539	-0.172743
42826	9.675711	-0.385752	-1.698677	0.007680	0.002924	-0.002141	-0.149949	-0.094625	0.984155	-0.707760	0.705318	-0.040021	-0.690356	-0.702547	-0.172734
42827	9.625849	-0.406013	-1.706861	0.007638	0.001471	-0.004349	-0.149946	-0.094636	0.984155	-0.707768	0.705311	-0.040013	-0.690349	-0.702553	-0.172739
42828	9.658793	-0.402646	-1.696472	0.006427	0.004061	-0.005002	-0.149920	-0.094633	0.984159	-0.707768	0.705312	-0.039996	-0.690354	-0.702552	-0.172719
42829	9.658862	-0.402374	-1.696146	0.005122	0.002206	-0.002662	-0.149924	-0.094627	0.984159	-0.707756	0.705324	-0.040000	-0.690366	-0.702541	-0.172718
42830	9.652679	-0.361173	-1.688061	0.007006	0.001270	-0.002075	-0.149938	-0.094623	0.984157	-0.707755	0.705324	-0.040013	-0.690363	-0.702542	-0.172725
42831	9.624860	-0.436884	-1.692532	0.006965	-0.000183	-0.004282	-0.149946	-0.094646	0.984154	-0.707758	0.705321	-0.040004	-0.690358	-0.702541	-0.172746
42832	9.633502	-0.414015	-1.727121	0.003868	0.003342	-0.005523	-0.149922	-0.094652	0.984157	-0.707742	0.705339	-0.039978	-0.690381	-0.702522	-0.172735
42833	9.643183	-0.386931	-1.707212	0.007638	0.001470	-0.004348	-0.149919	-0.094663	0.984156	-0.707749	0.705332	-0.039969	-0.690373	-0.702528	-0.172740
42834	9.623841	-0.467543	-1.678457	0.007011	0.002038	-0.005778	-0.149901	-0.094680	0.984157	-0.707755	0.705328	-0.039946	-0.690372	-0.702530	-0.172739
42835	9.665389	-0.441547	-1.702796	0.017833	0.003658	-0.008173	-0.149856	-0.094702	0.984162	-0.707838	0.705246	-0.039918	-0.690296	-0.702609	-0.172719
42836	9.621793	-0.502643	-1.718807	0.032337	-0.000271	-0.010102	-0.149824	-0.094766	0.984161	-0.708025	0.705059	-0.039895	-0.690111	-0.702788	-0.172731
42837	9.654742	-0.499523	-1.708316	0.057198	0.003798	-0.007023	-0.149785	-0.094779	0.984165	-0.708379	0.704701	-0.039946	-0.689756	-0.703145	-0.172694
42838	9.629366	-0.512305	-1.739143	0.083143	0.000902	-0.009899	-0.149747	-0.094833	0.984166	-0.708915	0.704158	-0.040014	-0.689213	-0.703682	-0.172674
42839	9.648647	-0.459529	-1.699351	0.107280	0.001834	-0.008938	-0.149708	-0.094874	0.984168	-0.709616	0.703445	-0.040132	-0.688500	-0.704389	-0.172636
42840	9.642598	-0.392276	-1.758965	0.119292	0.000052	-0.006937	-0.149696	-0.094913	0.984166	-0.710396	0.702648	-0.040291	-0.687698	-0.705179	-0.172610
42841	9.650934	-0.426122	-1.657189	0.142830	0.002969	-0.005176	-0.149677	-0.094919	0.984168	-0.711334	0.701686	-0.040508	-0.686732	-0.706135	-0.172546
42842	9.648962	-0.437340	-1.765101	0.163713	0.001466	-0.004618	-0.149672	-0.094932	0.984168	-0.712413	0.700576	-0.040766	-0.685614	-0.707235	-0.172487
42843	9.665860	-0.449597	-1.698008	0.179517	-0.000034	-0.002883	-0.149689	-0.094944	0.984164	-0.713595	0.699353	-0.041069	-0.684379	-0.708442	-0.172437
42844	9.634178	-0.424205	-1.720862	0.192885	0.002871	0.001243	-0.149716	-0.094905	0.984164	-0.714861	0.698038	-0.041435	-0.683051	-0.709744	-0.172352
42845	9.662595	-0.524484	-1.722494	0.210642	0.004063	0.004306	-0.149757	-0.094838	0.984164	-0.716241	0.696597	-0.041861	-0.681595	-0.711167	-0.172247
42846	9.611012	-0.408436	-1.709049	0.222695	0.005832	0.007104	-0.149806	-0.094738	0.984166	-0.717695	0.695069	-0.042336	-0.680053	-0.712674	-0.172118
42847	9.652388	-0.414456	-1.664251	0.251818	0.006484	0.007088	-0.149851	-0.094633	0.984169	-0.719344	0.693330	-0.042860	-0.678298	-0.714379	-0.171970
42848	9.655960	-0.325183	-1.704778	0.276435	0.004359	0.011214	-0.149940	-0.094516	0.984167	-0.721149	0.691415	-0.043467	-0.676360	-0.716249	-0.171831
42849	9.641145	-0.311677	-1.661230	0.283968	0.004040	0.014483	-0.150055	-0.094378	0.984163	-0.722994	0.689444	-0.044119	-0.674361	-0.718164	-0.171689
42850	9.647408	-0.359307	-1.666733	0.307976	0.004587	0.015724	-0.150176	-0.094229	0.984159	-0.724994	0.687295	-0.044823	-0.672184	-0.720240	-0.171530
42851	9.622953	-0.373783	-1.642019	0.321796	0.003020	0.020799	-0.150344	-0.094056	0.984149	-0.727072	0.685045	-0.045601	-0.669898	-0.722403	-0.171378
42852	9.657577	-0.494007	-1.716902	0.330499	-0.000694	0.028563	-0.150595	-0.093857	0.984130	-0.729189	0.682733	-0.046470	-0.667537	-0.724615	-0.171256
42853	9.652110	-0.257338	-1.720447	0.350838	0.007464	0.027801	-0.150786	-0.093605	0.984125	-0.731434	0.680265	-0.047365	-0.665032	-0.726965	-0.171041
42854	9.665856	-0.515390	-1.679236	0.375311	0.003544	0.030010	-0.151020	-0.093368	0.984111	-0.733830	0.677612	-0.048324	-0.662334	-0.729468	-0.170849
42855	9.633102	-0.503681	-1.755849	0.373959	0.004322	0.037046	-0.151302	-0.093078	0.984096	-0.736196	0.674967	-0.049348	-0.659639	-0.731954	-0.170647
42856	9.649313	-0.676032	-1.810414	0.383480	0.010899	0.038675	-0.151553	-0.092730	0.984090	-0.738612	0.672243	-0.050404	-0.656874	-0.734500	-0.170372
42857	9.619462	-0.472916	-1.723474	0.388427	0.011151	0.043798	-0.151842	-0.092346	0.984081	-0.741043	0.669479	-0.051518	-0.654064	-0.737069	-0.170088
42858	9.679320	-0.411779	-1.764259	0.401541	0.009894	0.047654	-0.152169	-0.091948	0.984068	-0.743542	0.666611	-0.052691	-0.651146	-0.739713	-0.169805
42859	9.680000	-0.267669	-1.639614	0.432357	0.009683	0.054700	-0.152552	-0.091505	0.984050	-0.746218	0.663510	-0.053984	-0.647987	-0.742551	-0.169502
42860	9.637434	-0.311591	-1.665378	0.449233	0.009212	0.054669	-0.152939	-0.091067	0.984031	-0.748989	0.660270	-0.055304	-0.644690	-0.745486	-0.169190
42861	9.671360	-0.463018	-1.665769	0.458487	0.006854	0.062696	-0.153404	-0.090596	0.984002	-0.751793	0.656956	-0.056717	-0.641307	-0.748466	-0.168889
42862	9.624564	-0.600506	-1.643364	0.452736	0.010627	0.063382	-0.153851	-0.090094	0.983978	-0.754543	0.653672	-0.058127	-0.637962	-0.751396	-0.168548
42863	9.647995	-0.316225	-1.586642	0.462695	0.011420	0.073494	-0.154372	-0.089523	0.983949	-0.757325	0.650308	-0.059650	-0.634530	-0.754377	-0.168187
42864	9.688050	-0.488932	-1.658872	0.494146	0.015283	0.075408	-0.154886	-0.088912	0.983923	-0.760287	0.646694	-0.061244	-0.630852	-0.757550	-0.167762
