// General information: 
//  MT Manager version: 2019.2.0 
//  XDA version: 2019.2.0 build 3853 rev 94535 built on 2019-09-09
// Device information: 
//  DeviceId: 00B43F80
//  ProductCode: MTW2-3A7G6
//  Firmware Version: 4.3.5
//  Hardware Version: 1.1.0
// Device settings: 
//  Filter Profile: human(46.1)
//  Option Flags: Orientation Smoother Disabled, AHS Disabled, ICC Disabled
// Coordinate system: ENU
PacketCounter	Acc_X	Acc_Y	Acc_Z	Gyr_X	Gyr_Y	Gyr_Z	Mat[1][1]	Mat[2][1]	Mat[3][1]	Mat[1][2]	Mat[2][2]	Mat[3][2]	Mat[1][3]	Mat[2][3]	Mat[3][3]
28840	9.522747	-0.466123	2.206621	0.003688	-0.000214	0.006154	0.225148	0.048874	0.973098	-0.017842	0.998780	-0.046036	-0.974161	-0.006997	0.225746
28841	9.532972	-0.434199	2.200312	0.003444	-0.001482	0.005056	0.225143	0.048867	0.973100	-0.017837	0.998781	-0.046030	-0.974162	-0.006994	0.225740
28842	9.532975	-0.434559	2.200228	0.006312	-0.000736	0.004755	0.225144	0.048859	0.973100	-0.017862	0.998781	-0.046015	-0.974162	-0.007022	0.225742
28843	9.527971	-0.464481	2.230077	0.000819	-0.000959	0.006455	0.225145	0.048866	0.973099	-0.017839	0.998781	-0.046029	-0.974162	-0.006996	0.225742
28844	9.538664	-0.460299	2.176711	0.003687	-0.000213	0.006155	0.225151	0.048872	0.973097	-0.017843	0.998781	-0.046034	-0.974161	-0.006998	0.225748
28845	9.543878	-0.457893	2.200375	0.003687	-0.000213	0.006155	0.225156	0.048877	0.973096	-0.017830	0.998780	-0.046041	-0.974160	-0.006984	0.225753
28846	9.500764	-0.425359	2.205893	0.003930	0.001055	0.007254	0.225174	0.048893	0.973091	-0.017839	0.998780	-0.046056	-0.974155	-0.006988	0.225771
28847	9.511685	-0.447685	2.206152	0.003443	-0.001482	0.005057	0.225164	0.048890	0.973093	-0.017845	0.998780	-0.046052	-0.974157	-0.006995	0.225762
28848	9.543808	-0.459412	2.200364	0.003686	-0.000213	0.006155	0.225170	0.048896	0.973092	-0.017848	0.998779	-0.046057	-0.974156	-0.006997	0.225767
28849	9.527841	-0.467521	2.230000	0.001802	-0.000468	0.005044	0.225168	0.048890	0.973093	-0.017824	0.998780	-0.046056	-0.974157	-0.006974	0.225765
28850	9.527828	-0.467961	2.229964	0.001802	-0.000468	0.005045	0.225171	0.048885	0.973092	-0.017806	0.998780	-0.046055	-0.974157	-0.006957	0.225767
28851	9.500682	-0.427716	2.205789	0.002045	0.000800	0.006143	0.225187	0.048890	0.973088	-0.017794	0.998780	-0.046063	-0.974153	-0.006942	0.225783
28852	9.532812	-0.439355	2.199982	0.007708	-0.003018	0.003671	0.225166	0.048871	0.973094	-0.017831	0.998781	-0.046035	-0.974157	-0.006986	0.225763
28853	9.549002	-0.458608	2.223788	0.003685	-0.000212	0.006156	0.225168	0.048877	0.973093	-0.017833	0.998780	-0.046041	-0.974157	-0.006987	0.225765
28854	9.527158	-0.415311	2.223063	0.002955	-0.004018	0.002860	0.225137	0.048850	0.973102	-0.017822	0.998782	-0.046015	-0.974164	-0.006983	0.225733
28855	9.522588	-0.473021	2.205840	-0.001321	0.002104	0.010053	0.225162	0.048896	0.973094	-0.017787	0.998780	-0.046071	-0.974159	-0.006935	0.225757
28856	9.511161	-0.424149	2.252693	0.004425	-0.000992	0.003646	0.225160	0.048877	0.973095	-0.017792	0.998781	-0.046050	-0.974159	-0.006944	0.225755
28857	9.538519	-0.466374	2.176056	0.002214	-0.003239	0.005371	0.225135	0.048875	0.973101	-0.017784	0.998781	-0.046051	-0.974165	-0.006938	0.225730
28858	9.538112	-0.439127	2.222860	0.005082	-0.002494	0.005070	0.225119	0.048870	0.973105	-0.017799	0.998781	-0.046042	-0.974169	-0.006955	0.225714
28859	9.516930	-0.450069	2.228728	0.001801	-0.000467	0.005045	0.225127	0.048868	0.973103	-0.017779	0.998781	-0.046044	-0.974167	-0.006936	0.225721
28860	9.532875	-0.442986	2.198978	0.004341	-0.001714	0.007581	0.225117	0.048888	0.973104	-0.017793	0.998780	-0.046061	-0.974169	-0.006945	0.225713
28861	9.532866	-0.443553	2.198904	0.003684	-0.000212	0.006157	0.225121	0.048892	0.973103	-0.017795	0.998780	-0.046065	-0.974168	-0.006946	0.225716
28862	9.516910	-0.451620	2.228500	0.003441	-0.001480	0.005058	0.225114	0.048887	0.973105	-0.017794	0.998780	-0.046060	-0.974170	-0.006946	0.225710
28863	9.511678	-0.454835	2.204719	0.002540	-0.001247	0.002536	0.225107	0.048857	0.973108	-0.017785	0.998782	-0.046032	-0.974172	-0.006944	0.225702
28864	9.538098	-0.441780	2.222392	0.003927	0.001058	0.007256	0.225125	0.048874	0.973103	-0.017793	0.998781	-0.046048	-0.974167	-0.006948	0.225720
28865	9.532825	-0.445239	2.198740	0.005324	-0.001225	0.006170	0.225120	0.048877	0.973104	-0.017811	0.998781	-0.046046	-0.974168	-0.006966	0.225716
28866	9.538078	-0.442833	2.222270	0.002456	-0.001968	0.006471	0.225109	0.048886	0.973106	-0.017803	0.998780	-0.046057	-0.974171	-0.006956	0.225705
28867	9.538088	-0.443240	2.222144	0.004424	-0.000991	0.003647	0.225108	0.048865	0.973108	-0.017792	0.998781	-0.046038	-0.974171	-0.006950	0.225703
28868	9.484803	-0.442808	2.233680	0.002212	-0.003237	0.005373	0.225084	0.048863	0.973113	-0.017779	0.998781	-0.046039	-0.974177	-0.006938	0.225679
28869	9.581159	-0.477230	2.216359	0.003683	-0.000211	0.006158	0.225089	0.048869	0.973112	-0.017772	0.998781	-0.046047	-0.974176	-0.006929	0.225684
28870	9.495092	-0.411385	2.227186	0.003439	-0.001480	0.005059	0.225083	0.048864	0.973114	-0.017770	0.998781	-0.046042	-0.974178	-0.006929	0.225677
28871	9.532884	-0.447868	2.197952	0.003439	-0.001479	0.005060	0.225075	0.048856	0.973116	-0.017772	0.998782	-0.046034	-0.974179	-0.006933	0.225669
28872	9.500765	-0.437005	2.203610	0.003683	-0.000210	0.006158	0.225081	0.048862	0.973114	-0.017776	0.998781	-0.046040	-0.974178	-0.006935	0.225675
28873	9.527196	-0.424222	2.221216	0.001714	-0.001186	0.008982	0.225073	0.048897	0.973114	-0.017768	0.998780	-0.046077	-0.974180	-0.006920	0.225667
28874	9.511639	-0.460163	2.203782	0.003682	-0.000210	0.006159	0.225078	0.048903	0.973113	-0.017772	0.998780	-0.046083	-0.974179	-0.006922	0.225673
28875	9.553608	-0.411949	2.238815	0.003682	-0.000210	0.006159	0.225085	0.048909	0.973111	-0.017773	0.998779	-0.046088	-0.974177	-0.006921	0.225680
28876	9.517275	-0.485795	2.180315	0.006062	-0.002005	0.003661	0.225074	0.048890	0.973114	-0.017794	0.998780	-0.046064	-0.974179	-0.006948	0.225669
28877	9.505352	-0.382427	2.220421	0.003682	-0.000210	0.006159	0.225079	0.048896	0.973113	-0.017789	0.998780	-0.046071	-0.974178	-0.006942	0.225674
28878	9.554226	-0.467473	2.245100	0.001469	-0.002454	0.007885	0.225062	0.048919	0.973116	-0.017775	0.998779	-0.046098	-0.974182	-0.006922	0.225657
28879	9.505950	-0.437668	2.226840	0.002127	0.001525	0.002210	0.225084	0.048885	0.973112	-0.017762	0.998780	-0.046066	-0.974177	-0.006915	0.225678
28880	9.505947	-0.438012	2.226785	0.004093	-0.002980	0.006486	0.225062	0.048894	0.973117	-0.017770	0.998780	-0.046074	-0.974182	-0.006923	0.225657
28881	9.522501	-0.485175	2.203575	0.005564	0.000046	0.007271	0.225072	0.048910	0.973114	-0.017791	0.998779	-0.046085	-0.974180	-0.006940	0.225668
28882	9.543083	-0.420909	2.191011	0.002782	0.000023	0.003636	0.225081	0.048890	0.973113	-0.017780	0.998780	-0.046068	-0.974178	-0.006933	0.225675
28883	9.548899	-0.472582	2.221303	0.002041	0.000805	0.006146	0.225094	0.048895	0.973110	-0.017755	0.998780	-0.046078	-0.974175	-0.006906	0.225687
28884	9.473796	-0.428487	2.232350	0.006715	-0.003506	0.005088	0.225067	0.048890	0.973116	-0.017786	0.998780	-0.046066	-0.974181	-0.006940	0.225662
28885	9.564877	-0.465922	2.191329	0.000813	-0.000951	0.006461	0.225065	0.048899	0.973116	-0.017749	0.998780	-0.046084	-0.974182	-0.006900	0.225658
28886	9.521846	-0.433331	2.196778	0.003924	0.001061	0.007259	0.225082	0.048916	0.973111	-0.017758	0.998779	-0.046099	-0.974178	-0.006904	0.225676
28887	9.537975	-0.452640	2.220734	0.002538	-0.001246	0.002538	0.225077	0.048886	0.973114	-0.017744	0.998781	-0.046071	-0.974179	-0.006897	0.225670
28888	9.548850	-0.474961	2.221004	0.002939	0.000574	0.008671	0.225090	0.048917	0.973109	-0.017746	0.998779	-0.046103	-0.974176	-0.006891	0.225683
28889	9.559145	-0.443205	2.214674	0.003436	-0.001478	0.005062	0.225084	0.048910	0.973111	-0.017730	0.998780	-0.046099	-0.974178	-0.006877	0.225676
28890	9.521782	-0.435162	2.196695	0.004664	0.000279	0.004748	0.225094	0.048902	0.973109	-0.017740	0.998780	-0.046088	-0.974175	-0.006889	0.225687
28891	9.511074	-0.440160	2.249988	0.003435	-0.001478	0.005062	0.225088	0.048897	0.973111	-0.017737	0.998780	-0.046084	-0.974177	-0.006887	0.225681
28892	9.553875	-0.447262	2.190851	0.006303	-0.000735	0.004762	0.225089	0.048889	0.973111	-0.017763	0.998780	-0.046070	-0.974176	-0.006915	0.225683
28893	9.521763	-0.436312	2.196548	0.003679	-0.000208	0.006161	0.225092	0.048898	0.973110	-0.017770	0.998780	-0.046078	-0.974175	-0.006920	0.225686
28894	9.511424	-0.469059	2.202834	0.006302	-0.000735	0.004762	0.225093	0.048890	0.973110	-0.017795	0.998780	-0.046063	-0.974175	-0.006948	0.225688
28895	9.559078	-0.445388	2.214523	0.002127	0.001525	0.002210	0.225115	0.048855	0.973107	-0.017777	0.998782	-0.046031	-0.974170	-0.006937	0.225709
28896	9.505748	-0.444823	2.226286	0.005317	-0.001222	0.006175	0.225111	0.048861	0.973107	-0.017796	0.998781	-0.046033	-0.974171	-0.006955	0.225706
28897	9.527319	-0.462560	2.173202	0.003678	-0.000207	0.006162	0.225114	0.048867	0.973106	-0.017808	0.998781	-0.046037	-0.974170	-0.006965	0.225710
28898	9.526943	-0.435283	2.220158	0.003434	-0.001477	0.005064	0.225108	0.048862	0.973108	-0.017806	0.998781	-0.046032	-0.974171	-0.006965	0.225704
28899	9.511375	-0.470946	2.202645	0.005072	-0.002491	0.005078	0.225094	0.048856	0.973111	-0.017820	0.998781	-0.046023	-0.974174	-0.006981	0.225690
28900	9.521716	-0.438942	2.196228	0.002780	0.000024	0.003637	0.225102	0.048837	0.973111	-0.017809	0.998782	-0.046006	-0.974172	-0.006974	0.225698
28901	9.521876	-0.465783	2.249870	0.003678	-0.000206	0.006162	0.225105	0.048842	0.973110	-0.017806	0.998782	-0.046012	-0.974172	-0.006969	0.225700
28902	9.543062	-0.455797	2.243878	0.000157	0.000553	0.005036	0.225118	0.048837	0.973107	-0.017772	0.998783	-0.046014	-0.974169	-0.006936	0.225712
28903	9.537794	-0.459072	2.220192	0.002536	-0.001245	0.002539	0.225113	0.048808	0.973109	-0.017756	0.998784	-0.045988	-0.974171	-0.006926	0.225706
28904	9.511338	-0.472801	2.202408	0.006954	-0.002235	0.006191	0.225099	0.048814	0.973112	-0.017791	0.998784	-0.045986	-0.974173	-0.006961	0.225694
28905	9.521724	-0.440904	2.195802	0.003842	-0.004247	0.005393	0.225065	0.048813	0.973120	-0.017796	0.998784	-0.045984	-0.974181	-0.006968	0.225660
28906	9.511413	-0.473604	2.201913	0.006300	-0.000734	0.004764	0.225065	0.048805	0.973121	-0.017822	0.998784	-0.045970	-0.974181	-0.006996	0.225661
28907	9.553837	-0.453042	2.189831	0.001795	-0.000461	0.005051	0.225073	0.048799	0.973119	-0.017801	0.998784	-0.045969	-0.974179	-0.006976	0.225668
28908	9.505779	-0.449618	2.225192	0.001795	-0.000461	0.005051	0.225076	0.048794	0.973119	-0.017784	0.998785	-0.045968	-0.974179	-0.006960	0.225670
28909	9.548230	-0.429056	2.213005	0.003188	-0.002746	0.003967	0.225052	0.048777	0.973125	-0.017781	0.998785	-0.045951	-0.974184	-0.006962	0.225646
28910	9.516515	-0.445775	2.171527	0.003432	-0.001476	0.005065	0.225046	0.048771	0.973127	-0.017780	0.998786	-0.045946	-0.974186	-0.006962	0.225640
28911	9.553503	-0.426752	2.236490	0.002126	0.001526	0.002211	0.225067	0.048738	0.973124	-0.017755	0.998787	-0.045916	-0.974182	-0.006943	0.225659
28912	9.532604	-0.465479	2.195503	0.005226	-0.001936	0.010116	0.225055	0.048783	0.973124	-0.017782	0.998785	-0.045957	-0.974184	-0.006962	0.225649
28913	9.510848	-0.422453	2.194850	0.002038	0.000810	0.006149	0.225069	0.048789	0.973120	-0.017767	0.998785	-0.045967	-0.974181	-0.006944	0.225663
28914	9.553781	-0.456189	2.189422	0.003432	-0.001475	0.005066	0.225063	0.048784	0.973122	-0.017766	0.998785	-0.045962	-0.974182	-0.006944	0.225656
28915	9.500494	-0.455559	2.201020	0.006054	-0.002004	0.003667	0.225050	0.048765	0.973126	-0.017781	0.998786	-0.045938	-0.974185	-0.006965	0.225644
28916	9.510841	-0.423726	2.194636	0.002935	0.000580	0.008675	0.225063	0.048796	0.973122	-0.017783	0.998785	-0.045970	-0.974182	-0.006959	0.225657
28917	9.532529	-0.467975	2.195299	0.002779	0.000025	0.003638	0.225071	0.048776	0.973121	-0.017776	0.998786	-0.045951	-0.974180	-0.006956	0.225665
28918	9.548160	-0.433097	2.212520	0.000564	-0.002216	0.005367	0.225057	0.048774	0.973124	-0.017747	0.998786	-0.045956	-0.974184	-0.006927	0.225650
28919	9.526917	-0.443948	2.218553	0.005890	0.002037	0.004436	0.225087	0.048764	0.973118	-0.017775	0.998786	-0.045939	-0.974177	-0.006957	0.225680
28920	9.531978	-0.415060	2.188639	0.002690	-0.000689	0.007578	0.225087	0.048784	0.973117	-0.017772	0.998785	-0.045960	-0.974177	-0.006949	0.225681
28921	9.548572	-0.488708	2.219219	0.001793	-0.000460	0.005052	0.225086	0.048778	0.973117	-0.017760	0.998786	-0.045957	-0.974177	-0.006938	0.225679
28922	9.521282	-0.420564	2.241808	0.005067	-0.002490	0.005081	0.225070	0.048773	0.973121	-0.017774	0.998786	-0.045948	-0.974181	-0.006955	0.225663
28923	9.521628	-0.448805	2.194616	0.002445	-0.001959	0.006480	0.225058	0.048783	0.973123	-0.017762	0.998785	-0.045962	-0.974183	-0.006940	0.225652
28924	9.526877	-0.446325	2.218252	0.003022	0.001296	0.004737	0.225079	0.048775	0.973119	-0.017756	0.998786	-0.045955	-0.974179	-0.006935	0.225672
28925	9.526881	-0.446717	2.218155	0.000318	-0.003485	0.004269	0.225052	0.048761	0.973126	-0.017717	0.998787	-0.045949	-0.974186	-0.006900	0.225643
28926	9.526879	-0.447329	2.218041	0.004815	0.000837	0.009790	0.225067	0.048803	0.973120	-0.017739	0.998785	-0.045987	-0.974182	-0.006912	0.225659
28927	9.494780	-0.436409	2.223753	0.002533	-0.001245	0.002541	0.225065	0.048773	0.973122	-0.017719	0.998786	-0.045961	-0.974183	-0.006898	0.225656
28928	9.553660	-0.462565	2.188613	0.003674	-0.000203	0.006166	0.225070	0.048779	0.973121	-0.017722	0.998786	-0.045967	-0.974181	-0.006900	0.225661
28929	9.531960	-0.419283	2.187913	0.003429	-0.001474	0.005068	0.225059	0.048774	0.973124	-0.017717	0.998786	-0.045963	-0.974184	-0.006896	0.225650
28930	9.532124	-0.446087	2.241448	0.003429	-0.001474	0.005068	0.225052	0.048769	0.973125	-0.017715	0.998786	-0.045958	-0.974186	-0.006896	0.225643
28931	9.505453	-0.433672	2.170137	0.002932	0.000583	0.008678	0.225069	0.048799	0.973120	-0.017719	0.998785	-0.045988	-0.974182	-0.006892	0.225661
28932	9.542466	-0.414979	2.235054	0.005310	-0.001218	0.006181	0.225065	0.048805	0.973121	-0.017738	0.998784	-0.045990	-0.974182	-0.006911	0.225657
28933	9.537644	-0.472652	2.217985	0.000806	-0.000943	0.006467	0.225067	0.048815	0.973120	-0.017714	0.998784	-0.046005	-0.974182	-0.006884	0.225658
28934	9.537187	-0.419040	2.211235	0.007190	-0.000963	0.007294	0.225065	0.048832	0.973119	-0.017755	0.998783	-0.046014	-0.974182	-0.006921	0.225658
28935	9.532337	-0.476686	2.194257	0.000154	0.000558	0.005039	0.225074	0.048828	0.973117	-0.017729	0.998783	-0.046015	-0.974180	-0.006895	0.225666
28936	9.515916	-0.430451	2.217247	0.005309	-0.001218	0.006182	0.225069	0.048834	0.973118	-0.017748	0.998783	-0.046017	-0.974181	-0.006914	0.225662
28937	9.500241	-0.466171	2.199889	0.001791	-0.000458	0.005054	0.225074	0.048829	0.973117	-0.017730	0.998783	-0.046016	-0.974180	-0.006897	0.225666
28938	9.515938	-0.431264	2.216996	0.004819	-0.003760	0.003986	0.225046	0.048813	0.973125	-0.017740	0.998784	-0.045998	-0.974187	-0.006912	0.225638
28939	9.548032	-0.443072	2.211096	0.001791	-0.000457	0.005054	0.225050	0.048809	0.973124	-0.017727	0.998784	-0.045996	-0.974186	-0.006899	0.225642
28940	9.521511	-0.456823	2.193471	0.002776	0.000027	0.003640	0.225058	0.048790	0.973123	-0.017716	0.998785	-0.045979	-0.974184	-0.006892	0.225649
28941	9.542755	-0.446807	2.187307	0.004077	-0.002973	0.006498	0.225040	0.048798	0.973127	-0.017725	0.998785	-0.045986	-0.974188	-0.006900	0.225631
28942	9.553299	-0.441497	2.234498	0.001049	0.000330	0.007566	0.225050	0.048818	0.973123	-0.017706	0.998784	-0.046011	-0.974186	-0.006876	0.225641
28943	9.515971	-0.433409	2.216434	0.005804	-0.003276	0.002573	0.225024	0.048787	0.973131	-0.017710	0.998785	-0.045978	-0.974192	-0.006888	0.225614
28944	9.521538	-0.458595	2.192980	0.005552	0.000054	0.007281	0.225031	0.048805	0.973128	-0.017734	0.998784	-0.045990	-0.974190	-0.006908	0.225623
28945	9.542752	-0.448685	2.186936	0.001790	-0.000457	0.005055	0.225036	0.048799	0.973128	-0.017715	0.998785	-0.045989	-0.974189	-0.006890	0.225627
28946	9.473473	-0.455641	2.228342	0.002685	-0.000685	0.007582	0.225036	0.048819	0.973127	-0.017712	0.998784	-0.046010	-0.974189	-0.006882	0.225627
28947	9.510667	-0.438231	2.192541	0.004412	-0.000989	0.003656	0.225033	0.048799	0.973128	-0.017722	0.998785	-0.045987	-0.974190	-0.006898	0.225624
28948	9.542834	-0.476333	2.240579	0.005887	0.002037	0.004438	0.225061	0.048787	0.973123	-0.017743	0.998785	-0.045970	-0.974183	-0.006920	0.225653
28949	9.531878	-0.428593	2.186465	-0.001659	-0.004449	0.007101	0.225024	0.048802	0.973130	-0.017687	0.998785	-0.045999	-0.974193	-0.006861	0.225614
28950	9.521518	-0.461146	2.192532	0.007774	-0.002309	-0.000255	0.225010	0.048744	0.973136	-0.017716	0.998787	-0.045933	-0.974195	-0.006905	0.225601
28951	9.537195	-0.426282	2.209813	-0.001329	0.002136	0.010064	0.225037	0.048788	0.973128	-0.017682	0.998786	-0.045986	-0.974190	-0.006859	0.225626
28952	9.526749	-0.459223	2.216165	0.003180	-0.002743	0.003973	0.225018	0.048772	0.973133	-0.017676	0.998786	-0.045971	-0.974194	-0.006857	0.225607
28953	9.515958	-0.437696	2.215647	0.003425	-0.001472	0.005071	0.225010	0.048767	0.973135	-0.017675	0.998787	-0.045965	-0.974196	-0.006858	0.225599
28954	9.532048	-0.457147	2.239542	0.002683	-0.000684	0.007583	0.225010	0.048787	0.973134	-0.017672	0.998786	-0.045987	-0.974196	-0.006850	0.225599
28955	9.542712	-0.453265	2.186165	0.003669	-0.000200	0.006169	0.225014	0.048794	0.973133	-0.017669	0.998785	-0.045994	-0.974195	-0.006845	0.225603
28956	9.526750	-0.461282	2.215733	-0.000429	-0.002693	0.006786	0.224996	0.048806	0.973137	-0.017634	0.998785	-0.046015	-0.974200	-0.006807	0.225583
28957	9.515962	-0.439674	2.215238	0.008018	-0.001039	0.000844	0.224994	0.048757	0.973139	-0.017662	0.998787	-0.045959	-0.974200	-0.006847	0.225583
28958	9.548010	-0.451618	2.209460	-0.000925	-0.000632	0.010397	0.224995	0.048806	0.973137	-0.017630	0.998785	-0.046016	-0.974200	-0.006803	0.225582
28959	9.542743	-0.455154	2.185635	0.005800	-0.003276	0.002575	0.224972	0.048777	0.973144	-0.017654	0.998786	-0.045981	-0.974205	-0.006835	0.225560
28960	9.494485	-0.423698	2.267904	0.002928	0.000589	0.008682	0.224984	0.048808	0.973139	-0.017655	0.998785	-0.046012	-0.974202	-0.006829	0.225573
28961	9.542714	-0.456199	2.185543	0.001788	-0.000455	0.005056	0.224984	0.048804	0.973139	-0.017636	0.998785	-0.046013	-0.974203	-0.006810	0.225572
28962	9.505121	-0.420317	2.214550	0.003668	-0.000200	0.006170	0.224990	0.048810	0.973138	-0.017639	0.998785	-0.046019	-0.974201	-0.006811	0.225578
28963	9.542691	-0.457213	2.185436	0.002436	-0.001954	0.006487	0.224981	0.048819	0.973139	-0.017628	0.998785	-0.046030	-0.974204	-0.006798	0.225568
28964	9.494694	-0.453445	2.220707	0.007031	-0.001522	0.002259	0.224975	0.048786	0.973143	-0.017655	0.998786	-0.045990	-0.974205	-0.006834	0.225563
28965	9.542483	-0.429908	2.232160	-0.000093	-0.000710	0.003943	0.225098	0.048884	0.973109	-0.017638	0.998781	-0.046093	-0.974176	-0.006788	0.225686
28966	9.553545	-0.479998	2.185355	0.006692	-0.003504	0.005104	0.225072	0.048879	0.973115	-0.017669	0.998781	-0.046082	-0.974182	-0.006822	0.225661
28967	9.505186	-0.422254	2.213904	0.001046	0.000335	0.007569	0.225082	0.048898	0.973112	-0.017651	0.998781	-0.046105	-0.974180	-0.006799	0.225671
28968	9.542720	-0.459119	2.184908	0.002774	0.000028	0.003642	0.225090	0.048879	0.973111	-0.017640	0.998782	-0.046088	-0.974178	-0.006792	0.225678
28969	9.521123	-0.415758	2.184145	0.002435	-0.001953	0.006487	0.225080	0.048888	0.973113	-0.017633	0.998781	-0.046099	-0.974181	-0.006783	0.225668
28970	9.521455	-0.470421	2.190837	0.006534	0.000538	0.005870	0.225093	0.048891	0.973110	-0.017664	0.998781	-0.046095	-0.974177	-0.006813	0.225683
28971	9.499838	-0.427060	2.190173	0.001787	-0.000454	0.005057	0.225097	0.048885	0.973109	-0.017646	0.998781	-0.046093	-0.974177	-0.006796	0.225685
28972	9.526741	-0.468310	2.214298	0.003824	-0.004241	0.005406	0.225063	0.048884	0.973117	-0.017650	0.998781	-0.046091	-0.974184	-0.006802	0.225652
28973	9.526762	-0.468511	2.214164	0.004747	0.000992	0.000813	0.225082	0.048836	0.973115	-0.017649	0.998784	-0.046042	-0.974180	-0.006811	0.225670
28974	9.531948	-0.439370	2.184019	0.006690	-0.003503	0.005106	0.225056	0.048831	0.973121	-0.017679	0.998784	-0.046030	-0.974185	-0.006845	0.225645
28975	9.532096	-0.466327	2.237446	0.002341	-0.002660	0.010432	0.225036	0.048879	0.973124	-0.017677	0.998781	-0.046079	-0.974190	-0.006833	0.225626
28976	9.526476	-0.415671	2.206957	0.003760	0.000510	0.002228	0.225049	0.048845	0.973122	-0.017673	0.998783	-0.046046	-0.974187	-0.006835	0.225639
28977	9.531960	-0.440835	2.183671	0.001786	-0.000453	0.005058	0.225052	0.048840	0.973122	-0.017647	0.998783	-0.046047	-0.974187	-0.006810	0.225640
28978	9.537359	-0.464591	2.260941	0.003421	-0.001470	0.005074	0.225046	0.048835	0.973124	-0.017645	0.998784	-0.046042	-0.974188	-0.006810	0.225634
28979	9.526471	-0.416790	2.206764	0.003420	-0.001469	0.005074	0.225032	0.048829	0.973127	-0.017638	0.998784	-0.046038	-0.974192	-0.006804	0.225619
28980	9.542751	-0.463918	2.183760	0.002773	0.000029	0.003643	0.225040	0.048810	0.973126	-0.017627	0.998785	-0.046021	-0.974190	-0.006797	0.225627
28981	9.532054	-0.468721	2.237123	0.003666	-0.000197	0.006172	0.225041	0.048816	0.973126	-0.017634	0.998785	-0.046025	-0.974190	-0.006803	0.225628
28982	9.505169	-0.428660	2.212743	-0.000929	-0.000625	0.010401	0.225042	0.048864	0.973123	-0.017602	0.998783	-0.046082	-0.974190	-0.006759	0.225628
28983	9.521216	-0.448195	2.236729	0.009153	0.000004	0.004473	0.225049	0.048853	0.973122	-0.017656	0.998783	-0.046058	-0.974187	-0.006816	0.225638
28984	9.542666	-0.466015	2.183683	0.003419	-0.001469	0.005075	0.225043	0.048848	0.973124	-0.017654	0.998783	-0.046053	-0.974189	-0.006816	0.225631
28985	9.531896	-0.444522	2.183206	0.003419	-0.001469	0.005075	0.225033	0.048842	0.973126	-0.017658	0.998783	-0.046047	-0.974191	-0.006821	0.225622
28986	9.547928	-0.463887	2.207273	0.003263	0.002573	0.005839	0.225066	0.048845	0.973118	-0.017656	0.998783	-0.046050	-0.974184	-0.006818	0.225654
28987	9.531629	-0.417541	2.230279	0.003419	-0.001469	0.005075	0.225059	0.048840	0.973120	-0.017660	0.998783	-0.046044	-0.974185	-0.006823	0.225648
28988	9.574472	-0.451363	2.224707	0.006686	-0.003503	0.005108	0.225033	0.048835	0.973127	-0.017691	0.998783	-0.046032	-0.974191	-0.006856	0.225623
28989	9.515911	-0.453632	2.212644	0.000798	-0.000932	0.006474	0.225030	0.048844	0.973127	-0.017664	0.998783	-0.046047	-0.974192	-0.006827	0.225618
28990	9.515914	-0.454025	2.212548	0.002526	-0.001243	0.002546	0.225026	0.048814	0.973129	-0.017648	0.998785	-0.046020	-0.974193	-0.006818	0.225614
28991	9.542447	-0.441077	2.230133	0.003910	0.001076	0.007271	0.225043	0.048831	0.973124	-0.017667	0.998784	-0.046033	-0.974189	-0.006833	0.225632
28992	9.521023	-0.425771	2.182649	0.002276	0.002093	0.007255	0.225071	0.048848	0.973117	-0.017659	0.998783	-0.046052	-0.974182	-0.006819	0.225660
28993	9.521093	-0.452482	2.236388	0.006038	-0.002005	0.003678	0.225060	0.048828	0.973121	-0.017680	0.998784	-0.046027	-0.974185	-0.006846	0.225649
28994	9.526277	-0.423545	2.206318	0.004896	0.001557	0.005857	0.225083	0.048831	0.973115	-0.017695	0.998783	-0.046027	-0.974179	-0.006859	0.225673
28995	9.553097	-0.464751	2.230645	0.003172	-0.002740	0.003979	0.225062	0.048816	0.973121	-0.017687	0.998784	-0.046012	-0.974184	-0.006856	0.225652
28996	9.510302	-0.431786	2.235888	0.001042	0.000341	0.007573	0.225073	0.048836	0.973117	-0.017668	0.998783	-0.046037	-0.974182	-0.006832	0.225662
28997	9.531743	-0.449833	2.182785	0.003171	-0.002740	0.003979	0.225053	0.048819	0.973123	-0.017658	0.998784	-0.046023	-0.974186	-0.006826	0.225642
28998	9.537052	-0.446998	2.206335	0.008258	0.000229	0.001945	0.225064	0.048783	0.973122	-0.017697	0.998786	-0.045977	-0.974183	-0.006873	0.225654
28999	9.552843	-0.412066	2.223502	0.004309	-0.001692	0.007607	0.225055	0.048804	0.973123	-0.017716	0.998785	-0.045994	-0.974185	-0.006889	0.225646
29000	9.510482	-0.461189	2.188633	0.001783	-0.000450	0.005060	0.225059	0.048799	0.973122	-0.017699	0.998785	-0.045993	-0.974184	-0.006872	0.225649
29001	9.542325	-0.445301	2.229814	0.001783	-0.000450	0.005060	0.225061	0.048793	0.973122	-0.017670	0.998785	-0.045993	-0.974185	-0.006843	0.225649
29002	9.521047	-0.456085	2.235852	0.001783	-0.000450	0.005060	0.225064	0.048788	0.973122	-0.017652	0.998786	-0.045992	-0.974184	-0.006826	0.225652
29003	9.499685	-0.440681	2.188140	0.000796	-0.000930	0.006476	0.225063	0.048798	0.973121	-0.017627	0.998786	-0.046008	-0.974185	-0.006799	0.225650
29004	9.515747	-0.459929	2.212050	0.007024	-0.001525	0.002263	0.225057	0.048765	0.973125	-0.017655	0.998787	-0.045968	-0.974186	-0.006835	0.225645
29005	9.537014	-0.450143	2.205859	0.002578	-0.001379	0.011537	0.225051	0.048824	0.973123	-0.017659	0.998784	-0.046028	-0.974187	-0.006826	0.225639
29006	9.515718	-0.461238	2.211901	0.000150	0.000568	0.005044	0.225064	0.048819	0.973120	-0.017626	0.998785	-0.046030	-0.974184	-0.006792	0.225651
29007	9.558111	-0.412960	2.246554	0.005790	-0.003277	0.002582	0.225040	0.048789	0.973127	-0.017643	0.998786	-0.045996	-0.974190	-0.006818	0.225627
29008	9.537036	-0.451544	2.205480	0.002428	-0.001946	0.006494	0.225029	0.048799	0.973129	-0.017635	0.998785	-0.046007	-0.974193	-0.006809	0.225616
29009	9.510478	-0.465359	2.187765	0.003415	-0.001467	0.005078	0.225024	0.048793	0.973131	-0.017634	0.998786	-0.046002	-0.974194	-0.006809	0.225611
29010	9.526291	-0.430572	2.204898	0.003661	-0.000194	0.006176	0.225029	0.048800	0.973129	-0.017638	0.998785	-0.046008	-0.974192	-0.006811	0.225617
29011	9.515753	-0.463152	2.211349	0.007269	-0.000252	0.003362	0.225032	0.048776	0.973130	-0.017664	0.998786	-0.045978	-0.974191	-0.006843	0.225620
29012	9.526253	-0.431225	2.204931	0.000150	0.000569	0.005044	0.225045	0.048771	0.973127	-0.017630	0.998787	-0.045980	-0.974189	-0.006809	0.225632
29013	9.558272	-0.443322	2.199119	0.004059	-0.002963	0.006512	0.225023	0.048781	0.973132	-0.017625	0.998786	-0.045992	-0.974194	-0.006803	0.225610
29014	9.504977	-0.442511	2.210842	0.003016	0.001304	0.004743	0.225044	0.048773	0.973127	-0.017619	0.998787	-0.045985	-0.974189	-0.006797	0.225630
29015	9.521136	-0.489701	2.187995	0.006280	-0.000732	0.004778	0.225046	0.048765	0.973127	-0.017648	0.998787	-0.045970	-0.974188	-0.006829	0.225633
29016	9.510256	-0.440299	2.234424	0.002426	-0.001945	0.006495	0.225034	0.048774	0.973129	-0.017640	0.998787	-0.045981	-0.974191	-0.006819	0.225622
29017	9.536975	-0.455372	2.204954	-0.000097	-0.000703	0.003947	0.225040	0.048758	0.973129	-0.017601	0.998788	-0.045974	-0.974191	-0.006783	0.225625
29018	9.526214	-0.433848	2.204586	0.006526	0.000541	0.005876	0.225053	0.048762	0.973126	-0.017632	0.998787	-0.045970	-0.974187	-0.006813	0.225640
29019	9.531503	-0.431257	2.228205	0.003413	-0.001466	0.005080	0.225046	0.048756	0.973127	-0.017631	0.998787	-0.045965	-0.974189	-0.006813	0.225633
29020	9.547797	-0.506526	2.158365	0.005538	0.000063	0.007293	0.225054	0.048774	0.973125	-0.017655	0.998786	-0.045977	-0.974186	-0.006833	0.225642
29021	9.494152	-0.423572	2.210245	0.002769	0.000031	0.003646	0.225058	0.048755	0.973125	-0.017639	0.998787	-0.045961	-0.974186	-0.006821	0.225646
29022	9.536897	-0.457451	2.204863	0.003413	-0.001465	0.005080	0.225052	0.048750	0.973126	-0.017638	0.998788	-0.045957	-0.974187	-0.006821	0.225639
29023	9.526138	-0.436035	2.204482	0.003905	0.001081	0.007275	0.225068	0.048767	0.973122	-0.017644	0.998787	-0.045973	-0.974183	-0.006822	0.225656
29024	9.536863	-0.458340	2.204823	0.004154	-0.002260	0.002567	0.225055	0.048737	0.973126	-0.017644	0.998788	-0.045942	-0.974186	-0.006830	0.225642
29025	9.536949	-0.484764	2.258435	0.004400	-0.000986	0.003664	0.225051	0.048718	0.973128	-0.017647	0.998789	-0.045922	-0.974187	-0.006838	0.225638
29026	9.504879	-0.447367	2.210285	0.004302	-0.001688	0.007612	0.225042	0.048739	0.973129	-0.017660	0.998788	-0.045940	-0.974189	-0.006847	0.225630
29027	9.536877	-0.459555	2.204509	0.003658	-0.000192	0.006178	0.225047	0.048744	0.973128	-0.017663	0.998788	-0.045945	-0.974188	-0.006849	0.225636
29028	9.542159	-0.457054	2.228148	0.003658	-0.000191	0.006179	0.225053	0.048751	0.973126	-0.017667	0.998787	-0.045950	-0.974186	-0.006851	0.225642
29029	9.531441	-0.435536	2.227640	0.003165	-0.002738	0.003983	0.225033	0.048735	0.973132	-0.017652	0.998788	-0.045938	-0.974191	-0.006841	0.225620
29030	9.526161	-0.438904	2.203814	0.003411	-0.001464	0.005081	0.225026	0.048730	0.973133	-0.017651	0.998789	-0.045933	-0.974193	-0.006840	0.225614
29031	9.510168	-0.446592	2.233549	0.003014	0.001305	0.004745	0.225045	0.048722	0.973130	-0.017643	0.998789	-0.045927	-0.974189	-0.006834	0.225632
29032	9.574177	-0.470275	2.222062	0.002177	-0.003216	0.005400	0.225021	0.048720	0.973135	-0.017630	0.998789	-0.045928	-0.974194	-0.006822	0.225608
29033	9.504869	-0.450435	2.209707	0.004645	0.000287	0.004763	0.225028	0.048712	0.973134	-0.017648	0.998789	-0.045916	-0.974193	-0.006842	0.225615
29034	9.515433	-0.418647	2.203122	0.004054	-0.002960	0.006516	0.225006	0.048722	0.973138	-0.017656	0.998789	-0.045924	-0.974197	-0.006849	0.225594
29035	9.563495	-0.449638	2.221232	0.001533	-0.001719	0.003966	0.224999	0.048706	0.973141	-0.017636	0.998790	-0.045912	-0.974199	-0.006832	0.225586
29036	9.531510	-0.438458	2.226771	0.002422	-0.001942	0.006498	0.224988	0.048715	0.973143	-0.017628	0.998789	-0.045924	-0.974202	-0.006822	0.225574
29037	9.542247	-0.460892	2.226981	0.006919	-0.002227	0.006216	0.224974	0.048721	0.973146	-0.017668	0.998789	-0.045920	-0.974205	-0.006862	0.225563
29038	9.510205	-0.449808	2.232746	0.000641	0.003120	0.007241	0.225012	0.048738	0.973136	-0.017644	0.998788	-0.045943	-0.974196	-0.006832	0.225599
29039	9.531469	-0.439914	2.226659	0.005783	-0.003278	0.002586	0.224989	0.048708	0.973143	-0.017658	0.998790	-0.045909	-0.974201	-0.006855	0.225577
29040	9.542230	-0.462283	2.226765	0.004942	-0.003182	0.009049	0.224965	0.048742	0.973147	-0.017680	0.998788	-0.045939	-0.974206	-0.006871	0.225554
29041	9.520812	-0.419012	2.225825	0.001779	-0.000445	0.005064	0.224967	0.048739	0.973147	-0.017656	0.998788	-0.045942	-0.974206	-0.006846	0.225555
29042	9.536923	-0.466324	2.202891	0.003409	-0.001463	0.005083	0.224960	0.048734	0.973148	-0.017654	0.998788	-0.045937	-0.974208	-0.006846	0.225548
29043	9.515510	-0.422862	2.201983	0.003409	-0.001463	0.005083	0.224952	0.048731	0.973151	-0.017652	0.998788	-0.045934	-0.974210	-0.006846	0.225540
29044	9.584845	-0.443588	2.213999	0.002174	-0.003214	0.005402	0.224928	0.048729	0.973156	-0.017640	0.998789	-0.045935	-0.974216	-0.006834	0.225516
29045	9.494235	-0.434056	2.207852	0.003260	0.002580	0.005843	0.224957	0.048732	0.973149	-0.017626	0.998789	-0.045941	-0.974209	-0.006818	0.225543
29046	9.531564	-0.443007	2.225639	0.006177	-0.006047	0.002925	0.224906	0.048705	0.973162	-0.017646	0.998790	-0.045910	-0.974221	-0.006847	0.225493
29047	9.499675	-0.459809	2.184244	0.004791	0.000863	0.009811	0.224923	0.048747	0.973156	-0.017675	0.998788	-0.045946	-0.974216	-0.006867	0.225511
29048	9.547481	-0.408746	2.242510	0.004150	-0.002259	0.002569	0.224909	0.048717	0.973161	-0.017675	0.998789	-0.045915	-0.974219	-0.006874	0.225498
29049	9.515695	-0.479594	2.208090	0.000789	-0.000921	0.006482	0.224907	0.048726	0.973161	-0.017649	0.998789	-0.045931	-0.974220	-0.006846	0.225494
29050	9.526262	-0.447855	2.201575	0.004643	0.000288	0.004764	0.224917	0.048719	0.973159	-0.017659	0.998789	-0.045920	-0.974218	-0.006857	0.225505
29051	9.547658	-0.492194	2.202307	0.002419	-0.001939	0.006501	0.224905	0.048728	0.973161	-0.017655	0.998789	-0.045931	-0.974221	-0.006851	0.225493
29052	9.504854	-0.404906	2.200624	0.008151	-0.000475	0.005899	0.224909	0.048731	0.973161	-0.017701	0.998788	-0.045923	-0.974219	-0.006897	0.225499
29053	9.574255	-0.479915	2.219663	-0.002077	-0.001652	0.006784	0.224900	0.048742	0.973162	-0.017648	0.998788	-0.045947	-0.974222	-0.006841	0.225488
29054	9.504855	-0.405946	2.200431	0.006273	-0.000730	0.004783	0.224901	0.048734	0.973162	-0.017674	0.998788	-0.045933	-0.974221	-0.006869	0.225490
29055	9.547611	-0.466212	2.248677	0.004690	-0.004453	0.007956	0.224862	0.048757	0.973170	-0.017697	0.998787	-0.045952	-0.974230	-0.006889	0.225452
29056	9.520959	-0.453893	2.177256	0.004890	0.001563	0.005862	0.224885	0.048760	0.973165	-0.017712	0.998787	-0.045951	-0.974224	-0.006902	0.225476
29057	9.531546	-0.448419	2.224630	0.001035	0.000355	0.007581	0.224893	0.048781	0.973162	-0.017687	0.998786	-0.045978	-0.974223	-0.006872	0.225482
29058	9.510288	-0.487231	2.183827	0.003407	-0.001462	0.005085	0.224886	0.048776	0.973163	-0.017685	0.998786	-0.045973	-0.974225	-0.006872	0.225476
29059	9.515438	-0.376343	2.193529	0.005283	-0.001206	0.006201	0.224878	0.048782	0.973165	-0.017709	0.998786	-0.045974	-0.974226	-0.006895	0.225469
29060	9.568874	-0.486565	2.195500	0.003653	-0.000187	0.006183	0.224884	0.048788	0.973163	-0.017712	0.998785	-0.045980	-0.974225	-0.006897	0.225475
29061	9.520844	-0.428368	2.223905	0.003159	-0.002735	0.003988	0.224871	0.048771	0.973167	-0.017710	0.998786	-0.045963	-0.974228	-0.006899	0.225462
29062	9.552905	-0.468464	2.171111	0.000540	-0.002193	0.005387	0.224858	0.048769	0.973170	-0.017681	0.998786	-0.045968	-0.974231	-0.006871	0.225447
29063	9.510209	-0.407390	2.223099	0.004294	-0.001682	0.007619	0.224845	0.048790	0.973172	-0.017700	0.998785	-0.045985	-0.974234	-0.006886	0.225436
29064	9.526240	-0.454868	2.200233	0.000146	0.000577	0.005048	0.224859	0.048785	0.973169	-0.017667	0.998786	-0.045987	-0.974231	-0.006852	0.225448
29065	9.531542	-0.452238	2.223874	0.006271	-0.000730	0.004785	0.224858	0.048778	0.973170	-0.017686	0.998786	-0.045975	-0.974231	-0.006873	0.225447
29066	9.547521	-0.445457	2.194022	0.002416	-0.001937	0.006503	0.224846	0.048787	0.973172	-0.017677	0.998786	-0.045987	-0.974234	-0.006863	0.225436
29067	9.515614	-0.488317	2.206529	0.004394	-0.000985	0.003669	0.224848	0.048769	0.973173	-0.017678	0.998786	-0.045968	-0.974234	-0.006868	0.225437
29068	9.504839	-0.412741	2.199237	0.001281	0.001631	0.008679	0.224871	0.048800	0.973166	-0.017664	0.998785	-0.046003	-0.974228	-0.006845	0.225460
29069	9.579473	-0.484859	2.242015	0.006911	-0.002225	0.006222	0.224855	0.048807	0.973169	-0.017698	0.998785	-0.046002	-0.974232	-0.006879	0.225445
29070	9.494152	-0.446114	2.205807	0.000640	0.003127	0.007243	0.224893	0.048824	0.973160	-0.017674	0.998784	-0.046025	-0.974223	-0.006849	0.225482
29071	9.520765	-0.461440	2.176518	0.000539	-0.002191	0.005388	0.224877	0.048821	0.973163	-0.017647	0.998784	-0.046028	-0.974227	-0.006823	0.225465
29072	9.552759	-0.445715	2.217366	0.004684	-0.004451	0.007960	0.224841	0.048845	0.973170	-0.017664	0.998783	-0.046049	-0.974235	-0.006837	0.225430
29073	9.515484	-0.437583	2.199218	0.001775	-0.000441	0.005068	0.224843	0.048840	0.973170	-0.017641	0.998783	-0.046050	-0.974235	-0.006813	0.225431
29074	9.526153	-0.459964	2.199550	0.003404	-0.001460	0.005087	0.224837	0.048836	0.973172	-0.017639	0.998784	-0.046046	-0.974237	-0.006813	0.225424
29075	9.520805	-0.435514	2.222683	0.002662	-0.000661	0.007602	0.224839	0.048856	0.973170	-0.017633	0.998783	-0.046068	-0.974236	-0.006803	0.225427
29076	9.552749	-0.447775	2.216994	0.006516	0.000544	0.005884	0.224852	0.048859	0.973167	-0.017664	0.998782	-0.046064	-0.974233	-0.006832	0.225442
29077	9.499453	-0.446686	2.228821	-0.000102	-0.000696	0.003952	0.224852	0.048843	0.973168	-0.017628	0.998783	-0.046056	-0.974233	-0.006799	0.225440
29078	9.526100	-0.462103	2.199333	0.002311	-0.002631	0.010457	0.224834	0.048892	0.973170	-0.017628	0.998781	-0.046106	-0.974238	-0.006789	0.225421
29079	9.515408	-0.440765	2.198909	0.005876	0.002039	0.004447	0.224859	0.048881	0.973164	-0.017658	0.998781	-0.046087	-0.974231	-0.006821	0.225448
29080	9.520737	-0.438015	2.222482	0.004784	-0.003754	0.004010	0.224831	0.048865	0.973172	-0.017667	0.998782	-0.046069	-0.974238	-0.006835	0.225420
29081	9.520756	-0.438518	2.222305	0.004537	-0.000405	0.008720	0.224831	0.048898	0.973170	-0.017683	0.998780	-0.046099	-0.974237	-0.006844	0.225421
29082	9.552711	-0.450742	2.216556	0.004391	-0.000985	0.003671	0.224829	0.048879	0.973171	-0.017688	0.998781	-0.046079	-0.974238	-0.006854	0.225420
29083	9.520769	-0.467402	2.175229	0.002165	-0.003209	0.005409	0.224807	0.048876	0.973177	-0.017683	0.998781	-0.046077	-0.974243	-0.006850	0.225398
29084	9.483488	-0.431233	2.203972	0.002660	-0.000660	0.007604	0.224808	0.048896	0.973175	-0.017680	0.998780	-0.046099	-0.974243	-0.006842	0.225399
29085	9.547398	-0.455297	2.192540	0.003649	-0.000185	0.006186	0.224815	0.048903	0.973174	-0.017673	0.998780	-0.046107	-0.974241	-0.006833	0.225405
29086	9.547357	-0.455857	2.192600	0.003896	0.001090	0.007284	0.224833	0.048920	0.973168	-0.017681	0.998779	-0.046123	-0.974237	-0.006837	0.225424
29087	9.515365	-0.444467	2.198351	0.005380	-0.000510	0.002253	0.224840	0.048886	0.973169	-0.017691	0.998781	-0.046086	-0.974235	-0.006854	0.225431
29088	9.520724	-0.441599	2.221829	0.001278	-0.002989	0.002875	0.224819	0.048860	0.973175	-0.017664	0.998782	-0.046065	-0.974240	-0.006834	0.225409
29089	9.515420	-0.416972	2.244897	0.003649	-0.000184	0.006187	0.224823	0.048865	0.973174	-0.017674	0.998782	-0.046068	-0.974239	-0.006843	0.225413
29090	9.536712	-0.489386	2.198796	0.005029	-0.002479	0.005109	0.224807	0.048861	0.973178	-0.017688	0.998782	-0.046060	-0.974243	-0.006859	0.225397
29091	9.531428	-0.410629	2.214864	0.003401	-0.001459	0.005090	0.224799	0.048856	0.973180	-0.017683	0.998782	-0.046057	-0.974245	-0.006855	0.225389
29092	9.515445	-0.446416	2.197610	0.001421	-0.002407	0.007926	0.224783	0.048880	0.973182	-0.017669	0.998781	-0.046085	-0.974249	-0.006836	0.225373
29093	9.515442	-0.447031	2.197498	0.003648	-0.000184	0.006187	0.224790	0.048885	0.973180	-0.017666	0.998781	-0.046090	-0.974247	-0.006832	0.225380
29094	9.510121	-0.450232	2.173775	0.007749	-0.002331	-0.000242	0.224776	0.048827	0.973186	-0.017695	0.998784	-0.046024	-0.974250	-0.006875	0.225367
29095	9.552752	-0.456267	2.215248	0.001916	0.000144	0.010121	0.224784	0.048873	0.973182	-0.017692	0.998781	-0.046072	-0.974248	-0.006861	0.225375
29096	9.526121	-0.416026	2.190671	0.005028	-0.002478	0.005110	0.224768	0.048868	0.973186	-0.017706	0.998782	-0.046064	-0.974251	-0.006878	0.225359
29097	9.526084	-0.470629	2.197591	0.002020	0.000837	0.006168	0.224781	0.048874	0.973183	-0.017693	0.998781	-0.046073	-0.974249	-0.006862	0.225372
29098	9.520761	-0.446092	2.220774	0.003399	-0.001458	0.005091	0.224775	0.048870	0.973184	-0.017692	0.998782	-0.046069	-0.974250	-0.006862	0.225366
29099	9.542086	-0.436297	2.214521	0.003399	-0.001458	0.005091	0.224770	0.048866	0.973186	-0.017684	0.998782	-0.046067	-0.974251	-0.006855	0.225361
29100	9.536726	-0.439853	2.190891	0.003895	0.001092	0.007285	0.224789	0.048883	0.973181	-0.017692	0.998781	-0.046082	-0.974247	-0.006859	0.225379
29101	9.510060	-0.479906	2.227090	0.002057	-0.003899	0.009366	0.224757	0.048921	0.973186	-0.017687	0.998779	-0.046123	-0.974254	-0.006846	0.225348
29102	9.536725	-0.441245	2.190617	0.000144	0.000583	0.005051	0.224770	0.048916	0.973183	-0.017653	0.998780	-0.046126	-0.974252	-0.006812	0.225360
29103	9.526053	-0.473715	2.197064	0.005768	-0.003280	0.002596	0.224748	0.048885	0.973190	-0.017671	0.998781	-0.046090	-0.974257	-0.006839	0.225338
29104	9.568742	-0.425587	2.231524	0.002019	0.000838	0.006168	0.224764	0.048892	0.973186	-0.017659	0.998781	-0.046099	-0.974253	-0.006824	0.225353
29105	9.520723	-0.449506	2.220248	0.006511	0.000546	0.005887	0.224778	0.048896	0.973183	-0.017684	0.998780	-0.046098	-0.974250	-0.006848	0.225368
29106	9.552709	-0.407654	2.207547	0.000781	-0.000910	0.006490	0.224776	0.048905	0.973182	-0.017660	0.998780	-0.046113	-0.974250	-0.006821	0.225366
29107	9.515290	-0.481611	2.149782	0.004636	0.000291	0.004770	0.224788	0.048897	0.973180	-0.017673	0.998780	-0.046101	-0.974247	-0.006836	0.225378
29108	9.520737	-0.396730	2.213189	0.003398	-0.001457	0.005092	0.224781	0.048892	0.973182	-0.017671	0.998781	-0.046096	-0.974249	-0.006836	0.225371
29109	9.509936	-0.483592	2.226822	0.004141	0.002369	0.008384	0.224809	0.048920	0.973174	-0.017688	0.998779	-0.046121	-0.974242	-0.006845	0.225400
29110	9.536572	-0.444849	2.190551	0.003397	-0.001457	0.005092	0.224803	0.048915	0.973176	-0.017686	0.998779	-0.046117	-0.974244	-0.006845	0.225394
29111	9.520626	-0.452250	2.220108	0.005766	-0.003280	0.002597	0.224774	0.048887	0.973184	-0.017687	0.998781	-0.046087	-0.974250	-0.006854	0.225365
29112	9.526011	-0.423359	2.189744	0.006262	-0.000729	0.004791	0.224775	0.048879	0.973184	-0.017713	0.998781	-0.046073	-0.974250	-0.006882	0.225366
29113	9.557951	-0.435614	2.183982	0.000780	-0.000909	0.006491	0.224769	0.048888	0.973185	-0.017686	0.998781	-0.046089	-0.974251	-0.006853	0.225360
29114	9.525889	-0.478485	2.196740	0.004883	0.001567	0.005868	0.224792	0.048891	0.973179	-0.017701	0.998781	-0.046089	-0.974246	-0.006866	0.225384
29115	9.547251	-0.440648	2.237438	0.003396	-0.001456	0.005093	0.224787	0.048886	0.973181	-0.017697	0.998781	-0.046084	-0.974247	-0.006864	0.225378
29116	9.499174	-0.492626	2.179261	0.002017	0.000840	0.006170	0.224803	0.048892	0.973177	-0.017685	0.998781	-0.046094	-0.974244	-0.006848	0.225393
29117	9.536641	-0.419427	2.236819	0.005517	-0.004555	0.001501	0.224765	0.048852	0.973188	-0.017699	0.998782	-0.046049	-0.974252	-0.006874	0.225356
29118	9.525855	-0.480136	2.196529	0.001523	0.002919	0.009783	0.224801	0.048894	0.973177	-0.017689	0.998780	-0.046094	-0.974244	-0.006853	0.225391
29119	9.531277	-0.423498	2.213088	0.002899	-0.004007	0.002899	0.224771	0.048868	0.973185	-0.017666	0.998782	-0.046073	-0.974251	-0.006837	0.225361
29120	9.515252	-0.459038	2.195844	0.001769	-0.000435	0.005073	0.224775	0.048863	0.973185	-0.017649	0.998782	-0.046072	-0.974251	-0.006820	0.225364
29121	9.541917	-0.420181	2.159547	0.003007	0.001313	0.004751	0.224792	0.048855	0.973181	-0.017645	0.998783	-0.046064	-0.974247	-0.006817	0.225381
29122	9.531142	-0.478715	2.220043	0.002759	0.000037	0.003654	0.224801	0.048836	0.973180	-0.017634	0.998784	-0.046047	-0.974245	-0.006810	0.225388
29123	9.536594	-0.421884	2.236556	0.006896	-0.002222	0.006232	0.224788	0.048842	0.973183	-0.017670	0.998783	-0.046046	-0.974247	-0.006845	0.225378
29124	9.493838	-0.470769	2.202031	0.004882	0.001568	0.005869	0.224811	0.048846	0.973177	-0.017684	0.998783	-0.046046	-0.974242	-0.006859	0.225401
29125	9.573779	-0.459505	2.207604	-0.000603	-0.003241	0.001762	0.224788	0.048807	0.973184	-0.017634	0.998785	-0.046018	-0.974248	-0.006817	0.225376
29126	9.499333	-0.414183	2.218333	0.003395	-0.001455	0.005094	0.224782	0.048803	0.973186	-0.017632	0.998785	-0.046014	-0.974250	-0.006816	0.225369
29127	9.493856	-0.471932	2.201705	0.001026	0.000369	0.007590	0.224791	0.048823	0.973183	-0.017624	0.998784	-0.046036	-0.974248	-0.006803	0.225378
29128	9.541831	-0.449226	2.213036	0.002652	-0.000651	0.007611	0.224792	0.048843	0.973182	-0.017621	0.998783	-0.046058	-0.974247	-0.006795	0.225379
29129	9.493910	-0.444933	2.248422	0.002510	-0.001238	0.002558	0.224787	0.048813	0.973184	-0.017610	0.998785	-0.046029	-0.974249	-0.006791	0.225374
29130	9.552463	-0.471970	2.213204	0.002155	-0.003203	0.005417	0.224764	0.048811	0.973190	-0.017597	0.998785	-0.046031	-0.974254	-0.006779	0.225350
29131	9.509947	-0.438550	2.218285	0.006259	-0.000728	0.004794	0.224766	0.048803	0.973190	-0.017622	0.998785	-0.046016	-0.974253	-0.006807	0.225353
29132	9.568562	-0.437664	2.229961	-0.002088	-0.001632	0.006795	0.224757	0.048815	0.973191	-0.017571	0.998785	-0.046041	-0.974256	-0.006752	0.225342
29133	9.504616	-0.442571	2.194394	0.006010	-0.002004	0.003697	0.224747	0.048796	0.973195	-0.017590	0.998786	-0.046017	-0.974258	-0.006776	0.225332
29134	9.536641	-0.426750	2.235430	0.001025	0.000371	0.007591	0.224758	0.048817	0.973191	-0.017570	0.998785	-0.046043	-0.974256	-0.006751	0.225343
29135	9.531269	-0.430322	2.211806	0.006258	-0.000728	0.004794	0.224757	0.048810	0.973191	-0.017592	0.998785	-0.046031	-0.974256	-0.006774	0.225343
29136	9.526029	-0.405712	2.234869	0.002402	-0.001926	0.006515	0.224746	0.048820	0.973194	-0.017583	0.998785	-0.046043	-0.974259	-0.006764	0.225332
29137	9.547107	-0.478350	2.188893	0.003641	-0.000178	0.006193	0.224754	0.048825	0.973191	-0.017594	0.998784	-0.046046	-0.974257	-0.006773	0.225340
29138	9.493997	-0.423048	2.193553	0.004027	-0.002947	0.006536	0.224733	0.048835	0.973196	-0.017601	0.998784	-0.046054	-0.974261	-0.006780	0.225319
29139	9.525784	-0.489513	2.194765	0.001767	-0.000433	0.005075	0.224735	0.048830	0.973196	-0.017582	0.998784	-0.046054	-0.974261	-0.006761	0.225321
29140	9.536663	-0.429644	2.234783	0.006643	-0.003497	0.005138	0.224709	0.048825	0.973202	-0.017612	0.998784	-0.046042	-0.974267	-0.006794	0.225296
29141	9.536573	-0.458129	2.187808	-0.000108	-0.000688	0.003957	0.224712	0.048810	0.973202	-0.017562	0.998785	-0.046038	-0.974267	-0.006746	0.225296
29142	9.515206	-0.468769	2.193989	0.003889	0.001098	0.007290	0.224730	0.048827	0.973197	-0.017570	0.998784	-0.046054	-0.974263	-0.006750	0.225315
29143	9.536635	-0.430850	2.234673	0.005374	-0.000512	0.002257	0.224733	0.048795	0.973198	-0.017572	0.998786	-0.046020	-0.974262	-0.006759	0.225318
29144	9.536327	-0.513510	2.194960	0.001024	0.000373	0.007592	0.224744	0.048815	0.973194	-0.017553	0.998785	-0.046045	-0.974260	-0.006734	0.225328
29145	9.531231	-0.435000	2.211053	0.002649	-0.000649	0.007613	0.224747	0.048835	0.973193	-0.017555	0.998784	-0.046065	-0.974259	-0.006732	0.225331
29146	9.509899	-0.445660	2.217075	0.005016	-0.002475	0.005118	0.224731	0.048830	0.973197	-0.017569	0.998784	-0.046057	-0.974263	-0.006748	0.225315
29147	9.526016	-0.410900	2.233976	0.003640	-0.000177	0.006194	0.224736	0.048838	0.973195	-0.017564	0.998784	-0.046066	-0.974261	-0.006741	0.225320
29148	9.541824	-0.458469	2.211169	0.000526	-0.002179	0.005399	0.224723	0.048836	0.973198	-0.017535	0.998784	-0.046071	-0.974265	-0.006712	0.225306
29149	9.547219	-0.429978	2.180863	0.007387	0.000332	0.008431	0.224735	0.048864	0.973194	-0.017577	0.998783	-0.046090	-0.974261	-0.006748	0.225320
29150	9.520459	-0.469746	2.217186	0.000525	-0.002179	0.005399	0.224721	0.048862	0.973197	-0.017548	0.998783	-0.046095	-0.974265	-0.006719	0.225305
29151	9.541949	-0.406185	2.203992	0.001520	0.002927	0.009787	0.224760	0.048905	0.973186	-0.017534	0.998781	-0.046142	-0.974256	-0.006693	0.225344
29152	9.509797	-0.448926	2.216851	0.006997	-0.001534	0.002280	0.224754	0.048872	0.973189	-0.017561	0.998782	-0.046102	-0.974257	-0.006729	0.225338
29153	9.547126	-0.431948	2.180883	0.004630	0.000294	0.004775	0.224765	0.048863	0.973187	-0.017577	0.998783	-0.046089	-0.974254	-0.006746	0.225351
29154	9.568387	-0.448238	2.228611	0.003638	-0.000176	0.006195	0.224771	0.048870	0.973185	-0.017580	0.998782	-0.046095	-0.974253	-0.006748	0.225357
29155	9.509751	-0.450039	2.216826	0.001765	-0.000431	0.005077	0.224775	0.048866	0.973185	-0.017550	0.998783	-0.046098	-0.974253	-0.006718	0.225359
29156	9.552450	-0.430200	2.204385	0.005014	-0.002475	0.005120	0.224759	0.048861	0.973189	-0.017565	0.998783	-0.046090	-0.974256	-0.006735	0.225344
29157	9.525694	-0.469709	2.240690	0.002756	0.000039	0.003657	0.224768	0.048842	0.973187	-0.017552	0.998784	-0.046073	-0.974254	-0.006726	0.225352
29158	9.541644	-0.463108	2.210980	0.003887	0.001101	0.007293	0.224786	0.048860	0.973182	-0.017560	0.998783	-0.046089	-0.974250	-0.006729	0.225371
29159	9.531023	-0.441603	2.210644	0.003004	0.001316	0.004754	0.224801	0.048852	0.973179	-0.017564	0.998783	-0.046080	-0.974246	-0.006734	0.225386
29160	9.536372	-0.438909	2.234226	0.005013	-0.002474	0.005121	0.224785	0.048847	0.973183	-0.017578	0.998783	-0.046072	-0.974250	-0.006750	0.225370
29161	9.509681	-0.452529	2.216616	0.005262	-0.001197	0.006218	0.224779	0.048854	0.973184	-0.017596	0.998783	-0.046075	-0.974251	-0.006768	0.225365
29162	9.536395	-0.439857	2.233942	0.002397	-0.001922	0.006519	0.224768	0.048863	0.973186	-0.017588	0.998783	-0.046086	-0.974254	-0.006758	0.225354
29163	9.520248	-0.475561	2.216853	0.001764	-0.000430	0.005078	0.224775	0.048858	0.973185	-0.017570	0.998783	-0.046085	-0.974252	-0.006740	0.225359
29164	9.520457	-0.421911	2.209732	0.003637	-0.000175	0.006196	0.224781	0.048864	0.973183	-0.017573	0.998783	-0.046091	-0.974251	-0.006742	0.225366
29165	9.525424	-0.501599	2.193601	0.006885	-0.002219	0.006240	0.224865	0.048870	0.973164	-0.017572	0.998782	-0.046097	-0.974232	-0.006735	0.225450
29166	9.525812	-0.419768	2.233196	0.000139	0.000593	0.005056	0.224879	0.048866	0.973161	-0.017538	0.998783	-0.046099	-0.974229	-0.006701	0.225462
29167	9.568124	-0.482412	2.181041	0.004652	-0.004435	0.007984	0.224841	0.048890	0.973168	-0.017558	0.998782	-0.046120	-0.974237	-0.006717	0.225425
29168	9.504329	-0.459005	2.192257	0.003746	0.000509	0.002238	0.224854	0.048856	0.973167	-0.017553	0.998783	-0.046087	-0.974234	-0.006719	0.225438
29169	9.520301	-0.452266	2.162490	0.001763	-0.000429	0.005078	0.224857	0.048851	0.973166	-0.017538	0.998784	-0.046085	-0.974234	-0.006705	0.225440
29170	9.515004	-0.453546	2.239563	0.003003	0.001317	0.004755	0.224878	0.048844	0.973162	-0.017532	0.998784	-0.046078	-0.974229	-0.006699	0.225461
29171	9.541758	-0.414856	2.203206	0.003636	-0.000174	0.006197	0.224883	0.048850	0.973160	-0.017532	0.998784	-0.046085	-0.974228	-0.006697	0.225466
29172	9.514792	-0.482672	2.192770	0.000522	-0.002175	0.005402	0.224870	0.048849	0.973164	-0.017503	0.998784	-0.046090	-0.974232	-0.006669	0.225452
29173	9.515214	-0.400833	2.232348	0.006500	0.000550	0.005896	0.224882	0.048852	0.973161	-0.017532	0.998784	-0.046087	-0.974228	-0.006697	0.225465
29174	9.568030	-0.485407	2.180791	0.000521	-0.002175	0.005402	0.224869	0.048850	0.973164	-0.017503	0.998784	-0.046092	-0.974232	-0.006669	0.225450
29175	9.488498	-0.414726	2.214760	0.008234	0.000211	0.001959	0.224885	0.048814	0.973162	-0.017536	0.998785	-0.046046	-0.974228	-0.006710	0.225468
29176	9.514940	-0.456002	2.239338	0.002643	-0.000643	0.007618	0.224886	0.048834	0.973161	-0.017533	0.998784	-0.046068	-0.974227	-0.006702	0.225469
29177	9.557425	-0.464474	2.180332	0.005867	0.002041	0.004454	0.224914	0.048823	0.973155	-0.017560	0.998785	-0.046050	-0.974220	-0.006732	0.225498
29178	9.514954	-0.430973	2.185564	0.002393	-0.001919	0.006522	0.224903	0.048832	0.973157	-0.017552	0.998784	-0.046062	-0.974223	-0.006721	0.225486
29179	9.562745	-0.462382	2.203932	0.002011	0.000849	0.006176	0.224915	0.048839	0.973154	-0.017543	0.998784	-0.046070	-0.974220	-0.006710	0.225498
29180	9.498926	-0.438934	2.215317	0.004377	-0.000982	0.003681	0.224913	0.048820	0.973155	-0.017548	0.998785	-0.046050	-0.974221	-0.006719	0.225497
29181	9.562717	-0.463055	2.203912	0.002753	0.000041	0.003659	0.224923	0.048801	0.973154	-0.017529	0.998786	-0.046035	-0.974219	-0.006704	0.225505
29182	9.498939	-0.439517	2.215144	0.006631	-0.003495	0.005147	0.224897	0.048797	0.973160	-0.017559	0.998786	-0.046024	-0.974224	-0.006737	0.225481
29183	9.525637	-0.426961	2.232580	0.001517	0.002936	0.009791	0.224935	0.048839	0.973149	-0.017544	0.998784	-0.046071	-0.974216	-0.006710	0.225518
29184	9.530774	-0.452594	2.209493	0.004127	-0.002259	0.002585	0.224921	0.048810	0.973154	-0.017544	0.998786	-0.046040	-0.974219	-0.006717	0.225504
29185	9.541605	-0.420824	2.202736	0.003633	-0.000172	0.006199	0.224930	0.048816	0.973151	-0.017543	0.998785	-0.046046	-0.974217	-0.006715	0.225513
29186	9.504059	-0.466623	2.191822	0.004015	-0.002941	0.006546	0.224909	0.048825	0.973156	-0.017551	0.998785	-0.046055	-0.974222	-0.006722	0.225492
29187	9.525643	-0.428813	2.232200	0.003384	-0.001450	0.005103	0.224898	0.048822	0.973158	-0.017549	0.998785	-0.046052	-0.974224	-0.006721	0.225482
29188	9.552180	-0.444334	2.202749	0.002391	-0.001918	0.006524	0.224887	0.048831	0.973160	-0.017541	0.998785	-0.046064	-0.974227	-0.006711	0.225470
29189	9.498924	-0.442900	2.214534	0.002753	0.000041	0.003660	0.224891	0.048812	0.973161	-0.017541	0.998785	-0.046044	-0.974226	-0.006716	0.225474
29190	9.536148	-0.452199	2.232531	0.003882	0.001106	0.007297	0.224909	0.048829	0.973155	-0.017549	0.998785	-0.046059	-0.974222	-0.006719	0.225493
29191	9.562743	-0.441834	2.149334	0.003383	-0.001449	0.005103	0.224901	0.048825	0.973157	-0.017544	0.998785	-0.046057	-0.974224	-0.006715	0.225485
29192	9.493503	-0.447358	2.190866	0.003383	-0.001449	0.005103	0.224895	0.048821	0.973159	-0.017543	0.998785	-0.046052	-0.974225	-0.006715	0.225479
29193	9.530769	-0.456736	2.208663	0.004263	-0.001662	0.007644	0.224887	0.048842	0.973160	-0.017550	0.998784	-0.046072	-0.974227	-0.006718	0.225471
29194	9.530972	-0.429019	2.255355	0.004624	0.000296	0.004780	0.224898	0.048834	0.973158	-0.017560	0.998784	-0.046062	-0.974224	-0.006730	0.225482
29195	9.514740	-0.464605	2.238419	0.001760	-0.000426	0.005081	0.224902	0.048829	0.973157	-0.017538	0.998785	-0.046062	-0.974223	-0.006708	0.225485
29196	9.520190	-0.436194	2.208109	0.004511	-0.000384	0.008741	0.224906	0.048861	0.973155	-0.017556	0.998783	-0.046091	-0.974222	-0.006718	0.225490
29197	9.498823	-0.446737	2.214198	0.005997	-0.002004	0.003706	0.224897	0.048843	0.973158	-0.017568	0.998784	-0.046069	-0.974224	-0.006736	0.225481
29198	9.546729	-0.452089	2.178535	0.000517	-0.002171	0.005406	0.224883	0.048841	0.973161	-0.017539	0.998784	-0.046074	-0.974228	-0.006707	0.225467
29199	9.525374	-0.462724	2.184544	0.004261	-0.001661	0.007645	0.224875	0.048862	0.973162	-0.017549	0.998783	-0.046093	-0.974230	-0.006713	0.225459
29200	9.541487	-0.453974	2.255298	0.001759	-0.000425	0.005082	0.224879	0.048857	0.973161	-0.017532	0.998783	-0.046092	-0.974229	-0.006696	0.225462
29201	9.552069	-0.450477	2.201984	0.005865	0.002042	0.004456	0.224906	0.048845	0.973155	-0.017562	0.998784	-0.046073	-0.974222	-0.006728	0.225490
29202	9.515005	-0.413754	2.230878	0.001759	-0.000425	0.005082	0.224910	0.048840	0.973155	-0.017544	0.998784	-0.046072	-0.974222	-0.006711	0.225493
29203	9.514676	-0.468359	2.237909	0.004011	-0.002938	0.006549	0.224891	0.048850	0.973159	-0.017548	0.998784	-0.046081	-0.974226	-0.006714	0.225474
29204	9.547035	-0.400799	2.170944	0.003381	-0.001448	0.005105	0.224885	0.048845	0.973160	-0.017546	0.998784	-0.046076	-0.974227	-0.006714	0.225468
29205	9.530662	-0.462368	2.207951	0.000386	0.001876	0.006156	0.224913	0.048850	0.973154	-0.017518	0.998784	-0.046088	-0.974221	-0.006682	0.225495
29206	9.520144	-0.440799	2.207390	0.006624	-0.003494	0.005152	0.224887	0.048846	0.973160	-0.017548	0.998784	-0.046077	-0.974227	-0.006715	0.225471
29207	9.557413	-0.450246	2.225146	-0.001849	-0.000335	0.007902	0.224893	0.048868	0.973157	-0.017501	0.998783	-0.046111	-0.974226	-0.006661	0.225474
29208	9.504267	-0.423037	2.183024	0.003380	-0.001448	0.005106	0.224886	0.048864	0.973159	-0.017499	0.998783	-0.046107	-0.974228	-0.006661	0.225468
29209	9.520158	-0.442381	2.207014	0.003380	-0.001448	0.005106	0.224877	0.048860	0.973161	-0.017500	0.998783	-0.046102	-0.974230	-0.006663	0.225459
29210	9.520151	-0.442842	2.206952	0.003629	-0.000170	0.006203	0.224883	0.048866	0.973160	-0.017503	0.998783	-0.046108	-0.974229	-0.006664	0.225465
29211	9.552017	-0.455401	2.201198	0.004258	-0.001660	0.007648	0.224874	0.048886	0.973161	-0.017519	0.998782	-0.046125	-0.974230	-0.006676	0.225457
29212	9.530641	-0.465926	2.207296	0.006243	-0.000726	0.004805	0.224875	0.048879	0.973161	-0.017544	0.998782	-0.046112	-0.974230	-0.006704	0.225459
29213	9.498724	-0.454494	2.213042	0.001264	0.001666	0.008698	0.224899	0.048911	0.973154	-0.017524	0.998781	-0.046149	-0.974224	-0.006675	0.225482
29214	9.530848	-0.438705	2.254015	0.005743	-0.003282	0.002612	0.224875	0.048881	0.973161	-0.017540	0.998782	-0.046115	-0.974230	-0.006699	0.225459
29215	9.514693	-0.448415	2.183190	0.000635	0.003156	0.007253	0.224912	0.048898	0.973151	-0.017518	0.998781	-0.046137	-0.974222	-0.006671	0.225495
29216	9.541163	-0.464028	2.153896	0.006621	-0.003494	0.005154	0.224886	0.048894	0.973158	-0.017548	0.998781	-0.046126	-0.974227	-0.006704	0.225470
29217	9.504081	-0.453132	2.236389	0.003378	-0.001447	0.005107	0.224876	0.048891	0.973160	-0.017546	0.998782	-0.046123	-0.974229	-0.006703	0.225460
29218	9.541445	-0.436467	2.200385	0.005614	0.000764	0.003361	0.224891	0.048869	0.973158	-0.017562	0.998783	-0.046097	-0.974226	-0.006724	0.225476
29219	9.546514	-0.462016	2.177394	0.003878	0.001110	0.007301	0.224911	0.048886	0.973152	-0.017568	0.998782	-0.046113	-0.974221	-0.006725	0.225495
29220	9.514854	-0.422369	2.229909	0.003877	0.001110	0.007301	0.224929	0.048904	0.973147	-0.017576	0.998781	-0.046129	-0.974217	-0.006729	0.225514
29221	9.530482	-0.469918	2.207136	0.002628	-0.005281	0.001818	0.224883	0.048867	0.973160	-0.017558	0.998783	-0.046096	-0.974228	-0.006721	0.225467
29222	9.520017	-0.448240	2.206441	0.003877	0.001110	0.007301	0.224901	0.048884	0.973155	-0.017566	0.998782	-0.046112	-0.974223	-0.006724	0.225486
29223	9.525501	-0.419901	2.176118	0.004255	-0.001657	0.007650	0.224892	0.048905	0.973156	-0.017582	0.998781	-0.046129	-0.974225	-0.006736	0.225477
29224	9.530463	-0.471398	2.206902	0.004620	0.000298	0.004783	0.224903	0.048897	0.973154	-0.017591	0.998781	-0.046119	-0.974222	-0.006747	0.225489
29225	9.514860	-0.424698	2.229439	0.004255	-0.001657	0.007651	0.224892	0.048918	0.973155	-0.017606	0.998780	-0.046137	-0.974225	-0.006758	0.225479
29226	9.535853	-0.469334	2.230251	0.002133	-0.003190	0.005434	0.224869	0.048916	0.973160	-0.017593	0.998780	-0.046139	-0.974230	-0.006746	0.225455
29227	9.525381	-0.447782	2.229590	0.003626	-0.000167	0.006205	0.224876	0.048923	0.973159	-0.017595	0.998780	-0.046145	-0.974229	-0.006745	0.225462
29228	9.504021	-0.458277	2.235594	0.003754	-0.004214	0.005458	0.224843	0.048921	0.973166	-0.017597	0.998780	-0.046143	-0.974236	-0.006750	0.225429
29229	9.541415	-0.441886	2.199432	0.007368	0.000342	0.008447	0.224852	0.048950	0.973163	-0.017644	0.998778	-0.046162	-0.974233	-0.006791	0.225441
29230	9.557237	-0.461380	2.223619	0.000134	0.000603	0.005061	0.224866	0.048945	0.973160	-0.017611	0.998779	-0.046165	-0.974231	-0.006757	0.225453
29231	9.525384	-0.449764	2.229178	0.006617	-0.003493	0.005157	0.224839	0.048942	0.973166	-0.017633	0.998779	-0.046156	-0.974236	-0.006782	0.225427
29232	9.514634	-0.456388	2.181794	0.001755	-0.000421	0.005085	0.224843	0.048938	0.973165	-0.017616	0.998779	-0.046156	-0.974236	-0.006765	0.225430
29233	9.546785	-0.440685	2.222725	0.004253	-0.001656	0.007652	0.224833	0.048957	0.973167	-0.017636	0.998778	-0.046171	-0.974238	-0.006782	0.225421
29234	9.520019	-0.454337	2.205186	0.003375	-0.001445	0.005110	0.224826	0.048953	0.973168	-0.017634	0.998778	-0.046167	-0.974239	-0.006782	0.225415
29235	9.557413	-0.437843	2.169054	0.003375	-0.001445	0.005110	0.224817	0.048948	0.973171	-0.017636	0.998778	-0.046162	-0.974241	-0.006785	0.225406
29236	9.541413	-0.445027	2.198805	0.007232	-0.000260	0.003386	0.224823	0.048927	0.973170	-0.017668	0.998779	-0.046133	-0.974239	-0.006822	0.225413
29237	9.509551	-0.433527	2.204400	-0.001226	-0.001815	0.009352	0.224816	0.048963	0.973170	-0.017631	0.998778	-0.046178	-0.974242	-0.006776	0.225405
29238	9.519990	-0.456340	2.204895	0.003875	0.001113	0.007303	0.224835	0.048981	0.973165	-0.017639	0.998777	-0.046194	-0.974237	-0.006780	0.225424
29239	9.535858	-0.475574	2.228910	0.001997	-0.003792	0.000374	0.224806	0.048928	0.973174	-0.017615	0.998779	-0.046147	-0.974244	-0.006769	0.225393
29240	9.541418	-0.446809	2.198425	0.004618	0.000299	0.004785	0.224817	0.048921	0.973172	-0.017625	0.998780	-0.046136	-0.974242	-0.006780	0.225405
29241	9.546788	-0.444170	2.222016	0.000760	-0.000885	0.006508	0.224811	0.048929	0.973173	-0.017614	0.998779	-0.046148	-0.974243	-0.006767	0.225399
29242	9.488126	-0.445737	2.210323	0.002998	0.001323	0.004761	0.224832	0.048921	0.973169	-0.017608	0.998780	-0.046141	-0.974238	-0.006761	0.225419
29243	9.562740	-0.438264	2.192218	0.002380	-0.001909	0.006533	0.224818	0.048932	0.973171	-0.017598	0.998779	-0.046154	-0.974242	-0.006750	0.225404
29244	9.530378	-0.480800	2.205240	0.006112	0.003322	0.005556	0.224858	0.048932	0.973162	-0.017624	0.998779	-0.046148	-0.974232	-0.006774	0.225446
29245	9.504335	-0.411907	2.227407	-0.000117	-0.000674	0.003966	0.224861	0.048915	0.973162	-0.017588	0.998780	-0.046139	-0.974232	-0.006741	0.225447
29246	9.541282	-0.449500	2.198465	0.006613	-0.003493	0.005160	0.224835	0.048911	0.973168	-0.017618	0.998780	-0.046128	-0.974238	-0.006774	0.225423
29247	9.525633	-0.428567	2.274740	0.004249	-0.001653	0.007655	0.224827	0.048931	0.973169	-0.017635	0.998779	-0.046144	-0.974239	-0.006788	0.225416
29248	9.530853	-0.428446	2.197613	-0.000117	-0.000674	0.003966	0.224829	0.048915	0.973170	-0.017597	0.998780	-0.046137	-0.974239	-0.006752	0.225416
29249	9.519930	-0.460874	2.204211	0.004992	-0.002468	0.005136	0.224814	0.048911	0.973173	-0.017607	0.998780	-0.046130	-0.974243	-0.006764	0.225401
29250	9.536284	-0.426179	2.220887	0.002379	-0.001908	0.006534	0.224803	0.048920	0.973175	-0.017598	0.998780	-0.046142	-0.974245	-0.006753	0.225390
29251	9.519954	-0.461793	2.203914	0.006236	-0.000725	0.004810	0.224805	0.048912	0.973175	-0.017626	0.998780	-0.046127	-0.974244	-0.006784	0.225393
29252	9.568114	-0.439063	2.215120	0.006486	0.000554	0.005907	0.224819	0.048916	0.973172	-0.017657	0.998780	-0.046124	-0.974241	-0.006814	0.225408
29253	9.493144	-0.475642	2.186461	0.003121	-0.002722	0.004016	0.224799	0.048901	0.973177	-0.017642	0.998780	-0.046112	-0.974245	-0.006803	0.225388
29254	9.530907	-0.431007	2.196878	0.001384	-0.002371	0.007957	0.224783	0.048925	0.973180	-0.017628	0.998779	-0.046140	-0.974249	-0.006783	0.225371
29255	9.514545	-0.466844	2.179971	0.003873	0.001116	0.007305	0.224800	0.048943	0.973175	-0.017636	0.998779	-0.046157	-0.974245	-0.006787	0.225388
29256	9.525667	-0.432853	2.273786	0.003997	-0.002931	0.006560	0.224779	0.048953	0.973179	-0.017643	0.998778	-0.046165	-0.974250	-0.006793	0.225368
29257	9.546730	-0.451676	2.220752	0.001752	-0.000418	0.005088	0.224783	0.048947	0.973179	-0.017629	0.998778	-0.046163	-0.974249	-0.006780	0.225371
29258	9.483200	-0.402111	2.178115	0.006235	-0.000725	0.004811	0.224784	0.048940	0.973179	-0.017654	0.998779	-0.046149	-0.974249	-0.006807	0.225373
29259	9.573151	-0.467768	2.191389	0.002627	-0.000627	0.007632	0.224784	0.048960	0.973178	-0.017655	0.998778	-0.046170	-0.974249	-0.006803	0.225374
29260	9.530864	-0.434164	2.196445	0.003371	-0.001442	0.005113	0.224778	0.048955	0.973179	-0.017653	0.998778	-0.046166	-0.974250	-0.006802	0.225368
29261	9.514821	-0.441570	2.226326	0.004122	0.002396	0.008403	0.224810	0.048983	0.973171	-0.017671	0.998776	-0.046190	-0.974242	-0.006813	0.225400
29262	9.551660	-0.479415	2.197646	0.003370	-0.001442	0.005114	0.224803	0.048978	0.973172	-0.017669	0.998777	-0.046185	-0.974244	-0.006813	0.225394
29263	9.514794	-0.442699	2.226217	0.001382	-0.002369	0.007959	0.224783	0.049003	0.973176	-0.017656	0.998776	-0.046214	-0.974249	-0.006794	0.225373
29264	9.525230	-0.465271	2.226655	0.002745	0.000046	0.003666	0.224791	0.048984	0.973175	-0.017645	0.998777	-0.046197	-0.974247	-0.006787	0.225381
29265	9.525395	-0.439848	2.172639	0.003370	-0.001442	0.005114	0.224786	0.048979	0.973176	-0.017641	0.998777	-0.046193	-0.974249	-0.006784	0.225375
29266	9.525216	-0.466083	2.226542	0.003620	-0.000162	0.006210	0.224792	0.048986	0.973175	-0.017644	0.998776	-0.046199	-0.974247	-0.006785	0.225381
29267	9.562612	-0.449666	2.190467	0.004363	-0.000979	0.003691	0.224790	0.048967	0.973176	-0.017650	0.998777	-0.046178	-0.974247	-0.006796	0.225380
29268	9.514770	-0.444748	2.225912	0.001750	-0.000417	0.005089	0.224794	0.048962	0.973175	-0.017633	0.998778	-0.046177	-0.974247	-0.006779	0.225383
29269	9.530758	-0.438284	2.196083	0.002745	0.000046	0.003666	0.224801	0.048943	0.973175	-0.017629	0.998779	-0.046158	-0.974245	-0.006779	0.225389
29270	9.509347	-0.448709	2.202242	0.004244	-0.001650	0.007659	0.224792	0.048964	0.973176	-0.017641	0.998777	-0.046177	-0.974247	-0.006788	0.225381
29271	9.536147	-0.436204	2.219526	0.007107	-0.000932	0.007358	0.224788	0.048980	0.973176	-0.017692	0.998776	-0.046182	-0.974247	-0.006836	0.225380
29272	9.536133	-0.436620	2.219505	0.002744	0.000046	0.003666	0.224797	0.048961	0.973175	-0.017681	0.998777	-0.046165	-0.974245	-0.006829	0.225388
29273	9.509295	-0.450130	2.202178	0.002001	0.000864	0.006186	0.224815	0.048968	0.973170	-0.017664	0.998777	-0.046176	-0.974241	-0.006809	0.225405
29274	9.535702	-0.465779	2.172911	0.004362	-0.000979	0.003692	0.224813	0.048949	0.973172	-0.017669	0.998778	-0.046155	-0.974242	-0.006818	0.225404
29275	9.509281	-0.450863	2.202090	0.003368	-0.001441	0.005115	0.224807	0.048945	0.973173	-0.017668	0.998778	-0.046151	-0.974243	-0.006819	0.225397
29276	9.546520	-0.460256	2.219894	0.003368	-0.001441	0.005115	0.224801	0.048940	0.973175	-0.017667	0.998778	-0.046147	-0.974245	-0.006819	0.225391
29277	9.546511	-0.460720	2.219834	0.003618	-0.000161	0.006212	0.224809	0.048946	0.973173	-0.017670	0.998778	-0.046152	-0.974243	-0.006821	0.225399
29278	9.504234	-0.427022	2.224989	0.000131	0.000610	0.005065	0.224823	0.048942	0.973170	-0.017637	0.998779	-0.046155	-0.974240	-0.006787	0.225411
29279	9.509240	-0.452566	2.201913	0.002493	-0.001233	0.002571	0.224817	0.048911	0.973173	-0.017625	0.998780	-0.046127	-0.974242	-0.006782	0.225405
29280	9.541633	-0.411058	2.188855	0.004493	-0.000368	0.008757	0.224821	0.048943	0.973170	-0.017642	0.998778	-0.046155	-0.974240	-0.006792	0.225410
29281	9.541048	-0.465807	2.196087	0.002372	-0.001903	0.006539	0.224810	0.048952	0.973172	-0.017640	0.998778	-0.046165	-0.974243	-0.006788	0.225399
29282	9.509254	-0.454059	2.201549	0.007597	-0.003029	0.003744	0.224789	0.048934	0.973178	-0.017676	0.998779	-0.046138	-0.974247	-0.006831	0.225379
29283	9.530682	-0.444432	2.195180	0.001749	-0.000415	0.005091	0.224792	0.048930	0.973177	-0.017647	0.998779	-0.046141	-0.974247	-0.006801	0.225381
29284	9.520256	-0.422803	2.194595	0.001749	-0.000415	0.005091	0.224796	0.048925	0.973177	-0.017629	0.998779	-0.046140	-0.974246	-0.006784	0.225384
29285	9.525043	-0.474301	2.225546	0.007355	0.000349	0.008457	0.224810	0.048955	0.973172	-0.017663	0.998778	-0.046163	-0.974242	-0.006811	0.225400
29286	9.557431	-0.432827	2.212550	0.006229	-0.000724	0.004816	0.224811	0.048947	0.973172	-0.017688	0.998778	-0.046149	-0.974242	-0.006839	0.225402
29287	9.509176	-0.456358	2.201407	0.001004	0.000404	0.007611	0.224821	0.048968	0.973169	-0.017668	0.998777	-0.046175	-0.974240	-0.006813	0.225412
29288	9.557376	-0.433759	2.212604	0.003737	0.000509	0.002244	0.224835	0.048935	0.973167	-0.017664	0.998779	-0.046142	-0.974237	-0.006815	0.225425
29289	9.509156	-0.457076	2.201347	0.002120	-0.003181	0.005444	0.224808	0.048933	0.973174	-0.017657	0.998779	-0.046142	-0.974243	-0.006811	0.225398
29290	9.562407	-0.459903	2.189235	-0.000242	-0.001337	0.007939	0.224803	0.048957	0.973174	-0.017627	0.998778	-0.046173	-0.974245	-0.006774	0.225391
29291	9.525604	-0.423027	2.217803	0.005977	-0.002004	0.003720	0.224790	0.048938	0.973177	-0.017652	0.998779	-0.046148	-0.974247	-0.006805	0.225380
29292	9.536011	-0.445552	2.218254	0.002621	-0.000621	0.007637	0.224792	0.048959	0.973176	-0.017649	0.998778	-0.046170	-0.974247	-0.006797	0.225381
29293	9.541014	-0.471270	2.195068	0.003114	-0.002720	0.004021	0.224774	0.048943	0.973181	-0.017646	0.998778	-0.046155	-0.974251	-0.006798	0.225363
29294	9.498787	-0.437611	2.200113	0.004741	0.000915	0.009856	0.224790	0.048986	0.973175	-0.017668	0.998776	-0.046194	-0.974247	-0.006810	0.225380
29295	9.519558	-0.482286	2.201235	0.002491	-0.001232	0.002572	0.224786	0.048956	0.973178	-0.017652	0.998778	-0.046167	-0.974248	-0.006801	0.225375
29296	9.547016	-0.415538	2.211124	0.004238	-0.001646	0.007664	0.224777	0.048977	0.973179	-0.017664	0.998777	-0.046186	-0.974250	-0.006809	0.225367
29297	9.540988	-0.473379	2.194727	0.002369	-0.001900	0.006542	0.224766	0.048987	0.973181	-0.017651	0.998776	-0.046199	-0.974253	-0.006794	0.225356
29298	9.525585	-0.426578	2.217203	0.004862	0.001583	0.005887	0.224789	0.048991	0.973175	-0.017666	0.998776	-0.046199	-0.974247	-0.006807	0.225380
29299	9.509112	-0.462180	2.200472	0.001747	-0.000413	0.005092	0.224790	0.048987	0.973175	-0.017643	0.998776	-0.046200	-0.974247	-0.006785	0.225380
29300	9.557591	-0.413850	2.157422	0.004729	-0.003745	0.004049	0.224762	0.048972	0.973182	-0.017652	0.998777	-0.046183	-0.974254	-0.006799	0.225352
29301	9.498739	-0.440998	2.199641	0.001254	0.001688	0.008709	0.224784	0.049003	0.973176	-0.017639	0.998776	-0.046218	-0.974249	-0.006777	0.225373
29302	9.562730	-0.437549	2.235082	0.002993	0.001329	0.004765	0.224805	0.048995	0.973171	-0.017633	0.998776	-0.046211	-0.974244	-0.006771	0.225393
29303	9.504071	-0.438731	2.223408	0.002490	-0.001232	0.002573	0.224801	0.048966	0.973174	-0.017610	0.998778	-0.046186	-0.974246	-0.006755	0.225388
29304	9.509022	-0.464478	2.200378	0.004739	0.000917	0.009858	0.224817	0.049009	0.973168	-0.017632	0.998775	-0.046225	-0.974241	-0.006767	0.225406
29305	9.535807	-0.451931	2.217842	0.005604	0.000763	0.003368	0.224833	0.048986	0.973165	-0.017649	0.998776	-0.046198	-0.974238	-0.006788	0.225422
29306	9.535795	-0.452236	2.217830	0.003362	-0.001438	0.005120	0.224827	0.048982	0.973167	-0.017647	0.998777	-0.046194	-0.974239	-0.006788	0.225416
29307	9.551786	-0.445959	2.187981	0.001997	0.000869	0.006190	0.224846	0.048989	0.973162	-0.017624	0.998776	-0.046206	-0.974235	-0.006762	0.225434
29308	9.488129	-0.422142	2.199409	0.001997	0.000869	0.006190	0.224862	0.048995	0.973158	-0.017611	0.998776	-0.046216	-0.974231	-0.006747	0.225449
29309	9.540715	-0.478902	2.194713	0.006343	-0.004771	0.004077	0.224821	0.048980	0.973168	-0.017641	0.998777	-0.046193	-0.974240	-0.006783	0.225410
29310	9.508951	-0.467002	2.200150	0.006225	-0.000723	0.004819	0.224822	0.048972	0.973168	-0.017667	0.998777	-0.046180	-0.974240	-0.006810	0.225412
29311	9.530801	-0.429211	2.240532	0.001001	0.000409	0.007614	0.224835	0.048992	0.973165	-0.017650	0.998776	-0.046204	-0.974237	-0.006788	0.225424
29312	9.556685	-0.473535	2.164757	0.004860	0.001584	0.005889	0.224858	0.048996	0.973159	-0.017664	0.998776	-0.046204	-0.974231	-0.006801	0.225448
29313	9.503867	-0.443326	2.223370	0.003612	-0.000157	0.006217	0.224863	0.049002	0.973157	-0.017672	0.998775	-0.046208	-0.974230	-0.006807	0.225454
29314	9.572402	-0.493395	2.189042	0.004608	0.000303	0.004793	0.224874	0.048994	0.973155	-0.017682	0.998776	-0.046198	-0.974227	-0.006818	0.225465
29315	9.530660	-0.431024	2.240783	0.002740	0.000049	0.003670	0.224880	0.048975	0.973155	-0.017675	0.998777	-0.046180	-0.974226	-0.006816	0.225471
29316	9.524787	-0.463097	2.170471	0.001369	-0.002357	0.007970	0.224865	0.048999	0.973157	-0.017661	0.998776	-0.046208	-0.974230	-0.006796	0.225455
29317	9.509240	-0.441983	2.246783	-0.000123	-0.000665	0.003971	0.224866	0.048983	0.973158	-0.017625	0.998777	-0.046199	-0.974230	-0.006763	0.225454
29318	9.541259	-0.428971	2.187047	0.007095	-0.000928	0.007367	0.224865	0.049001	0.973157	-0.017665	0.998776	-0.046209	-0.974230	-0.006800	0.225455
29319	9.530137	-0.461684	2.193983	0.001503	0.002973	0.009808	0.224898	0.049043	0.973147	-0.017657	0.998774	-0.046254	-0.974222	-0.006780	0.225488
29320	9.493360	-0.424719	2.222696	0.002236	-0.002513	0.001478	0.224882	0.049002	0.973153	-0.017636	0.998776	-0.046217	-0.974226	-0.006769	0.225471
29321	9.540967	-0.456117	2.241029	0.003360	-0.001437	0.005122	0.224878	0.048997	0.973154	-0.017638	0.998776	-0.046211	-0.974227	-0.006772	0.225467
29322	9.487950	-0.428639	2.198926	0.003863	0.001125	0.007314	0.224896	0.049015	0.973149	-0.017646	0.998775	-0.046228	-0.974223	-0.006775	0.225486
29323	9.519738	-0.441313	2.193200	0.003107	-0.002718	0.004026	0.224882	0.048998	0.973153	-0.017644	0.998776	-0.046211	-0.974226	-0.006778	0.225471
29324	9.535548	-0.460632	2.217163	0.006842	-0.002209	0.006272	0.224868	0.049005	0.973156	-0.017678	0.998775	-0.046210	-0.974229	-0.006812	0.225459
29325	9.519778	-0.442108	2.192866	-0.000124	-0.000664	0.003972	0.224867	0.048988	0.973157	-0.017649	0.998776	-0.046200	-0.974230	-0.006786	0.225456
29326	9.535532	-0.461589	2.217032	0.000999	0.000412	0.007616	0.224879	0.049009	0.973154	-0.017630	0.998775	-0.046225	-0.974227	-0.006761	0.225467
29327	9.556967	-0.452076	2.210704	0.008581	-0.002572	0.002328	0.224865	0.048975	0.973158	-0.017671	0.998777	-0.046181	-0.974230	-0.006812	0.225456
29328	9.471486	-0.466180	2.181557	0.001743	-0.000409	0.005096	0.224869	0.048971	0.973158	-0.017653	0.998777	-0.046181	-0.974229	-0.006795	0.225459
29329	9.605042	-0.455466	2.275580	0.004974	-0.002463	0.005150	0.224856	0.048967	0.973161	-0.017662	0.998777	-0.046175	-0.974232	-0.006805	0.225445
29330	9.434300	-0.457849	2.163366	0.004354	-0.000977	0.003698	0.224854	0.048949	0.973162	-0.017666	0.998778	-0.046155	-0.974232	-0.006814	0.225444
29331	9.616139	-0.424239	2.268525	0.000747	-0.000868	0.006521	0.224854	0.048958	0.973162	-0.017638	0.998778	-0.046172	-0.974233	-0.006782	0.225443
29332	9.492181	-0.512115	2.182397	0.001994	0.000873	0.006192	0.224870	0.048965	0.973158	-0.017625	0.998778	-0.046181	-0.974229	-0.006767	0.225458
29333	9.536754	-0.381919	2.255633	0.006840	-0.002208	0.006274	0.224855	0.048972	0.973161	-0.017657	0.998777	-0.046182	-0.974232	-0.006799	0.225445
29334	9.545376	-0.515434	2.170385	0.000127	0.000618	0.005069	0.224869	0.048968	0.973158	-0.017623	0.998777	-0.046185	-0.974230	-0.006765	0.225457
29335	9.472671	-0.386527	2.220322	0.004478	-0.000314	-0.000274	0.224875	0.048910	0.973159	-0.017614	0.998780	-0.046128	-0.974228	-0.006768	0.225462
29336	9.609391	-0.512066	2.205739	0.000254	0.001237	0.010138	0.224894	0.048956	0.973153	-0.017593	0.998778	-0.046179	-0.974224	-0.006735	0.225480
29337	9.397439	-0.423391	2.192043	0.010079	0.000449	0.003097	0.224907	0.048930	0.973151	-0.017655	0.998779	-0.046139	-0.974220	-0.006804	0.225497
29338	9.658881	-0.407684	2.256000	-0.005976	-0.002750	0.008549	0.224888	0.048960	0.973154	-0.017569	0.998778	-0.046189	-0.974226	-0.006710	0.225473
29339	9.432864	-0.544417	2.124147	0.009712	0.003216	0.002741	0.224927	0.048932	0.973146	-0.017626	0.998779	-0.046147	-0.974216	-0.006773	0.225515
29340	9.564760	-0.289373	2.312097	-0.004614	-0.005058	0.007480	0.224885	0.048951	0.973155	-0.017551	0.998779	-0.046184	-0.974227	-0.006694	0.225470
29341	9.521739	-0.665127	2.144917	0.009838	0.003835	0.007811	0.224928	0.048974	0.973144	-0.017615	0.998777	-0.046192	-0.974216	-0.006752	0.225515
29342	9.517915	-0.204976	2.286271	0.004478	-0.000315	-0.000274	0.224934	0.048916	0.973145	-0.017612	0.998780	-0.046133	-0.974215	-0.006762	0.225521
29343	9.537691	-0.659059	2.115173	0.002234	-0.002555	0.010523	0.224916	0.048964	0.973147	-0.017612	0.998778	-0.046184	-0.974219	-0.006751	0.225503
29344	9.517152	-0.259847	2.293638	0.008841	0.003419	0.000193	0.224958	0.048911	0.973140	-0.017652	0.998780	-0.046119	-0.974209	-0.006803	0.225547
29345	9.560324	-0.567489	2.148199	-0.004111	-0.002493	0.009673	0.224941	0.048952	0.973142	-0.017589	0.998778	-0.046176	-0.974214	-0.006729	0.225527
29346	9.488196	-0.410482	2.244629	0.010329	0.001730	0.004194	0.224966	0.048938	0.973137	-0.017652	0.998779	-0.046147	-0.974207	-0.006797	0.225555
29347	9.562325	-0.431996	2.179875	-0.003115	-0.002035	0.008249	0.224952	0.048965	0.973139	-0.017593	0.998778	-0.046188	-0.974211	-0.006730	0.225539
29348	9.513198	-0.509402	2.176315	0.009711	0.003215	0.002742	0.224992	0.048937	0.973131	-0.017647	0.998779	-0.046146	-0.974201	-0.006790	0.225581
29349	9.515786	-0.344879	2.254498	-0.003746	-0.005259	0.010031	0.224943	0.048980	0.973140	-0.017598	0.998777	-0.046203	-0.974213	-0.006733	0.225530
29350	9.502131	-0.542330	2.182735	0.007706	-0.002370	-0.000218	0.224929	0.048923	0.973146	-0.017627	0.998780	-0.046137	-0.974216	-0.006776	0.225517
29351	9.558762	-0.325906	2.241510	-0.001867	-0.000294	0.007920	0.224932	0.048947	0.973144	-0.017577	0.998779	-0.046173	-0.974216	-0.006719	0.225517
29352	9.555349	-0.545752	2.170578	0.005838	-0.002665	0.007703	0.224913	0.048968	0.973148	-0.017605	0.998778	-0.046189	-0.974220	-0.006744	0.225500
29353	9.494451	-0.356685	2.259986	0.005220	-0.001179	0.006250	0.224907	0.048975	0.973149	-0.017627	0.998777	-0.046191	-0.974221	-0.006765	0.225496
29354	9.550442	-0.521475	2.193357	0.001740	-0.000406	0.005098	0.224911	0.048970	0.973148	-0.017609	0.998777	-0.046190	-0.974220	-0.006748	0.225499
29355	9.526226	-0.369783	2.254180	0.007830	-0.001749	0.004853	0.224900	0.048963	0.973151	-0.017652	0.998777	-0.046173	-0.974222	-0.006794	0.225489
29356	9.518651	-0.510069	2.198897	0.000995	0.000419	0.007620	0.224911	0.048984	0.973147	-0.017633	0.998777	-0.046198	-0.974220	-0.006769	0.225500
29357	9.530568	-0.424347	2.184555	0.007957	-0.001089	0.000879	0.224908	0.048937	0.973150	-0.017665	0.998779	-0.046143	-0.974220	-0.006813	0.225498
29358	9.599496	-0.446292	2.196893	-0.000494	0.002069	0.012663	0.224935	0.049008	0.973141	-0.017642	0.998775	-0.046221	-0.974214	-0.006772	0.225524
29359	9.450135	-0.461590	2.233255	0.007704	-0.002372	-0.000217	0.224919	0.048950	0.973147	-0.017673	0.998778	-0.046155	-0.974217	-0.006817	0.225509
29360	9.594601	-0.421836	2.219734	0.001612	-0.001065	0.009074	0.224916	0.048985	0.973146	-0.017663	0.998776	-0.046193	-0.974218	-0.006799	0.225506
29361	9.497111	-0.522178	2.205016	0.006215	-0.000721	0.004826	0.224917	0.048979	0.973146	-0.017678	0.998777	-0.046184	-0.974218	-0.006816	0.225507
29362	9.558255	-0.359668	2.193999	0.000854	-0.004911	0.005786	0.224877	0.048981	0.973155	-0.017653	0.998777	-0.046192	-0.974227	-0.006792	0.225466
29363	9.469994	-0.561695	2.241351	0.004854	0.001589	0.005894	0.224897	0.048985	0.973150	-0.017671	0.998776	-0.046191	-0.974222	-0.006808	0.225488
29364	9.579691	-0.350647	2.187670	0.007211	-0.000265	0.003401	0.224903	0.048963	0.973150	-0.017702	0.998777	-0.046162	-0.974220	-0.006845	0.225495
29365	9.517702	-0.568220	2.205946	-0.004479	0.000281	0.009320	0.224878	0.048906	0.973159	-0.017571	0.998781	-0.046133	-0.974229	-0.006725	0.225463
29366	9.515259	-0.381349	2.206585	0.005850	0.002045	0.004469	0.224906	0.048895	0.973153	-0.017592	0.998781	-0.046117	-0.974222	-0.006747	0.225492
29367	9.545366	-0.502087	2.215787	-0.000016	-0.004708	0.003237	0.224866	0.048870	0.973163	-0.017566	0.998783	-0.046097	-0.974231	-0.006729	0.225451
29368	9.535946	-0.426196	2.207399	0.007827	-0.001749	0.004856	0.224857	0.048862	0.973166	-0.017607	0.998783	-0.046080	-0.974233	-0.006773	0.225443
29369	9.541393	-0.423364	2.230859	0.003351	-0.001432	0.005129	0.224846	0.048859	0.973169	-0.017614	0.998783	-0.046075	-0.974235	-0.006781	0.225433
29370	9.535103	-0.481035	2.214745	0.006466	0.000561	0.005924	0.224859	0.048862	0.973165	-0.017644	0.998782	-0.046072	-0.974232	-0.006811	0.225448
29371	9.557374	-0.417503	2.201031	0.002734	0.000053	0.003675	0.224865	0.048844	0.973165	-0.017632	0.998783	-0.046056	-0.974230	-0.006802	0.225452
29372	9.508729	-0.466237	2.244044	0.008079	-0.000466	0.005952	0.224868	0.048848	0.973164	-0.017677	0.998783	-0.046050	-0.974229	-0.006848	0.225458
29373	9.573957	-0.383182	2.217597	0.003966	-0.002915	0.006584	0.224850	0.048859	0.973168	-0.017680	0.998782	-0.046060	-0.974233	-0.006848	0.225440
29374	9.486737	-0.505378	2.203443	0.002482	-0.001230	0.002579	0.224847	0.048829	0.973170	-0.017663	0.998784	-0.046034	-0.974234	-0.006839	0.225436
29375	9.557946	-0.390578	2.247277	0.003855	0.001134	0.007321	0.224865	0.048847	0.973165	-0.017670	0.998783	-0.046050	-0.974230	-0.006841	0.225454
29376	9.502691	-0.499794	2.173638	0.002605	-0.000604	0.007651	0.224866	0.048868	0.973163	-0.017667	0.998782	-0.046072	-0.974229	-0.006832	0.225456
29377	9.558198	-0.366205	2.193165	0.003350	-0.001431	0.005130	0.224860	0.048864	0.973165	-0.017666	0.998782	-0.046068	-0.974231	-0.006833	0.225449
29378	9.523845	-0.516516	2.221274	0.001737	-0.000403	0.005101	0.224864	0.048859	0.973164	-0.017648	0.998782	-0.046067	-0.974230	-0.006816	0.225453
29379	9.552452	-0.395709	2.223597	0.005596	0.000763	0.003374	0.224878	0.048839	0.973162	-0.017658	0.998783	-0.046044	-0.974227	-0.006830	0.225467
29380	9.524653	-0.463112	2.213876	0.000124	0.000626	0.005072	0.224892	0.048834	0.973159	-0.017624	0.998784	-0.046047	-0.974224	-0.006796	0.225479
29381	9.525514	-0.409353	2.206348	0.008821	-0.001293	0.003432	0.224886	0.048811	0.973162	-0.017677	0.998784	-0.046012	-0.974225	-0.006856	0.225475
29382	9.567553	-0.444273	2.201258	-0.001871	-0.000285	0.007924	0.224891	0.048835	0.973159	-0.017631	0.998784	-0.046046	-0.974225	-0.006802	0.225478
29383	9.498295	-0.448764	2.243053	0.008205	0.000191	0.001978	0.224903	0.048799	0.973159	-0.017656	0.998785	-0.046004	-0.974221	-0.006836	0.225491
29384	9.557253	-0.422822	2.200540	0.003964	-0.002914	0.006586	0.224882	0.048809	0.973163	-0.017664	0.998785	-0.046012	-0.974226	-0.006842	0.225471
29385	9.534911	-0.487135	2.214236	0.004598	0.000308	0.004801	0.224894	0.048800	0.973160	-0.017676	0.998785	-0.046000	-0.974223	-0.006857	0.225483
29386	9.552399	-0.398332	2.223356	0.003348	-0.001430	0.005131	0.224888	0.048796	0.973162	-0.017674	0.998785	-0.045996	-0.974224	-0.006856	0.225477
29387	9.534893	-0.487873	2.214151	0.002733	0.000054	0.003676	0.224897	0.048778	0.973161	-0.017657	0.998786	-0.045982	-0.974223	-0.006842	0.225485
29388	9.509478	-0.418757	2.235740	-0.000512	-0.002595	0.006858	0.224879	0.048790	0.973164	-0.017621	0.998786	-0.046003	-0.974227	-0.006803	0.225466
29389	9.556362	-0.479033	2.207642	0.002733	0.000054	0.003676	0.224889	0.048772	0.973163	-0.017606	0.998787	-0.045988	-0.974225	-0.006791	0.225475
29390	9.525528	-0.412953	2.205617	0.006572	-0.003487	0.005190	0.224863	0.048768	0.973169	-0.017635	0.998787	-0.045977	-0.974231	-0.006824	0.225450
29391	9.546073	-0.457893	2.206827	-0.001366	0.002283	0.010117	0.224894	0.048813	0.973160	-0.017591	0.998785	-0.046033	-0.974224	-0.006767	0.225480
29392	9.514252	-0.446212	2.212664	0.009324	0.001272	0.005626	0.224915	0.048814	0.973155	-0.017649	0.998785	-0.046020	-0.974219	-0.006824	0.225503
29393	9.525121	-0.440313	2.259790	-0.000513	-0.002594	0.006859	0.224899	0.048826	0.973158	-0.017609	0.998784	-0.046042	-0.974223	-0.006782	0.225485
29394	9.513642	-0.475656	2.165963	0.007206	-0.000265	0.003405	0.224904	0.048805	0.973158	-0.017641	0.998785	-0.046013	-0.974221	-0.006819	0.225492
29395	9.530879	-0.412290	2.229114	0.003347	-0.001429	0.005132	0.224896	0.048800	0.973160	-0.017644	0.998785	-0.046008	-0.974223	-0.006823	0.225484
29396	9.507920	-0.505053	2.196195	0.006570	-0.003486	0.005191	0.224870	0.048796	0.973166	-0.017673	0.998785	-0.045997	-0.974228	-0.006856	0.225459
29397	9.520665	-0.390899	2.228083	-0.000130	-0.000655	0.003978	0.224872	0.048780	0.973167	-0.017634	0.998786	-0.045990	-0.974229	-0.006819	0.225459
29398	9.550844	-0.486350	2.183481	0.003852	0.001137	0.007324	0.224890	0.048798	0.973161	-0.017641	0.998785	-0.046006	-0.974224	-0.006822	0.225478
29399	9.520614	-0.392020	2.228106	0.004213	-0.001629	0.007685	0.224878	0.048819	0.973163	-0.017660	0.998784	-0.046024	-0.974227	-0.006836	0.225467
29400	9.497567	-0.485008	2.195434	0.000375	0.001912	0.006170	0.224904	0.048825	0.973157	-0.017631	0.998784	-0.046037	-0.974221	-0.006804	0.225492
29401	9.535654	-0.440545	2.205841	0.007819	-0.001749	0.004862	0.224899	0.048818	0.973158	-0.017667	0.998784	-0.046021	-0.974222	-0.006842	0.225488
29402	9.509364	-0.425426	2.234967	0.000736	-0.000854	0.006530	0.224898	0.048828	0.973158	-0.017642	0.998784	-0.046037	-0.974223	-0.006815	0.225486
29403	9.519006	-0.476545	2.189000	0.004343	-0.000974	0.003707	0.224894	0.048810	0.973160	-0.017654	0.998785	-0.046015	-0.974223	-0.006832	0.225482
29404	9.515138	-0.397525	2.204247	0.000483	-0.002137	0.005435	0.224881	0.048808	0.973163	-0.017625	0.998785	-0.046021	-0.974227	-0.006802	0.225468
29405	9.556190	-0.486558	2.206739	0.006460	0.000564	0.005928	0.224894	0.048811	0.973160	-0.017653	0.998785	-0.046017	-0.974223	-0.006831	0.225483
29406	9.503934	-0.430288	2.211000	0.006567	-0.003486	0.005193	0.224868	0.048807	0.973166	-0.017683	0.998785	-0.046006	-0.974229	-0.006863	0.225458
29407	9.534725	-0.497244	2.212791	0.000988	0.000431	0.007627	0.224881	0.048828	0.973162	-0.017665	0.998784	-0.046031	-0.974226	-0.006839	0.225470
29408	9.557140	-0.433886	2.198876	0.005953	-0.002003	0.003737	0.224869	0.048810	0.973166	-0.017685	0.998785	-0.046008	-0.974228	-0.006865	0.225459
29409	9.503950	-0.431517	2.210692	0.004342	-0.000974	0.003708	0.224868	0.048792	0.973167	-0.017684	0.998785	-0.045990	-0.974229	-0.006868	0.225457
29410	9.541126	-0.441040	2.228574	0.001733	-0.000399	0.005105	0.224872	0.048787	0.973166	-0.017666	0.998786	-0.045990	-0.974228	-0.006850	0.225461
29411	9.487272	-0.467371	2.193956	0.006206	-0.000719	0.004833	0.224874	0.048780	0.973166	-0.017683	0.998786	-0.045978	-0.974227	-0.006869	0.225464
29412	9.557128	-0.435291	2.198647	0.003597	-0.000144	0.006230	0.224880	0.048787	0.973164	-0.017686	0.998786	-0.045984	-0.974226	-0.006870	0.225470
29413	9.508738	-0.458441	2.187527	0.003090	-0.002711	0.004039	0.224861	0.048773	0.973169	-0.017671	0.998786	-0.045973	-0.974231	-0.006860	0.225450
29414	9.557778	-0.407495	2.244989	0.002984	0.001339	0.004774	0.224882	0.048765	0.973165	-0.017665	0.998787	-0.045967	-0.974226	-0.006854	0.225471
29415	9.545893	-0.468261	2.205428	0.002477	-0.001228	0.002583	0.224877	0.048735	0.973168	-0.017650	0.998788	-0.045939	-0.974227	-0.006846	0.225465
29416	9.509384	-0.430800	2.233849	0.004954	-0.002456	0.005165	0.224861	0.048731	0.973171	-0.017663	0.998788	-0.045932	-0.974231	-0.006861	0.225450
29417	9.578611	-0.427433	2.191954	0.000987	0.000433	0.007628	0.224873	0.048751	0.973168	-0.017650	0.998788	-0.045956	-0.974228	-0.006842	0.225461
29418	9.508686	-0.460398	2.187341	0.007456	0.001018	0.004503	0.224891	0.048740	0.973164	-0.017686	0.998788	-0.045936	-0.974223	-0.006881	0.225480
29419	9.572748	-0.457099	2.222652	0.000987	0.000433	0.007628	0.224901	0.048761	0.973161	-0.017662	0.998787	-0.045963	-0.974222	-0.006851	0.225490
29420	9.535563	-0.448381	2.204657	0.005951	-0.002003	0.003739	0.224890	0.048743	0.973164	-0.017683	0.998788	-0.045940	-0.974224	-0.006877	0.225479
29421	9.504526	-0.407785	2.256597	0.003955	-0.002909	0.006593	0.224864	0.048754	0.973170	-0.017687	0.998787	-0.045951	-0.974230	-0.006880	0.225454
29422	9.561515	-0.490384	2.229302	0.006710	0.001849	0.007026	0.224890	0.048769	0.973163	-0.017722	0.998786	-0.045958	-0.974223	-0.006911	0.225481
29423	9.493612	-0.414999	2.209336	0.001969	-0.003795	0.000392	0.224866	0.048717	0.973171	-0.017688	0.998789	-0.045912	-0.974229	-0.006890	0.225455
29424	9.530153	-0.453217	2.180559	0.003462	-0.000793	0.010212	0.224865	0.048763	0.973169	-0.017698	0.998787	-0.045957	-0.974229	-0.006889	0.225455
29425	9.530807	-0.425208	2.226997	0.004340	-0.000973	0.003709	0.224863	0.048745	0.973170	-0.017702	0.998787	-0.045938	-0.974230	-0.006897	0.225453
29426	9.514121	-0.460738	2.210249	0.002343	-0.001878	0.006564	0.224852	0.048755	0.973172	-0.017693	0.998787	-0.045950	-0.974232	-0.006887	0.225442
29427	9.530793	-0.426137	2.226877	0.004846	0.001595	0.005901	0.224873	0.048758	0.973167	-0.017712	0.998787	-0.045949	-0.974227	-0.006904	0.225464
29428	9.551235	-0.470835	2.228255	0.006203	-0.000718	0.004836	0.224874	0.048751	0.973168	-0.017737	0.998787	-0.045935	-0.974226	-0.006932	0.225466
29429	9.519848	-0.433318	2.179733	-0.000133	-0.000650	0.003980	0.224875	0.048735	0.973168	-0.017698	0.998788	-0.045929	-0.974227	-0.006895	0.225465
29430	9.509300	-0.436982	2.233007	0.006561	-0.003484	0.005198	0.224849	0.048731	0.973174	-0.017727	0.998788	-0.045918	-0.974232	-0.006927	0.225441
29431	9.550920	-0.474960	2.127338	0.002117	0.001539	0.002222	0.224874	0.048697	0.973170	-0.017702	0.998790	-0.045889	-0.974227	-0.006908	0.225464
29432	9.520524	-0.405764	2.226028	0.002595	-0.000593	0.007660	0.224876	0.048718	0.973169	-0.017699	0.998789	-0.045911	-0.974227	-0.006899	0.225466
29433	9.550520	-0.501427	2.181490	0.003594	-0.000141	0.006233	0.224880	0.048724	0.973168	-0.017711	0.998788	-0.045914	-0.974226	-0.006911	0.225470
29434	9.515040	-0.409964	2.202391	0.004338	-0.000973	0.003710	0.224879	0.048706	0.973169	-0.017716	0.998789	-0.045894	-0.974226	-0.006920	0.225469
29435	9.519481	-0.461203	2.233472	0.002341	-0.001877	0.006565	0.224865	0.048715	0.973171	-0.017714	0.998789	-0.045905	-0.974229	-0.006917	0.225456
29436	9.557017	-0.445444	2.197099	0.004949	-0.002454	0.005169	0.224849	0.048711	0.973175	-0.017728	0.998789	-0.045897	-0.974232	-0.006932	0.225441
29437	9.540991	-0.452399	2.226875	0.003593	-0.000140	0.006234	0.224854	0.048718	0.973174	-0.017727	0.998789	-0.045905	-0.974231	-0.006929	0.225446
29438	9.535554	-0.456102	2.203108	0.003697	-0.004190	0.005501	0.224822	0.048718	0.973181	-0.017729	0.998789	-0.045904	-0.974239	-0.006933	0.225413
29439	9.493630	-0.422082	2.207918	0.000985	0.000438	0.007631	0.224840	0.048738	0.973176	-0.017700	0.998788	-0.045931	-0.974235	-0.006898	0.225430
29440	9.551228	-0.476095	2.227167	0.004337	-0.000972	0.003711	0.224839	0.048719	0.973177	-0.017705	0.998789	-0.045911	-0.974235	-0.006907	0.225429
29441	9.520549	-0.409919	2.225161	0.004591	0.000312	0.004807	0.224852	0.048713	0.973175	-0.017705	0.998789	-0.045904	-0.974232	-0.006908	0.225442
29442	9.557021	-0.448257	2.196510	-0.000522	-0.002582	0.006867	0.224834	0.048725	0.973178	-0.017669	0.998789	-0.045926	-0.974237	-0.006870	0.225423
29443	9.503821	-0.446048	2.208359	0.004591	0.000312	0.004807	0.224844	0.048718	0.973176	-0.017680	0.998789	-0.045915	-0.974234	-0.006882	0.225433
29444	9.536239	-0.430211	2.249106	0.003084	-0.002708	0.004044	0.224826	0.048702	0.973181	-0.017673	0.998790	-0.045901	-0.974239	-0.006879	0.225414
29445	9.567281	-0.471704	2.196728	0.003949	-0.002905	0.006598	0.224801	0.048713	0.973186	-0.017689	0.998789	-0.045908	-0.974244	-0.006894	0.225390
29446	9.483072	-0.428483	2.260737	0.003846	0.001145	0.007330	0.224820	0.048730	0.973181	-0.017696	0.998788	-0.045924	-0.974240	-0.006897	0.225410
29447	9.561805	-0.475886	2.173007	0.005692	-0.003287	0.002647	0.224792	0.048702	0.973189	-0.017713	0.998789	-0.045891	-0.974246	-0.006922	0.225383
29448	9.530843	-0.435005	2.224949	0.004336	-0.000972	0.003712	0.224791	0.048683	0.973190	-0.017718	0.998790	-0.045871	-0.974246	-0.006931	0.225382
29449	9.535585	-0.460865	2.201985	0.002593	-0.000590	0.007663	0.224792	0.048704	0.973189	-0.017715	0.998789	-0.045894	-0.974246	-0.006924	0.225383
29450	9.519525	-0.467893	2.231891	0.006453	0.000567	0.005934	0.224805	0.048708	0.973186	-0.017745	0.998789	-0.045890	-0.974242	-0.006953	0.225397
29451	9.530782	-0.436532	2.224910	0.000729	-0.000844	0.006537	0.224802	0.048718	0.973186	-0.017729	0.998789	-0.045904	-0.974243	-0.006934	0.225394
29452	9.535530	-0.462329	2.201917	0.002473	-0.001227	0.002586	0.224799	0.048688	0.973188	-0.017712	0.998790	-0.045877	-0.974244	-0.006924	0.225389
29453	9.520563	-0.415182	2.224126	0.007316	0.000371	0.008489	0.224810	0.048719	0.973184	-0.017746	0.998788	-0.045901	-0.974241	-0.006951	0.225402
29454	9.551523	-0.456811	2.171985	0.003336	-0.001423	0.005141	0.224804	0.048714	0.973185	-0.017744	0.998789	-0.045897	-0.974242	-0.006950	0.225396
29455	9.520564	-0.416174	2.223937	0.000475	-0.002128	0.005442	0.224793	0.048713	0.973188	-0.017710	0.998789	-0.045903	-0.974246	-0.006917	0.225383
29456	9.535512	-0.464274	2.201585	0.007061	-0.000913	0.007394	0.224791	0.048731	0.973188	-0.017749	0.998788	-0.045913	-0.974245	-0.006953	0.225384
29457	9.515095	-0.420512	2.200167	0.000728	-0.000843	0.006538	0.224791	0.048740	0.973187	-0.017726	0.998787	-0.045928	-0.974246	-0.006926	0.225382
29458	9.513982	-0.475033	2.207823	0.004589	0.000313	0.004809	0.224802	0.048733	0.973185	-0.017735	0.998788	-0.045918	-0.974243	-0.006937	0.225393
29459	9.510314	-0.395864	2.223121	0.005587	0.000764	0.003381	0.224819	0.048710	0.973182	-0.017749	0.998789	-0.045892	-0.974239	-0.006955	0.225411
29460	9.582799	-0.497411	2.220161	0.002336	-0.001873	0.006569	0.224808	0.048720	0.973184	-0.017740	0.998788	-0.045904	-0.974241	-0.006945	0.225400
29461	9.493562	-0.431751	2.206341	0.005943	-0.002002	0.003745	0.224797	0.048703	0.973188	-0.017756	0.998789	-0.045882	-0.974244	-0.006966	0.225390
29462	9.530717	-0.441457	2.224216	0.000982	0.000443	0.007634	0.224809	0.048723	0.973184	-0.017737	0.998788	-0.045908	-0.974241	-0.006940	0.225401
29463	9.525224	-0.445210	2.200646	0.006196	-0.000717	0.004841	0.224810	0.048715	0.973184	-0.017769	0.998788	-0.045892	-0.974241	-0.006975	0.225403
29464	9.547471	-0.407318	2.240685	0.002336	-0.001872	0.006570	0.224799	0.048725	0.973186	-0.017760	0.998788	-0.045904	-0.974243	-0.006965	0.225392
29465	9.545610	-0.490440	2.201831	0.002725	0.000059	0.003682	0.224811	0.048706	0.973184	-0.017741	0.998789	-0.045889	-0.974241	-0.006949	0.225403
29466	9.515012	-0.424320	2.199794	0.003589	-0.000136	0.006238	0.224817	0.048712	0.973183	-0.017744	0.998789	-0.045895	-0.974239	-0.006950	0.225409
29467	9.546308	-0.462705	2.248308	0.003588	-0.000136	0.006238	0.224822	0.048719	0.973181	-0.017753	0.998788	-0.045899	-0.974238	-0.006958	0.225414
29468	9.514950	-0.425208	2.199892	0.003978	0.001794	0.003350	0.224848	0.048697	0.973176	-0.017753	0.998789	-0.045877	-0.974232	-0.006962	0.225440
29469	9.530602	-0.444417	2.224120	0.003080	-0.002706	0.004047	0.224829	0.048683	0.973181	-0.017738	0.998790	-0.045866	-0.974237	-0.006950	0.225421
29470	9.530594	-0.444882	2.224061	0.003842	0.001149	0.007334	0.224848	0.048700	0.973176	-0.017746	0.998789	-0.045882	-0.974232	-0.006953	0.225440
29471	9.514910	-0.426574	2.199799	0.004196	-0.001616	0.007699	0.224839	0.048722	0.973177	-0.017759	0.998788	-0.045901	-0.974234	-0.006963	0.225431
29472	9.530571	-0.446037	2.223929	0.003333	-0.001421	0.005143	0.224833	0.048718	0.973179	-0.017757	0.998788	-0.045897	-0.974236	-0.006962	0.225425
29473	9.530551	-0.446519	2.223916	0.001980	0.000895	0.006207	0.224852	0.048724	0.973174	-0.017740	0.998788	-0.045907	-0.974231	-0.006942	0.225444
29474	9.535242	-0.472423	2.201021	0.003333	-0.001421	0.005143	0.224846	0.048719	0.973176	-0.017738	0.998788	-0.045903	-0.974233	-0.006941	0.225438
29475	9.531668	-0.393433	2.216141	0.003587	-0.000135	0.006239	0.224853	0.048725	0.973174	-0.017744	0.998788	-0.045908	-0.974231	-0.006946	0.225445
29476	9.513681	-0.483049	2.207377	0.004840	0.001600	0.005906	0.224877	0.048729	0.973168	-0.017758	0.998788	-0.045908	-0.974225	-0.006958	0.225469
29477	9.541799	-0.416486	2.216882	0.003078	-0.002706	0.004049	0.224858	0.048713	0.973173	-0.017750	0.998789	-0.045894	-0.974230	-0.006954	0.225450
29478	9.519550	-0.455196	2.176575	0.003332	-0.001420	0.005144	0.224852	0.048709	0.973175	-0.017747	0.998789	-0.045891	-0.974231	-0.006953	0.225444
29479	9.578965	-0.426682	2.234598	0.000979	0.000447	0.007636	0.224863	0.048730	0.973171	-0.017731	0.998788	-0.045916	-0.974229	-0.006930	0.225454
29480	9.492162	-0.494540	2.213355	0.003077	-0.002706	0.004049	0.224844	0.048715	0.973176	-0.017723	0.998789	-0.045902	-0.974233	-0.006927	0.225435
29481	9.541803	-0.418394	2.216502	0.003840	0.001151	0.007335	0.224861	0.048733	0.973171	-0.017733	0.998788	-0.045918	-0.974229	-0.006932	0.225453
29482	9.503479	-0.463699	2.206197	0.002078	-0.003155	0.005478	0.224838	0.048732	0.973177	-0.017720	0.998788	-0.045921	-0.974235	-0.006920	0.225429
29483	9.541839	-0.419370	2.216166	0.004938	-0.002451	0.005177	0.224826	0.048727	0.973180	-0.017728	0.998788	-0.045914	-0.974238	-0.006930	0.225417
29484	9.525043	-0.455136	2.199399	0.002194	-0.002512	0.010558	0.224809	0.048777	0.973181	-0.017727	0.998786	-0.045965	-0.974242	-0.006918	0.225400
29485	9.509387	-0.436777	2.175069	0.005585	0.000764	0.003383	0.224826	0.048754	0.973178	-0.017744	0.998787	-0.045938	-0.974237	-0.006939	0.225419
29486	9.530522	-0.452628	2.222807	0.005683	-0.003287	0.002653	0.224803	0.048725	0.973185	-0.017759	0.998788	-0.045905	-0.974242	-0.006963	0.225396
29487	9.514858	-0.434095	2.198552	0.000626	0.003214	0.007271	0.224844	0.048741	0.973175	-0.017734	0.998787	-0.045927	-0.974233	-0.006932	0.225436
29488	9.552007	-0.444000	2.216381	0.004290	-0.005664	0.006973	0.224797	0.048755	0.973185	-0.017745	0.998787	-0.045939	-0.974244	-0.006942	0.225389
29489	9.514872	-0.435310	2.198249	0.003839	0.001152	0.007336	0.224814	0.048773	0.973180	-0.017758	0.998786	-0.045954	-0.974240	-0.006951	0.225407
29490	9.541851	-0.422905	2.215442	0.004937	-0.002450	0.005178	0.224798	0.048769	0.973184	-0.017772	0.998786	-0.045947	-0.974243	-0.006967	0.225391
29491	9.541072	-0.452000	2.168839	0.003330	-0.001419	0.005146	0.224795	0.048763	0.973185	-0.017770	0.998786	-0.045941	-0.974244	-0.006967	0.225389
29492	9.520379	-0.433356	2.221442	0.004936	-0.002450	0.005179	0.224779	0.048759	0.973189	-0.017784	0.998786	-0.045934	-0.974247	-0.006982	0.225373
29493	9.552065	-0.446281	2.215672	-0.000138	-0.000642	0.003986	0.224779	0.048745	0.973190	-0.017739	0.998787	-0.045930	-0.974248	-0.006940	0.225371
29494	9.525841	-0.431096	2.244898	0.004700	0.000959	0.009894	0.224795	0.048788	0.973184	-0.017761	0.998785	-0.045969	-0.974244	-0.006951	0.225388
29495	9.552005	-0.447410	2.215700	0.002468	-0.001225	0.002590	0.224791	0.048758	0.973186	-0.017748	0.998786	-0.045941	-0.974245	-0.006945	0.225383
29496	9.498001	-0.473515	2.181227	0.006445	0.000570	0.005941	0.224804	0.048762	0.973183	-0.017778	0.998786	-0.045938	-0.974242	-0.006974	0.225398
29497	9.515625	-0.410271	2.244203	0.002584	-0.000581	0.007671	0.224804	0.048783	0.973182	-0.017774	0.998785	-0.045961	-0.974242	-0.006965	0.225398
29498	9.535120	-0.483888	2.199056	0.004935	-0.002450	0.005180	0.224788	0.048779	0.973186	-0.017787	0.998785	-0.045954	-0.974245	-0.006980	0.225382
29499	9.526989	-0.379463	2.236987	0.003838	0.001154	0.007337	0.224808	0.048796	0.973180	-0.017795	0.998784	-0.045969	-0.974241	-0.006984	0.225403
29500	9.561267	-0.500765	2.169782	0.000467	-0.002120	0.005448	0.224795	0.048795	0.973184	-0.017766	0.998785	-0.045974	-0.974244	-0.006954	0.225389
29501	9.515630	-0.412333	2.243803	0.006795	-0.002195	0.006308	0.224780	0.048802	0.973187	-0.017799	0.998784	-0.045975	-0.974247	-0.006988	0.225375
29502	9.524973	-0.463559	2.197944	0.002467	-0.001225	0.002590	0.224776	0.048772	0.973189	-0.017783	0.998786	-0.045948	-0.974248	-0.006978	0.225371
29503	9.536318	-0.432088	2.190946	0.006698	0.001857	0.007037	0.224804	0.048787	0.973182	-0.017814	0.998785	-0.045955	-0.974241	-0.007006	0.225399
29504	9.530402	-0.461173	2.221565	0.000467	-0.002120	0.005449	0.224791	0.048786	0.973185	-0.017785	0.998785	-0.045961	-0.974245	-0.006976	0.225385
29505	9.530836	-0.436313	2.167177	0.004933	-0.002449	0.005181	0.224781	0.048781	0.973187	-0.017788	0.998785	-0.045955	-0.974247	-0.006981	0.225376
29506	9.525779	-0.436499	2.244118	0.002721	0.000062	0.003686	0.224790	0.048762	0.973186	-0.017777	0.998786	-0.045939	-0.974245	-0.006974	0.225384
29507	9.540563	-0.484541	2.221941	0.005188	-0.001163	0.006276	0.224785	0.048769	0.973187	-0.017799	0.998786	-0.045940	-0.974246	-0.006995	0.225380
29508	9.553184	-0.399129	2.207046	-0.000140	-0.000640	0.003987	0.224787	0.048753	0.973188	-0.017760	0.998787	-0.045933	-0.974246	-0.006959	0.225380
29509	9.493263	-0.453802	2.203199	0.002721	0.000062	0.003686	0.224792	0.048733	0.973187	-0.017758	0.998788	-0.045914	-0.974245	-0.006961	0.225385
29510	9.536324	-0.434875	2.190370	0.006538	-0.003480	0.005215	0.224766	0.048730	0.973193	-0.017787	0.998788	-0.045903	-0.974250	-0.006993	0.225361
29511	9.535107	-0.489440	2.197884	0.001326	-0.002311	0.008007	0.224752	0.048753	0.973196	-0.017775	0.998787	-0.045930	-0.974254	-0.006976	0.225346
29512	9.531676	-0.410680	2.212979	0.004091	0.002442	0.008434	0.224783	0.048782	0.973187	-0.017788	0.998785	-0.045956	-0.974246	-0.006981	0.225378
29513	9.524871	-0.468500	2.197340	0.004581	0.000317	0.004815	0.224793	0.048775	0.973185	-0.017789	0.998785	-0.045949	-0.974244	-0.006982	0.225387
29514	9.531621	-0.411587	2.213047	0.004931	-0.002448	0.005182	0.224777	0.048771	0.973189	-0.017802	0.998785	-0.045942	-0.974248	-0.006998	0.225372
29515	9.551043	-0.485140	2.167949	0.001720	-0.000385	0.005116	0.224782	0.048766	0.973188	-0.017782	0.998786	-0.045941	-0.974247	-0.006979	0.225377
29516	9.478440	-0.409481	2.224871	0.001720	-0.000385	0.005116	0.224786	0.048761	0.973187	-0.017764	0.998786	-0.045941	-0.974246	-0.006961	0.225380
29517	9.562006	-0.479513	2.214945	0.006791	-0.002194	0.006311	0.224773	0.048769	0.973190	-0.017797	0.998786	-0.045941	-0.974249	-0.006993	0.225368
29518	9.514750	-0.448150	2.196197	0.004466	-0.000331	-0.000268	0.224779	0.048711	0.973192	-0.017793	0.998788	-0.045882	-0.974247	-0.007003	0.225373
29519	9.547695	-0.407075	2.182629	-0.001536	-0.003011	0.008310	0.224755	0.048739	0.973196	-0.017751	0.998787	-0.045921	-0.974254	-0.006954	0.225347
29520	9.513508	-0.503061	2.203650	0.004325	-0.000969	0.003720	0.224753	0.048720	0.973197	-0.017755	0.998788	-0.045901	-0.974254	-0.006963	0.225346
29521	9.537584	-0.385883	2.181664	0.002580	-0.000576	0.007675	0.224757	0.048740	0.973195	-0.017750	0.998787	-0.045923	-0.974253	-0.006952	0.225349
29522	9.529488	-0.497832	2.173725	0.003835	0.001157	0.007340	0.224776	0.048758	0.973190	-0.017757	0.998786	-0.045939	-0.974249	-0.006955	0.225369
29523	9.521484	-0.393337	2.211658	0.006185	-0.000715	0.004849	0.224777	0.048750	0.973190	-0.017781	0.998787	-0.045926	-0.974248	-0.006981	0.225371
29524	9.530324	-0.469976	2.220055	0.000463	-0.002116	0.005452	0.224765	0.048749	0.973193	-0.017752	0.998787	-0.045931	-0.974251	-0.006952	0.225357
29525	9.521519	-0.394233	2.211345	0.006789	-0.002193	0.006313	0.224752	0.048755	0.973196	-0.017789	0.998786	-0.045929	-0.974254	-0.006990	0.225346
29526	9.524841	-0.474194	2.196247	0.000114	0.000649	0.005083	0.224766	0.048750	0.973193	-0.017756	0.998787	-0.045932	-0.974251	-0.006956	0.225359
29527	9.531603	-0.417265	2.212059	0.009045	-0.000014	0.004549	0.224771	0.048741	0.973192	-0.017806	0.998787	-0.045911	-0.974249	-0.007010	0.225366
29528	9.556461	-0.487501	2.190577	-0.001397	-0.002370	0.004323	0.224756	0.048729	0.973196	-0.017756	0.998788	-0.045910	-0.974253	-0.006962	0.225349
29529	9.504590	-0.430873	2.194662	0.004579	0.000318	0.004816	0.224771	0.048720	0.973193	-0.017759	0.998788	-0.045900	-0.974250	-0.006966	0.225364
29530	9.541726	-0.440647	2.212521	0.000463	-0.002116	0.005452	0.224758	0.048719	0.973196	-0.017729	0.998788	-0.045906	-0.974253	-0.006936	0.225350
29531	9.530314	-0.472869	2.219483	0.006184	-0.000714	0.004850	0.224758	0.048713	0.973196	-0.017754	0.998789	-0.045893	-0.974253	-0.006963	0.225350
29532	9.542624	-0.412725	2.258675	0.000462	-0.002115	0.005453	0.224745	0.048711	0.973199	-0.017724	0.998789	-0.045899	-0.974256	-0.006934	0.225336
29533	9.529413	-0.502589	2.172962	0.000369	0.001937	0.006179	0.224772	0.048719	0.973193	-0.017687	0.998789	-0.045915	-0.974251	-0.006892	0.225361
29534	9.526992	-0.394799	2.234319	0.006531	-0.003479	0.005219	0.224746	0.048715	0.973199	-0.017716	0.998789	-0.045905	-0.974256	-0.006924	0.225337
29535	9.519295	-0.481376	2.172052	0.000973	0.000459	0.007643	0.224762	0.048736	0.973194	-0.017686	0.998788	-0.045933	-0.974253	-0.006887	0.225352
29536	9.499932	-0.408563	2.217081	0.006580	0.001209	0.001957	0.224782	0.048700	0.973191	-0.017708	0.998790	-0.045891	-0.974248	-0.006918	0.225373
29537	9.546249	-0.469230	2.189435	-0.000887	0.000205	0.006514	0.224794	0.048710	0.973188	-0.017660	0.998789	-0.045912	-0.974246	-0.006865	0.225382
29538	9.537031	-0.418608	2.235042	0.006928	-0.001556	0.002326	0.224787	0.048677	0.973191	-0.017686	0.998791	-0.045873	-0.974247	-0.006900	0.225376
29539	9.536159	-0.447776	2.188487	0.001320	-0.002305	0.008013	0.224774	0.048701	0.973193	-0.017669	0.998790	-0.045901	-0.974251	-0.006878	0.225362
29540	9.520141	-0.454484	2.218240	0.006928	-0.001556	0.002326	0.224767	0.048668	0.973196	-0.017695	0.998791	-0.045861	-0.974252	-0.006913	0.225356
29541	9.526982	-0.397532	2.233878	0.000717	-0.000827	0.006549	0.224766	0.048678	0.973196	-0.017671	0.998791	-0.045877	-0.974252	-0.006886	0.225355
29542	9.530233	-0.477615	2.218814	0.007040	-0.000905	0.007411	0.224765	0.048696	0.973195	-0.017710	0.998790	-0.045887	-0.974252	-0.006922	0.225356
29543	9.521485	-0.401806	2.210130	-0.000398	-0.001923	0.002895	0.224753	0.048669	0.973200	-0.017671	0.998791	-0.045868	-0.974256	-0.006889	0.225341
29544	9.530225	-0.478562	2.218643	0.002831	0.000715	0.008773	0.224767	0.048702	0.973195	-0.017672	0.998790	-0.045901	-0.974252	-0.006882	0.225356
29545	9.472872	-0.425393	2.199235	0.005180	-0.001159	0.006282	0.224761	0.048709	0.973196	-0.017697	0.998789	-0.045903	-0.974253	-0.006905	0.225351
29546	9.551734	-0.470067	2.212177	0.003321	-0.001413	0.005153	0.224755	0.048705	0.973197	-0.017694	0.998789	-0.045899	-0.974255	-0.006904	0.225345
29547	9.537023	-0.422788	2.234289	0.004833	0.001606	0.005913	0.224778	0.048709	0.973192	-0.017705	0.998789	-0.045901	-0.974249	-0.006913	0.225368
29548	9.509952	-0.436139	2.217125	-0.001144	-0.001080	0.005421	0.224776	0.048707	0.973192	-0.017660	0.998789	-0.045910	-0.974251	-0.006867	0.225364
29549	9.530168	-0.480929	2.218376	0.009132	-0.004067	0.003826	0.224744	0.048690	0.973201	-0.017709	0.998790	-0.045880	-0.974257	-0.006923	0.225335
29550	9.537494	-0.398850	2.179722	0.000971	0.000462	0.007645	0.224756	0.048711	0.973197	-0.017689	0.998789	-0.045906	-0.974254	-0.006897	0.225346
29551	9.519181	-0.488347	2.170993	0.005669	-0.003288	0.002663	0.224730	0.048682	0.973204	-0.017705	0.998790	-0.045874	-0.974260	-0.006922	0.225320
29552	9.515506	-0.434443	2.240152	0.002228	0.002195	0.007310	0.224759	0.048700	0.973197	-0.017697	0.998790	-0.045893	-0.974254	-0.006908	0.225348
29553	9.546166	-0.476516	2.188226	0.000715	-0.000824	0.006550	0.224756	0.048711	0.973197	-0.017666	0.998789	-0.045912	-0.974255	-0.006874	0.225345
29554	9.494383	-0.419990	2.192200	0.003921	-0.002890	0.006620	0.224736	0.048722	0.973201	-0.017673	0.998789	-0.045922	-0.974259	-0.006879	0.225325
29555	9.524634	-0.487187	2.194300	0.003575	-0.000125	0.006250	0.224743	0.048729	0.973199	-0.017674	0.998788	-0.045928	-0.974258	-0.006878	0.225332
29556	9.536997	-0.427320	2.233536	0.003431	-0.000759	0.010241	0.224742	0.048775	0.973197	-0.017684	0.998786	-0.045974	-0.974258	-0.006878	0.225332
29557	9.541555	-0.453471	2.210663	-0.000144	-0.000634	0.003991	0.224746	0.048758	0.973197	-0.017646	0.998787	-0.045965	-0.974258	-0.006843	0.225334
29558	9.541580	-0.453840	2.210481	0.006525	-0.003478	0.005224	0.224720	0.048755	0.973203	-0.017675	0.998787	-0.045955	-0.974263	-0.006874	0.225309
29559	9.494348	-0.422859	2.191800	0.001481	0.003039	0.009836	0.224760	0.048797	0.973192	-0.017662	0.998785	-0.046001	-0.974254	-0.006850	0.225349
29560	9.563088	-0.445386	2.204052	0.005411	-0.004576	0.001569	0.224724	0.048757	0.973202	-0.017672	0.998787	-0.045958	-0.974262	-0.006871	0.225313
29561	9.531502	-0.432986	2.209471	0.003574	-0.000124	0.006250	0.224730	0.048763	0.973200	-0.017676	0.998787	-0.045963	-0.974261	-0.006873	0.225319
29562	9.525987	-0.436741	2.185856	0.003318	-0.001412	0.005156	0.224724	0.048759	0.973202	-0.017673	0.998787	-0.045960	-0.974262	-0.006871	0.225313
29563	9.531485	-0.433841	2.209377	0.004575	0.000320	0.004820	0.224736	0.048751	0.973199	-0.017680	0.998787	-0.045950	-0.974259	-0.006880	0.225325
29564	9.519992	-0.466038	2.216479	0.005176	-0.001157	0.006286	0.224732	0.048759	0.973200	-0.017699	0.998787	-0.045954	-0.974260	-0.006897	0.225323
29565	9.531464	-0.434810	2.209277	0.000713	-0.000822	0.006552	0.224856	0.048776	0.973170	-0.017416	0.998788	-0.046036	-0.974236	-0.006598	0.225433
29566	9.541527	-0.457665	2.209922	0.004174	-0.001601	0.007717	0.224848	0.048798	0.973171	-0.017428	0.998787	-0.046056	-0.974238	-0.006605	0.225425
29567	9.509919	-0.445396	2.215425	0.002460	-0.001222	0.002596	0.224842	0.048768	0.973174	-0.017418	0.998788	-0.046028	-0.974239	-0.006602	0.225420
29568	9.563075	-0.449011	2.203372	0.004430	-0.000313	0.008812	0.224847	0.048801	0.973171	-0.017435	0.998787	-0.046057	-0.974238	-0.006611	0.225425
29569	9.519962	-0.468672	2.216055	0.003316	-0.001411	0.005157	0.224843	0.048796	0.973172	-0.017425	0.998787	-0.046055	-0.974239	-0.006602	0.225421
29570	9.521396	-0.415088	2.208056	0.003316	-0.001411	0.005157	0.224838	0.048792	0.973174	-0.017422	0.998787	-0.046051	-0.974240	-0.006601	0.225415
29571	9.547023	-0.456807	2.233036	0.002571	-0.000566	0.007683	0.224839	0.048815	0.973172	-0.017420	0.998786	-0.046075	-0.974240	-0.006593	0.225417
29572	9.553012	-0.428750	2.202232	0.004062	-0.002256	0.002631	0.224826	0.048785	0.973177	-0.017419	0.998787	-0.046045	-0.974243	-0.006600	0.225403
29573	9.531456	-0.438691	2.208543	0.007289	0.000386	0.008512	0.224840	0.048811	0.973172	-0.017451	0.998786	-0.046064	-0.974239	-0.006626	0.225419
29574	9.509862	-0.448789	2.214986	0.000111	0.000656	0.005087	0.224855	0.048806	0.973169	-0.017417	0.998787	-0.046067	-0.974237	-0.006592	0.225432
29575	9.557523	-0.455832	2.179267	0.004516	-0.004364	0.008090	0.224819	0.048831	0.973176	-0.017440	0.998785	-0.046087	-0.974244	-0.006611	0.225398
29576	9.493855	-0.456078	2.244564	0.002715	0.000066	0.003691	0.224828	0.048812	0.973175	-0.017428	0.998786	-0.046070	-0.974243	-0.006603	0.225406
29577	9.552987	-0.431159	2.201870	0.001713	-0.000377	0.005123	0.224833	0.048807	0.973174	-0.017414	0.998786	-0.046069	-0.974242	-0.006589	0.225410
29578	9.525910	-0.444450	2.184637	0.005173	-0.001156	0.006288	0.224829	0.048814	0.973175	-0.017432	0.998786	-0.046072	-0.974242	-0.006606	0.225407
29579	9.536961	-0.438340	2.231556	0.002056	-0.003141	0.005495	0.224809	0.048811	0.973179	-0.017410	0.998786	-0.046073	-0.974247	-0.006586	0.225386
29580	9.530456	-0.470934	2.161597	0.004829	0.001609	0.005916	0.224833	0.048814	0.973174	-0.017424	0.998786	-0.046074	-0.974242	-0.006598	0.225411
29581	9.526895	-0.416958	2.230703	0.003058	-0.002698	0.004064	0.224815	0.048798	0.973179	-0.017418	0.998787	-0.046059	-0.974246	-0.006596	0.225392
29582	9.556047	-0.512859	2.186588	0.002971	0.001354	0.004787	0.224836	0.048791	0.973174	-0.017411	0.998787	-0.046052	-0.974241	-0.006590	0.225413
29583	9.489779	-0.408151	2.212645	0.005661	-0.003289	0.002668	0.224814	0.048762	0.973181	-0.017428	0.998789	-0.046019	-0.974246	-0.006615	0.225391
29584	9.573097	-0.478629	2.202715	0.000564	-0.001449	0.010548	0.224807	0.048812	0.973180	-0.017411	0.998786	-0.046074	-0.974248	-0.006586	0.225384
29585	9.509889	-0.453891	2.213830	0.003314	-0.001410	0.005159	0.224801	0.048809	0.973181	-0.017414	0.998786	-0.046071	-0.974249	-0.006590	0.225378
29586	9.547484	-0.438593	2.177436	0.001712	-0.000376	0.005124	0.224806	0.048805	0.973181	-0.017396	0.998787	-0.046071	-0.974248	-0.006572	0.225382
29587	9.514404	-0.480298	2.190894	0.003313	-0.001409	0.005159	0.224798	0.048801	0.973183	-0.017393	0.998787	-0.046068	-0.974250	-0.006571	0.225374
29588	9.521426	-0.423372	2.206353	0.003057	-0.002698	0.004064	0.224780	0.048786	0.973188	-0.017386	0.998788	-0.046054	-0.974255	-0.006567	0.225355
29589	9.551551	-0.490515	2.208526	0.003570	-0.000121	0.006254	0.224788	0.048790	0.973185	-0.017382	0.998787	-0.046059	-0.974253	-0.006562	0.225363
29590	9.538442	-0.389462	2.222654	0.001822	0.000283	0.010212	0.224798	0.048837	0.973181	-0.017376	0.998785	-0.046108	-0.974251	-0.006545	0.225373
29591	9.502841	-0.514235	2.197726	0.003313	-0.001409	0.005160	0.224795	0.048832	0.973182	-0.017358	0.998786	-0.046107	-0.974251	-0.006528	0.225370
29592	9.522376	-0.396731	2.252511	0.004571	0.000321	0.004823	0.224806	0.048825	0.973179	-0.017367	0.998786	-0.046098	-0.974249	-0.006539	0.225381
29593	9.541414	-0.470470	2.207719	0.001711	-0.000375	0.005124	0.224809	0.048821	0.973179	-0.017360	0.998786	-0.046095	-0.974248	-0.006532	0.225384
29594	9.552963	-0.439126	2.200400	0.006515	-0.003477	0.005231	0.224784	0.048817	0.973185	-0.017389	0.998786	-0.046085	-0.974254	-0.006563	0.225360
29595	9.521391	-0.426866	2.205831	0.000709	-0.000816	0.006556	0.224783	0.048825	0.973185	-0.017355	0.998786	-0.046101	-0.974254	-0.006527	0.225358
29596	9.509857	-0.459126	2.212891	0.003312	-0.001409	0.005160	0.224778	0.048821	0.973186	-0.017352	0.998786	-0.046097	-0.974256	-0.006525	0.225352
29597	9.548496	-0.414899	2.222752	0.005915	-0.002001	0.003764	0.224770	0.048800	0.973189	-0.017364	0.998787	-0.046073	-0.974257	-0.006542	0.225344
29598	9.563046	-0.463021	2.200598	0.003312	-0.001408	0.005161	0.224764	0.048796	0.973191	-0.017361	0.998787	-0.046070	-0.974259	-0.006541	0.225339
29599	9.509912	-0.460280	2.212411	-0.002409	-0.002800	0.005764	0.224745	0.048798	0.973195	-0.017302	0.998788	-0.046085	-0.974264	-0.006480	0.225316
29600	9.547529	-0.445249	2.175889	0.006024	-0.001341	0.008854	0.224739	0.048831	0.973195	-0.017334	0.998786	-0.046112	-0.974265	-0.006506	0.225313
29601	9.489854	-0.417004	2.210671	0.006428	0.000576	0.005954	0.224750	0.048836	0.973192	-0.017366	0.998785	-0.046110	-0.974262	-0.006537	0.225325
29602	9.563037	-0.465267	2.200161	0.002308	-0.001849	0.006593	0.224740	0.048846	0.973194	-0.017357	0.998785	-0.046123	-0.974264	-0.006526	0.225314
29603	9.509893	-0.462498	2.212032	0.003311	-0.001408	0.005161	0.224737	0.048839	0.973195	-0.017345	0.998785	-0.046118	-0.974265	-0.006516	0.225311
29604	9.516982	-0.405474	2.227437	0.005657	-0.003290	0.002671	0.224713	0.048810	0.973202	-0.017360	0.998787	-0.046085	-0.974270	-0.006539	0.225288
29605	9.541502	-0.476001	2.206153	0.001221	0.001763	0.008747	0.224742	0.048837	0.973194	-0.017324	0.998786	-0.046121	-0.974264	-0.006494	0.225315
29606	9.516943	-0.406281	2.227457	0.004461	-0.000339	-0.000265	0.224748	0.048779	0.973195	-0.017320	0.998788	-0.046062	-0.974263	-0.006504	0.225320
29607	9.547004	-0.473341	2.229671	0.001305	-0.002289	0.008026	0.224732	0.048803	0.973198	-0.017317	0.998787	-0.046088	-0.974267	-0.006495	0.225304
29608	9.526985	-0.429415	2.227954	0.003310	-0.001407	0.005162	0.224726	0.048799	0.973199	-0.017314	0.998787	-0.046084	-0.974268	-0.006494	0.225299
29609	9.499897	-0.442625	2.210682	0.003310	-0.001407	0.005162	0.224720	0.048796	0.973201	-0.017311	0.998788	-0.046082	-0.974270	-0.006492	0.225292
29610	9.510398	-0.440152	2.157154	0.004569	0.000322	0.004825	0.224731	0.048789	0.973199	-0.017320	0.998788	-0.046072	-0.974267	-0.006502	0.225304
29611	9.542488	-0.449617	2.252198	0.001966	0.000916	0.006221	0.224748	0.048796	0.973194	-0.017312	0.998788	-0.046081	-0.974263	-0.006491	0.225320
29612	9.525913	-0.459935	2.181419	0.002795	-0.003985	0.002973	0.224718	0.048770	0.973203	-0.017300	0.998789	-0.046058	-0.974270	-0.006486	0.225289
29613	9.516979	-0.409173	2.226775	0.003566	-0.000118	0.006257	0.224724	0.048775	0.973201	-0.017300	0.998789	-0.046063	-0.974269	-0.006485	0.225296
29614	9.530381	-0.486373	2.158504	0.000109	0.000662	0.005090	0.224739	0.048771	0.973198	-0.017266	0.998789	-0.046066	-0.974266	-0.006450	0.225309
29615	9.526936	-0.432332	2.227599	0.006169	-0.000712	0.004861	0.224740	0.048764	0.973198	-0.017288	0.998789	-0.046054	-0.974265	-0.006475	0.225311
29616	9.504299	-0.471075	2.187651	0.001709	-0.000372	0.005127	0.224745	0.048760	0.973197	-0.017270	0.998790	-0.046054	-0.974265	-0.006457	0.225315
29617	9.554026	-0.420289	2.244661	0.004311	-0.000966	0.003731	0.224744	0.048744	0.973198	-0.017278	0.998790	-0.046036	-0.974265	-0.006468	0.225314
29618	9.531373	-0.459049	2.204761	0.001966	0.000917	0.006221	0.224761	0.048751	0.973194	-0.017265	0.998790	-0.046046	-0.974261	-0.006452	0.225331
29619	9.536883	-0.456140	2.228320	0.004311	-0.000966	0.003731	0.224759	0.048732	0.973195	-0.017273	0.998791	-0.046025	-0.974261	-0.006465	0.225329
29620	9.515830	-0.440897	2.180307	0.000448	-0.002101	0.005465	0.224747	0.048731	0.973198	-0.017243	0.998791	-0.046030	-0.974265	-0.006436	0.225315
29621	9.499810	-0.447261	2.210121	0.007916	-0.001121	0.000902	0.224743	0.048686	0.973201	-0.017275	0.998793	-0.045977	-0.974265	-0.006479	0.225313
29622	9.584523	-0.463846	2.192426	-0.001043	-0.000402	0.010519	0.224746	0.048736	0.973198	-0.017242	0.998791	-0.046035	-0.974265	-0.006434	0.225315
29623	9.495345	-0.422570	2.232706	0.007659	-0.002410	-0.000192	0.224730	0.048679	0.973204	-0.017285	0.998793	-0.045968	-0.974268	-0.006491	0.225300
29624	9.531386	-0.461200	2.204255	0.000962	0.000478	0.007655	0.224742	0.048700	0.973201	-0.017265	0.998793	-0.045994	-0.974265	-0.006466	0.225311
29625	9.536877	-0.458449	2.227869	0.006424	0.000578	0.005957	0.224755	0.048705	0.973197	-0.017300	0.998792	-0.045990	-0.974262	-0.006499	0.225326
29626	9.538448	-0.404890	2.219871	0.003307	-0.001406	0.005164	0.224750	0.048701	0.973199	-0.017297	0.998792	-0.045987	-0.974263	-0.006498	0.225321
29627	9.535759	-0.488288	2.181555	0.003821	0.001173	0.007354	0.224769	0.048718	0.973193	-0.017306	0.998791	-0.046003	-0.974258	-0.006502	0.225341
29628	9.569990	-0.418539	2.214216	0.008512	-0.002596	0.002373	0.224753	0.048686	0.973199	-0.017347	0.998793	-0.045960	-0.974261	-0.006553	0.225326
29629	9.509736	-0.472974	2.210491	-0.001302	-0.001689	0.009426	0.224743	0.048725	0.973199	-0.017308	0.998791	-0.046009	-0.974264	-0.006504	0.225314
29630	9.495282	-0.425595	2.232397	0.008172	0.000168	0.001998	0.224753	0.048689	0.973199	-0.017345	0.998792	-0.045964	-0.974261	-0.006550	0.225326
29631	9.594393	-0.490044	2.192902	-0.005097	0.001856	0.007883	0.224779	0.048711	0.973191	-0.017260	0.998792	-0.046006	-0.974257	-0.006456	0.225349
29632	9.501266	-0.398212	2.201766	0.007765	-0.001746	0.004901	0.224770	0.048705	0.973194	-0.017301	0.998792	-0.045990	-0.974258	-0.006500	0.225342
29633	9.526783	-0.440029	2.226746	-0.001303	-0.001688	0.009427	0.224763	0.048742	0.973194	-0.017266	0.998791	-0.046036	-0.974260	-0.006456	0.225333
29634	9.531241	-0.466114	2.203852	0.006911	-0.001561	0.002337	0.224756	0.048710	0.973197	-0.017293	0.998792	-0.045997	-0.974262	-0.006491	0.225327
29635	9.533954	-0.383645	2.242032	-0.000300	-0.001248	0.007994	0.224748	0.048734	0.973197	-0.017260	0.998791	-0.046030	-0.974264	-0.006452	0.225318
29636	9.546784	-0.486102	2.227868	0.002045	-0.003133	0.005504	0.224726	0.048733	0.973203	-0.017246	0.998791	-0.046032	-0.974269	-0.006439	0.225294
29637	9.501332	-0.400856	2.201004	0.003563	-0.000115	0.006260	0.224731	0.048741	0.973201	-0.017252	0.998791	-0.046038	-0.974268	-0.006444	0.225300
29638	9.540169	-0.519162	2.157750	0.005650	-0.003290	0.002675	0.224707	0.048712	0.973208	-0.017267	0.998792	-0.046005	-0.974273	-0.006467	0.225277
29639	9.543972	-0.407761	2.242344	0.000622	0.003245	0.007281	0.224746	0.048730	0.973198	-0.017245	0.998791	-0.046029	-0.974265	-0.006438	0.225315
29640	9.504094	-0.481701	2.186224	0.003305	-0.001404	0.005166	0.224741	0.048726	0.973200	-0.017242	0.998791	-0.046026	-0.974266	-0.006436	0.225309
29641	9.548366	-0.434357	2.219589	0.005161	-0.001150	0.006298	0.224742	0.048729	0.973199	-0.017247	0.998791	-0.046028	-0.974266	-0.006441	0.225311
29642	9.526776	-0.444343	2.225920	0.000702	-0.000808	0.006563	0.224742	0.048739	0.973199	-0.017222	0.998791	-0.046044	-0.974266	-0.006413	0.225310
29643	9.531218	-0.470437	2.203033	0.004903	-0.002439	0.005204	0.224726	0.048735	0.973202	-0.017244	0.998791	-0.046035	-0.974269	-0.006437	0.225295
29644	9.521250	-0.448778	2.202086	0.001555	-0.000992	0.009128	0.224724	0.048771	0.973201	-0.017233	0.998789	-0.046074	-0.974270	-0.006418	0.225293
29645	9.526827	-0.445726	2.225425	0.007398	-0.003703	-0.001285	0.224697	0.048701	0.973211	-0.017257	0.998793	-0.045997	-0.974276	-0.006460	0.225266
29646	9.553943	-0.433276	2.242542	0.001475	0.003062	0.009847	0.224734	0.048744	0.973200	-0.017247	0.998791	-0.046043	-0.974267	-0.006438	0.225303
29647	9.478074	-0.468741	2.214708	0.005648	-0.003290	0.002677	0.224706	0.048718	0.973208	-0.017268	0.998792	-0.046012	-0.974274	-0.006466	0.225276
29648	9.597110	-0.415260	2.229572	0.003561	-0.000114	0.006262	0.224713	0.048725	0.973206	-0.017270	0.998791	-0.046019	-0.974272	-0.006466	0.225283
29649	9.488047	-0.491801	2.215315	0.003303	-0.001403	0.005168	0.224708	0.048722	0.973207	-0.017273	0.998791	-0.046015	-0.974273	-0.006470	0.225278
29650	9.528476	-0.393774	2.217032	0.004901	-0.002439	0.005205	0.224692	0.048719	0.973211	-0.017286	0.998791	-0.046009	-0.974276	-0.006485	0.225263
29651	9.519614	-0.505423	2.209463	0.004564	0.000325	0.004829	0.224701	0.048713	0.973209	-0.017296	0.998792	-0.046000	-0.974274	-0.006497	0.225272
29652	9.533984	-0.391303	2.240579	0.003818	0.001177	0.007357	0.224720	0.048731	0.973204	-0.017304	0.998791	-0.046017	-0.974270	-0.006499	0.225291
