// General information: 
//  MT Manager version: 2019.2.0 
//  XDA version: 2019.2.0 build 3853 rev 94535 built on 2019-09-09
// Device information: 
//  DeviceId: 00B44113
//  ProductCode: MTW2-3A7G6
//  Firmware Version: 4.3.5
//  Hardware Version: 1.1.0
// Device settings: 
//  Filter Profile: human(46.1)
//  Option Flags: Orientation Smoother Disabled, AHS Disabled, ICC Disabled
// Coordinate system: ENU
PacketCounter	Acc_X	Acc_Y	Acc_Z	Gyr_X	Gyr_Y	Gyr_Z	Mat[1][1]	Mat[2][1]	Mat[3][1]	Mat[1][2]	Mat[2][2]	Mat[3][2]	Mat[1][3]	Mat[2][3]	Mat[3][3]
28840	9.635578	0.226704	-1.706151	0.006245	0.001394	-0.000775	-0.130854	-0.122895	0.983755	-0.594465	0.803838	0.021346	-0.793403	-0.582015	-0.178242
28841	9.678307	0.225008	-1.765513	0.005576	0.001181	-0.003442	-0.130860	-0.122900	0.983754	-0.594457	0.803844	0.021349	-0.793408	-0.582005	-0.178250
28842	9.632565	0.196644	-1.757226	0.005522	0.003318	-0.004096	-0.130846	-0.122898	0.983756	-0.594447	0.803851	0.021358	-0.793418	-0.581997	-0.178237
28843	9.668289	0.230071	-1.732333	0.009225	0.002619	-0.003690	-0.130839	-0.122897	0.983757	-0.594468	0.803836	0.021356	-0.793403	-0.582018	-0.178231
28844	9.642742	0.192529	-1.789419	0.006628	0.002663	-0.003164	-0.130835	-0.122891	0.983758	-0.594466	0.803837	0.021355	-0.793406	-0.582017	-0.178225
28845	9.654495	0.190606	-1.730616	0.007067	0.001795	-0.004899	-0.130828	-0.122905	0.983757	-0.594471	0.803833	0.021369	-0.793403	-0.582019	-0.178227
28846	9.637166	0.256242	-1.744968	0.006015	0.000314	-0.005176	-0.130830	-0.122930	0.983754	-0.594469	0.803834	0.021388	-0.793404	-0.582013	-0.178244
28847	9.620963	0.200294	-1.815014	0.008612	0.000272	-0.005701	-0.130830	-0.122959	0.983750	-0.594487	0.803820	0.021408	-0.793391	-0.582026	-0.178262
28848	9.687134	0.194363	-1.757183	0.007735	0.002008	-0.002231	-0.130838	-0.122950	0.983750	-0.594493	0.803816	0.021394	-0.793385	-0.582034	-0.178262
28849	9.645846	0.224432	-1.737580	0.007122	-0.000341	-0.004243	-0.130851	-0.122970	0.983746	-0.594498	0.803813	0.021402	-0.793379	-0.582034	-0.178285
28850	9.664624	0.187424	-1.762986	0.007736	0.002009	-0.002231	-0.130859	-0.122960	0.983746	-0.594504	0.803809	0.021388	-0.793374	-0.582042	-0.178286
28851	9.622641	0.203491	-1.723314	0.004470	0.001838	-0.004372	-0.130854	-0.122969	0.983746	-0.594487	0.803820	0.021402	-0.793387	-0.582024	-0.178287
28852	9.654603	0.192311	-1.729825	0.008349	0.004359	-0.000218	-0.130854	-0.122932	0.983750	-0.594497	0.803814	0.021369	-0.793379	-0.582041	-0.178265
28853	9.678601	0.227789	-1.763543	0.007067	0.001796	-0.004896	-0.130847	-0.122945	0.983750	-0.594502	0.803810	0.021383	-0.793377	-0.582043	-0.178267
28854	9.655370	0.206827	-1.749427	0.008613	0.000273	-0.005698	-0.130849	-0.122975	0.983746	-0.594524	0.803793	0.021401	-0.793360	-0.582060	-0.178287
28855	9.634289	0.227917	-1.795145	0.005522	0.003320	-0.004094	-0.130834	-0.122973	0.983748	-0.594516	0.803799	0.021411	-0.793368	-0.582052	-0.178274
28856	9.642982	0.195525	-1.787799	0.005633	-0.000952	-0.002783	-0.130861	-0.122985	0.983743	-0.594505	0.803807	0.021407	-0.793372	-0.582038	-0.178302
28857	9.668551	0.233557	-1.730402	0.005522	0.003320	-0.004094	-0.130846	-0.122983	0.983745	-0.594496	0.803813	0.021416	-0.793381	-0.582031	-0.178289
28858	9.632940	0.200575	-1.754722	0.006629	0.002666	-0.003161	-0.130842	-0.122977	0.983746	-0.594493	0.803815	0.021415	-0.793384	-0.582029	-0.178282
28859	9.656213	0.222102	-1.768521	0.009227	0.002624	-0.003685	-0.130835	-0.122976	0.983747	-0.594514	0.803800	0.021413	-0.793370	-0.582050	-0.178277
28860	9.655525	0.208238	-1.748407	0.004088	0.000572	-0.001981	-0.130855	-0.122974	0.983745	-0.594492	0.803817	0.021404	-0.793383	-0.582028	-0.178290
28861	9.623620	0.219756	-1.741521	0.007068	0.001798	-0.004894	-0.130848	-0.122988	0.983744	-0.594497	0.803813	0.021419	-0.793380	-0.582030	-0.178293
28862	9.655592	0.208639	-1.747990	0.007243	0.005017	-0.001149	-0.130838	-0.122952	0.983750	-0.594499	0.803812	0.021395	-0.793380	-0.582039	-0.178264
28863	9.633848	0.215477	-1.773515	0.005523	0.003321	-0.004093	-0.130823	-0.122951	0.983752	-0.594491	0.803818	0.021404	-0.793389	-0.582031	-0.178251
28864	9.657094	0.237044	-1.787455	0.005633	-0.000951	-0.002781	-0.130850	-0.122963	0.983747	-0.594481	0.803825	0.021401	-0.793392	-0.582018	-0.178280
28865	9.633848	0.215989	-1.773456	0.006017	0.000317	-0.005170	-0.130853	-0.122988	0.983744	-0.594478	0.803827	0.021420	-0.793394	-0.582011	-0.178296
28866	9.666505	0.218930	-1.800040	0.006191	0.003536	-0.001426	-0.130853	-0.122963	0.983747	-0.594472	0.803831	0.021401	-0.793398	-0.582010	-0.178282
28867	9.646339	0.228277	-1.734338	0.005523	0.003322	-0.004092	-0.130839	-0.122962	0.983749	-0.594464	0.803837	0.021410	-0.793407	-0.582002	-0.178269
28868	9.642652	0.184202	-1.765471	0.006401	0.001585	-0.007559	-0.130819	-0.122999	0.983747	-0.594471	0.803831	0.021451	-0.793404	-0.582003	-0.178276
28869	9.656515	0.224464	-1.766573	0.006191	0.003537	-0.001425	-0.130818	-0.122975	0.983750	-0.594464	0.803836	0.021433	-0.793409	-0.582001	-0.178261
28870	9.632648	0.189127	-1.732145	0.007243	0.005019	-0.001147	-0.130807	-0.122939	0.983756	-0.594464	0.803837	0.021410	-0.793412	-0.582007	-0.178230
28871	9.643541	0.198677	-1.784434	0.008121	0.003282	-0.004614	-0.130790	-0.122941	0.983758	-0.594477	0.803828	0.021420	-0.793405	-0.582019	-0.178218
28872	9.624063	0.222129	-1.738769	0.006631	0.002669	-0.003157	-0.130786	-0.122935	0.983759	-0.594475	0.803829	0.021418	-0.793407	-0.582019	-0.178212
28873	9.656743	0.225100	-1.765245	0.005524	0.003323	-0.004090	-0.130772	-0.122934	0.983761	-0.594466	0.803835	0.021427	-0.793416	-0.582011	-0.178199
28874	9.624848	0.236642	-1.758282	0.008177	0.001147	-0.003957	-0.130775	-0.122944	0.983759	-0.594481	0.803824	0.021430	-0.793404	-0.582023	-0.178208
28875	9.665498	0.192972	-1.757588	0.006631	0.002669	-0.003157	-0.130771	-0.122939	0.983761	-0.594480	0.803825	0.021428	-0.793406	-0.582024	-0.178202
28876	9.656129	0.211769	-1.744645	0.006631	0.002670	-0.003156	-0.130769	-0.122934	0.983762	-0.594482	0.803824	0.021426	-0.793405	-0.582026	-0.178197
28877	9.643072	0.185936	-1.762997	0.008789	0.003499	-0.001945	-0.130765	-0.122914	0.983764	-0.594496	0.803813	0.021408	-0.793394	-0.582045	-0.178183
28878	9.647502	0.244701	-1.751492	0.006019	0.000318	-0.005166	-0.130768	-0.122939	0.983761	-0.594494	0.803814	0.021428	-0.793396	-0.582038	-0.178200
28879	9.635159	0.233045	-1.789808	0.005029	0.006329	-0.003013	-0.130736	-0.122911	0.983769	-0.594480	0.803825	0.021427	-0.793411	-0.582030	-0.178157
28880	9.666422	0.208020	-1.776293	0.007126	-0.000335	-0.004232	-0.130749	-0.122933	0.983764	-0.594486	0.803820	0.021435	-0.793405	-0.582032	-0.178181
28881	9.636760	0.235991	-1.698198	0.006247	0.001404	-0.000766	-0.130770	-0.122916	0.983764	-0.594479	0.803826	0.021410	-0.793406	-0.582027	-0.178187
28882	9.666462	0.208275	-1.776044	0.008122	0.003285	-0.004610	-0.130753	-0.122919	0.983765	-0.594495	0.803814	0.021420	-0.793397	-0.582043	-0.178176
28883	9.656361	0.213110	-1.743192	0.006687	0.000535	-0.002498	-0.130770	-0.122921	0.983763	-0.594494	0.803815	0.021411	-0.793395	-0.582041	-0.178191
28884	9.633847	0.206025	-1.749102	0.006020	0.000319	-0.005164	-0.130773	-0.122945	0.983760	-0.594490	0.803817	0.021430	-0.793398	-0.582033	-0.178207
28885	9.656405	0.213424	-1.742911	0.007910	0.005240	0.001522	-0.130777	-0.122887	0.983766	-0.594493	0.803816	0.021380	-0.793395	-0.582046	-0.178176
28886	9.634657	0.220230	-1.768533	0.006404	0.001586	-0.007553	-0.130755	-0.122923	0.983765	-0.594495	0.803814	0.021421	-0.793397	-0.582043	-0.178180
28887	9.656471	0.213827	-1.742498	0.007354	0.000752	0.000169	-0.130787	-0.122902	0.983763	-0.594496	0.803814	0.021385	-0.793391	-0.582046	-0.178193
28888	9.656506	0.213961	-1.742287	0.007016	0.003939	-0.005543	-0.130759	-0.122909	0.983766	-0.594503	0.803809	0.021406	-0.793390	-0.582053	-0.178175
28889	9.657256	0.228321	-1.762022	0.004474	0.001842	-0.004365	-0.130755	-0.122918	0.983765	-0.594486	0.803820	0.021420	-0.793403	-0.582035	-0.178176
28890	9.657288	0.228586	-1.761817	0.006632	0.002673	-0.003153	-0.130752	-0.122913	0.983766	-0.594488	0.803819	0.021417	-0.793402	-0.582037	-0.178171
28891	9.644240	0.202806	-1.780187	0.006632	0.002673	-0.003153	-0.130748	-0.122908	0.983768	-0.594488	0.803820	0.021415	-0.793404	-0.582038	-0.178165
28892	9.669023	0.226863	-1.702772	0.006248	0.001406	-0.000764	-0.130767	-0.122890	0.983767	-0.594477	0.803828	0.021392	-0.793408	-0.582030	-0.178169
28893	9.634870	0.221651	-1.767189	0.007072	0.001804	-0.004884	-0.130759	-0.122903	0.983767	-0.594482	0.803824	0.021406	-0.793406	-0.582033	-0.178171
28894	9.643603	0.189538	-1.759707	0.006406	0.001587	-0.007550	-0.130739	-0.122940	0.983765	-0.594487	0.803819	0.021447	-0.793405	-0.582032	-0.178177
28895	9.624743	0.227169	-1.734352	0.008235	-0.000984	-0.003292	-0.130763	-0.122957	0.983759	-0.594499	0.803810	0.021443	-0.793392	-0.582040	-0.178207
28896	9.634925	0.222576	-1.766776	0.005696	0.006549	-0.000345	-0.130746	-0.122906	0.983768	-0.594488	0.803819	0.021415	-0.793403	-0.582039	-0.178163
28897	9.656796	0.215969	-1.740431	0.007739	0.002022	-0.002217	-0.130753	-0.122897	0.983768	-0.594495	0.803814	0.021402	-0.793397	-0.582047	-0.178163
28898	9.634313	0.208823	-1.746200	0.007073	0.001805	-0.004883	-0.130746	-0.122910	0.983767	-0.594501	0.803810	0.021416	-0.793394	-0.582050	-0.178165
28899	9.625619	0.241625	-1.753378	0.007740	0.002022	-0.002216	-0.130753	-0.122901	0.983768	-0.594507	0.803805	0.021402	-0.793388	-0.582059	-0.178166
28900	9.644507	0.204593	-1.778536	0.007073	0.001805	-0.004882	-0.130746	-0.122915	0.983767	-0.594514	0.803800	0.021416	-0.793385	-0.582063	-0.178169
28901	9.624972	0.228060	-1.732963	0.008791	0.003507	-0.001939	-0.130743	-0.122895	0.983770	-0.594528	0.803790	0.021399	-0.793374	-0.582081	-0.178154
28902	9.666371	0.198393	-1.752176	0.006022	0.000321	-0.005159	-0.130746	-0.122920	0.983766	-0.594526	0.803791	0.021418	-0.793376	-0.582074	-0.178171
28903	9.635182	0.223799	-1.765220	0.004645	0.005067	-0.000622	-0.130738	-0.122880	0.983772	-0.594506	0.803807	0.021395	-0.793392	-0.582061	-0.178141
28904	9.680244	0.238639	-1.753060	0.008181	0.001154	-0.003946	-0.130741	-0.122890	0.983771	-0.594519	0.803797	0.021398	-0.793381	-0.582073	-0.178150
28905	9.643983	0.191532	-1.757405	0.006633	0.002676	-0.003149	-0.130737	-0.122885	0.983772	-0.594518	0.803798	0.021396	-0.793383	-0.582073	-0.178143
28906	9.644024	0.191719	-1.757160	0.006633	0.002676	-0.003149	-0.130733	-0.122879	0.983773	-0.594517	0.803799	0.021394	-0.793384	-0.582073	-0.178137
28907	9.657127	0.217848	-1.738358	0.007740	0.002024	-0.002214	-0.130740	-0.122870	0.983773	-0.594523	0.803794	0.021381	-0.793378	-0.582081	-0.178137
28908	9.657873	0.231938	-1.758166	0.006633	0.002676	-0.003149	-0.130736	-0.122865	0.983774	-0.594524	0.803794	0.021379	-0.793378	-0.582082	-0.178131
28909	9.665939	0.185509	-1.730488	0.006193	0.003546	-0.001418	-0.130736	-0.122841	0.983778	-0.594517	0.803799	0.021361	-0.793383	-0.582080	-0.178116
28910	9.648509	0.250883	-1.745061	0.006024	0.000322	-0.005156	-0.130739	-0.122864	0.983774	-0.594513	0.803802	0.021379	-0.793386	-0.582071	-0.178132
28911	9.667430	0.213815	-1.770110	0.007244	0.005031	-0.001140	-0.130728	-0.122828	0.983780	-0.594514	0.803801	0.021356	-0.793387	-0.582079	-0.178103
28912	9.666754	0.199996	-1.749875	0.007131	-0.000329	-0.004221	-0.130742	-0.122848	0.983776	-0.594517	0.803799	0.021363	-0.793383	-0.582078	-0.178126
28913	9.612999	0.218048	-1.769205	0.005639	-0.000944	-0.002767	-0.130769	-0.122860	0.983771	-0.594508	0.803806	0.021359	-0.793385	-0.582066	-0.178155
28914	9.666745	0.200401	-1.749878	0.006634	0.002677	-0.003147	-0.130766	-0.122854	0.983772	-0.594506	0.803808	0.021357	-0.793387	-0.582065	-0.178148
28915	9.634840	0.211840	-1.742930	0.006634	0.002678	-0.003147	-0.130762	-0.122849	0.983773	-0.594505	0.803808	0.021355	-0.793388	-0.582066	-0.178142
28916	9.658105	0.233331	-1.756704	0.007685	0.004163	-0.002870	-0.130748	-0.122832	0.983777	-0.594511	0.803804	0.021348	-0.793386	-0.582075	-0.178121
28917	9.667567	0.214991	-1.769216	0.007573	-0.001198	-0.005949	-0.130758	-0.122871	0.983771	-0.594521	0.803796	0.021372	-0.793377	-0.582078	-0.178152
28918	9.644383	0.193876	-1.754951	0.004645	0.005070	-0.000621	-0.130752	-0.122831	0.983777	-0.594503	0.803810	0.021347	-0.793392	-0.582067	-0.178123
28919	9.648767	0.252605	-1.743383	0.008126	0.003293	-0.004599	-0.130735	-0.122834	0.983779	-0.594516	0.803800	0.021356	-0.793385	-0.582080	-0.178111
28920	9.644470	0.194304	-1.754427	0.004533	-0.000292	-0.003701	-0.130750	-0.122850	0.983775	-0.594498	0.803813	0.021365	-0.793396	-0.582058	-0.178133
28921	9.658955	0.248434	-1.775816	0.006634	0.002679	-0.003146	-0.130746	-0.122844	0.983776	-0.594497	0.803814	0.021363	-0.793397	-0.582059	-0.178126
28922	9.666327	0.188150	-1.728037	0.007685	0.004164	-0.002868	-0.130734	-0.122827	0.983780	-0.594504	0.803809	0.021354	-0.793394	-0.582069	-0.178106
28923	9.635851	0.227436	-1.761096	0.006635	0.002679	-0.003145	-0.130730	-0.122821	0.983781	-0.594503	0.803810	0.021352	-0.793395	-0.582070	-0.178100
28924	9.667128	0.202384	-1.747536	0.005142	0.002065	-0.001692	-0.130739	-0.122808	0.983781	-0.594489	0.803820	0.021339	-0.793404	-0.582058	-0.178099
28925	9.635176	0.213888	-1.740819	0.007574	-0.001197	-0.005946	-0.130749	-0.122848	0.983775	-0.594500	0.803812	0.021363	-0.793394	-0.582061	-0.178131
28926	9.679461	0.214997	-1.708885	0.007742	0.002029	-0.002209	-0.130755	-0.122839	0.983775	-0.594506	0.803808	0.021350	-0.793389	-0.582069	-0.178131
28927	9.635222	0.214449	-1.740495	0.008513	0.004561	-0.006985	-0.130714	-0.122853	0.983779	-0.594525	0.803793	0.021383	-0.793381	-0.582086	-0.178106
28928	9.667948	0.217412	-1.766840	0.006193	0.003551	-0.001414	-0.130716	-0.122829	0.983782	-0.594523	0.803795	0.021363	-0.793383	-0.582088	-0.178094
28929	9.644790	0.196196	-1.752452	0.006635	0.002681	-0.003144	-0.130712	-0.122824	0.983783	-0.594522	0.803796	0.021360	-0.793384	-0.582089	-0.178087
28930	9.658562	0.236312	-1.753794	0.006692	0.000545	-0.002485	-0.130729	-0.122827	0.983780	-0.594523	0.803795	0.021353	-0.793380	-0.582089	-0.178102
28931	9.658601	0.236499	-1.753551	0.006579	0.004817	-0.003802	-0.130704	-0.122814	0.983785	-0.594523	0.803795	0.021357	-0.793385	-0.582091	-0.178075
28932	9.654345	0.178165	-1.764476	0.007134	-0.000325	-0.004214	-0.130717	-0.122834	0.983781	-0.594526	0.803793	0.021365	-0.793380	-0.582090	-0.178098
28933	9.657978	0.223062	-1.732961	0.006081	0.007825	-0.002731	-0.130675	-0.122795	0.983791	-0.594520	0.803797	0.021360	-0.793392	-0.582092	-0.178040
28934	9.644972	0.197232	-1.751338	0.006140	-0.003947	-0.003832	-0.130719	-0.122833	0.983781	-0.594514	0.803802	0.021365	-0.793389	-0.582078	-0.178098
28935	9.636224	0.229916	-1.758732	0.007244	0.005039	-0.001136	-0.130709	-0.122797	0.983787	-0.594515	0.803801	0.021342	-0.793390	-0.582086	-0.178069
28936	9.655205	0.192797	-1.783636	0.007078	0.001811	-0.004871	-0.130701	-0.122810	0.983786	-0.594519	0.803798	0.021356	-0.793388	-0.582088	-0.178071
28937	9.636308	0.230345	-1.758217	0.006636	0.002682	-0.003142	-0.130698	-0.122805	0.983787	-0.594518	0.803798	0.021354	-0.793389	-0.582089	-0.178064
28938	9.645099	0.197915	-1.750562	0.005143	0.002067	-0.001690	-0.130706	-0.122791	0.983788	-0.594504	0.803810	0.021342	-0.793399	-0.582076	-0.178063
28939	9.658176	0.224069	-1.731726	0.005087	0.004203	-0.002349	-0.130695	-0.122770	0.983792	-0.594489	0.803820	0.021334	-0.793411	-0.582066	-0.178041
28940	9.645195	0.198262	-1.749991	0.007078	0.001812	-0.004870	-0.130687	-0.122783	0.983791	-0.594493	0.803817	0.021349	-0.793410	-0.582067	-0.178042
28941	9.635739	0.217142	-1.737294	0.009293	0.000513	-0.002997	-0.130701	-0.122789	0.983789	-0.594513	0.803803	0.021341	-0.793392	-0.582086	-0.178058
28942	9.655423	0.193707	-1.782355	0.006859	0.003775	0.001254	-0.130715	-0.122741	0.983793	-0.594506	0.803809	0.021294	-0.793395	-0.582087	-0.178040
28943	9.659018	0.238593	-1.750973	0.006414	0.001591	-0.007535	-0.130694	-0.122777	0.983791	-0.594509	0.803806	0.021336	-0.793397	-0.582084	-0.178044
28944	9.658344	0.225064	-1.730660	0.007687	0.004170	-0.002863	-0.130680	-0.122760	0.983795	-0.594515	0.803801	0.021329	-0.793394	-0.582094	-0.178023
28945	9.667864	0.206528	-1.742973	0.007744	0.002034	-0.002203	-0.130687	-0.122750	0.983795	-0.594522	0.803797	0.021315	-0.793388	-0.582103	-0.178023
28946	9.637352	0.245594	-1.776273	0.006251	0.001419	-0.000752	-0.130707	-0.122733	0.983795	-0.594516	0.803802	0.021291	-0.793389	-0.582099	-0.178029
28947	9.699876	0.195471	-1.749331	0.007079	0.001813	-0.004868	-0.130700	-0.122746	0.983794	-0.594521	0.803798	0.021305	-0.793387	-0.582101	-0.178032
28948	9.637385	0.245978	-1.776037	0.006693	0.000548	-0.002480	-0.130718	-0.122747	0.983792	-0.594520	0.803799	0.021295	-0.793385	-0.582100	-0.178047
28949	9.614226	0.224842	-1.761672	0.003980	0.004855	-0.003284	-0.130696	-0.122730	0.983797	-0.594498	0.803815	0.021299	-0.793404	-0.582081	-0.178018
28950	9.667994	0.207336	-1.742152	0.008243	-0.000972	-0.003271	-0.130722	-0.122746	0.983791	-0.594510	0.803806	0.021294	-0.793391	-0.582090	-0.178049
28951	9.655687	0.195560	-1.780721	0.006415	0.001592	-0.007532	-0.130700	-0.122782	0.983790	-0.594513	0.803803	0.021335	-0.793392	-0.582087	-0.178053
28952	9.658533	0.226725	-1.729387	0.005144	0.002070	-0.001687	-0.130710	-0.122770	0.983790	-0.594501	0.803812	0.021322	-0.793400	-0.582077	-0.178053
28953	9.645582	0.200871	-1.747558	0.005473	0.005471	-0.004735	-0.130675	-0.122761	0.983796	-0.594494	0.803817	0.021338	-0.793411	-0.582072	-0.178019
28954	9.668839	0.222409	-1.761331	0.007744	0.002037	-0.002201	-0.130681	-0.122751	0.983796	-0.594498	0.803814	0.021325	-0.793407	-0.582078	-0.178018
28955	9.645668	0.201110	-1.747056	0.006251	0.001421	-0.000750	-0.130701	-0.122733	0.983796	-0.594491	0.803820	0.021300	-0.793409	-0.582074	-0.178024
28956	9.660105	0.255150	-1.768592	0.006030	0.000328	-0.005143	-0.130704	-0.122757	0.983792	-0.594487	0.803823	0.021319	-0.793412	-0.582065	-0.178040
28957	9.645703	0.201501	-1.746817	0.011395	0.003492	-0.002436	-0.130698	-0.122741	0.983795	-0.594523	0.803797	0.021301	-0.793386	-0.582104	-0.178027
28958	9.679148	0.218219	-1.793270	0.002930	0.003368	-0.003561	-0.130688	-0.122735	0.983797	-0.594495	0.803817	0.021309	-0.793408	-0.582078	-0.178014
28959	9.646510	0.215738	-1.766317	0.007745	0.002038	-0.002199	-0.130695	-0.122726	0.983797	-0.594502	0.803812	0.021295	-0.793402	-0.582086	-0.178014
28960	9.623344	0.194497	-1.752009	0.007745	0.002038	-0.002199	-0.130702	-0.122716	0.983798	-0.594510	0.803807	0.021281	-0.793395	-0.582096	-0.178015
28961	9.679966	0.232434	-1.812722	0.005144	0.002071	-0.001686	-0.130712	-0.122702	0.983798	-0.594495	0.803818	0.021267	-0.793404	-0.582083	-0.178015
28962	9.646592	0.215983	-1.765839	0.006695	0.000551	-0.002476	-0.130729	-0.122704	0.983796	-0.594494	0.803819	0.021258	-0.793402	-0.582081	-0.178029
28963	9.658901	0.228341	-1.727120	0.006638	0.002687	-0.003136	-0.130725	-0.122698	0.983797	-0.594493	0.803820	0.021256	-0.793403	-0.582082	-0.178023
28964	9.646663	0.216433	-1.765392	0.007024	0.003952	-0.005523	-0.130698	-0.122704	0.983800	-0.594497	0.803816	0.021276	-0.793405	-0.582086	-0.178004
28965	9.668493	0.210207	-1.739038	0.008796	0.003527	-0.001920	-0.130694	-0.122683	0.983803	-0.594512	0.803806	0.021258	-0.793394	-0.582104	-0.177989
28966	9.669222	0.224186	-1.759000	0.005645	-0.000936	-0.002752	-0.130721	-0.122695	0.983798	-0.594501	0.803814	0.021255	-0.793398	-0.582090	-0.178017
28967	9.614059	0.214215	-1.738201	0.007745	0.002040	-0.002197	-0.130728	-0.122685	0.983798	-0.594508	0.803809	0.021241	-0.793392	-0.582099	-0.178018
28968	9.691728	0.231842	-1.752911	0.004094	0.000584	-0.001962	-0.130813	-0.122911	0.983759	-0.594472	0.803832	0.021382	-0.793405	-0.582020	-0.178218
28969	9.613394	0.200455	-1.717857	0.007302	0.002912	-0.000469	-0.130823	-0.122882	0.983761	-0.594473	0.803832	0.021353	-0.793403	-0.582025	-0.178210
28970	9.657039	0.212249	-1.797011	0.006638	0.002689	-0.003134	-0.130819	-0.122877	0.983762	-0.594471	0.803834	0.021351	-0.793405	-0.582025	-0.178203
28971	9.656364	0.198504	-1.776720	0.007746	0.002041	-0.002196	-0.130826	-0.122867	0.983762	-0.594477	0.803829	0.021337	-0.793398	-0.582033	-0.178204
28972	9.678874	0.206152	-1.770607	0.004481	0.001849	-0.004349	-0.130823	-0.122877	0.983762	-0.594462	0.803840	0.021351	-0.793411	-0.582016	-0.178206
28973	9.637446	0.236220	-1.751188	0.008796	0.003530	-0.001918	-0.130819	-0.122856	0.983765	-0.594476	0.803830	0.021333	-0.793400	-0.582034	-0.178192
28974	9.633286	0.177636	-1.761904	0.007746	0.002042	-0.002195	-0.130827	-0.122847	0.983765	-0.594484	0.803825	0.021319	-0.793394	-0.582043	-0.178192
28975	9.660001	0.243794	-1.744823	0.007746	0.002042	-0.002195	-0.130833	-0.122837	0.983765	-0.594490	0.803821	0.021306	-0.793388	-0.582051	-0.178192
28976	9.646339	0.203950	-1.743018	0.006639	0.002690	-0.003133	-0.130828	-0.122832	0.983766	-0.594489	0.803821	0.021305	-0.793389	-0.582051	-0.178185
28977	9.647082	0.218081	-1.762897	0.007083	0.001818	-0.004859	-0.130821	-0.122846	0.983766	-0.594494	0.803817	0.021319	-0.793387	-0.582054	-0.178187
28978	9.636903	0.223148	-1.730064	0.006639	0.002690	-0.003132	-0.130818	-0.122840	0.983767	-0.594495	0.803817	0.021316	-0.793386	-0.582056	-0.178182
28979	9.646437	0.204614	-1.742397	0.007747	0.002043	-0.002194	-0.130825	-0.122831	0.983767	-0.594502	0.803812	0.021303	-0.793380	-0.582064	-0.178182
28980	9.634202	0.192434	-1.780784	0.007747	0.002043	-0.002193	-0.130832	-0.122821	0.983767	-0.594505	0.803810	0.021290	-0.793377	-0.582070	-0.178181
28981	9.668964	0.212240	-1.736168	0.006697	0.000555	-0.002471	-0.130849	-0.122822	0.983765	-0.594504	0.803811	0.021281	-0.793375	-0.582068	-0.178196
28982	9.647234	0.218968	-1.761958	0.005919	0.004602	-0.006457	-0.130811	-0.122832	0.983769	-0.594505	0.803809	0.021312	-0.793380	-0.582067	-0.178172
28983	9.625509	0.225556	-1.787739	0.007360	0.000780	0.000195	-0.130842	-0.122811	0.983767	-0.594505	0.803810	0.021276	-0.793375	-0.582071	-0.178184
28984	9.656106	0.186625	-1.753938	0.007690	0.004180	-0.002853	-0.130829	-0.122796	0.983771	-0.594515	0.803803	0.021269	-0.793370	-0.582084	-0.178164
28985	9.637865	0.237981	-1.748638	0.006640	0.002692	-0.003131	-0.130825	-0.122790	0.983772	-0.594514	0.803804	0.021267	-0.793371	-0.582084	-0.178158
28986	9.647382	0.219543	-1.761074	0.007141	-0.000317	-0.004195	-0.130839	-0.122811	0.983768	-0.594519	0.803800	0.021274	-0.793365	-0.582085	-0.178182
28987	9.656184	0.187199	-1.753448	0.007747	0.002045	-0.002192	-0.130846	-0.122801	0.983768	-0.594525	0.803796	0.021261	-0.793359	-0.582093	-0.178182
28988	9.660395	0.245982	-1.742330	0.009242	0.002662	-0.003640	-0.130840	-0.122800	0.983769	-0.594546	0.803780	0.021259	-0.793345	-0.582115	-0.178177
28989	9.646771	0.206222	-1.740356	0.003981	0.004859	-0.003281	-0.130818	-0.122783	0.983774	-0.594525	0.803796	0.021263	-0.793364	-0.582096	-0.178148
28990	9.646798	0.206431	-1.740181	0.008249	-0.000963	-0.003255	-0.130843	-0.122799	0.983769	-0.594537	0.803787	0.021258	-0.793351	-0.582106	-0.178179
28991	9.656276	0.188195	-1.752835	0.004321	-0.001383	-0.008075	-0.130842	-0.122857	0.983761	-0.594525	0.803795	0.021309	-0.793361	-0.582082	-0.178212
28992	9.647514	0.221032	-1.760168	0.008296	0.006544	-0.000848	-0.130822	-0.122811	0.983770	-0.594535	0.803788	0.021281	-0.793356	-0.582102	-0.178168
28993	9.648289	0.234957	-1.779908	0.005590	0.001204	-0.003406	-0.130828	-0.122816	0.983768	-0.594526	0.803795	0.021283	-0.793362	-0.582092	-0.178176
28994	9.646144	0.193767	-1.719626	0.007587	-0.001187	-0.005918	-0.130838	-0.122856	0.983762	-0.594538	0.803785	0.021307	-0.793351	-0.582096	-0.178208
28995	9.646859	0.207920	-1.739667	0.006640	0.002694	-0.003128	-0.130835	-0.122850	0.983763	-0.594537	0.803786	0.021305	-0.793352	-0.582096	-0.178202
28996	9.669377	0.215630	-1.733452	0.005533	0.003341	-0.004067	-0.130821	-0.122848	0.983765	-0.594530	0.803791	0.021314	-0.793360	-0.582090	-0.178190
28997	9.624458	0.200903	-1.745154	0.009300	0.000529	-0.002975	-0.130835	-0.122854	0.983763	-0.594550	0.803776	0.021305	-0.793342	-0.582109	-0.178205
28998	9.666709	0.184796	-1.784163	0.006859	0.003793	0.001262	-0.130849	-0.122808	0.983767	-0.594549	0.803779	0.021259	-0.793341	-0.582115	-0.178189
28999	9.669496	0.215815	-1.732762	0.008135	0.003312	-0.004575	-0.130832	-0.122810	0.983769	-0.594562	0.803769	0.021268	-0.793334	-0.582128	-0.178177
29000	9.626012	0.228857	-1.784609	0.004484	0.001851	-0.004344	-0.130828	-0.122819	0.983768	-0.594545	0.803781	0.021282	-0.793348	-0.582110	-0.178178
29001	9.656597	0.190272	-1.750839	0.005591	0.001205	-0.003404	-0.130834	-0.122824	0.983767	-0.594536	0.803787	0.021285	-0.793353	-0.582100	-0.178186
29002	9.647822	0.222855	-1.758246	0.007304	0.002922	-0.000462	-0.130844	-0.122796	0.983769	-0.594536	0.803788	0.021256	-0.793352	-0.582105	-0.178178
29003	9.647859	0.222983	-1.758029	0.004484	0.001852	-0.004343	-0.130840	-0.122805	0.983768	-0.594520	0.803800	0.021269	-0.793364	-0.582087	-0.178179
29004	9.647872	0.223214	-1.757925	0.006699	0.000560	-0.002464	-0.130858	-0.122808	0.983765	-0.594523	0.803798	0.021260	-0.793359	-0.582089	-0.178196
29005	9.634946	0.197397	-1.776206	0.004871	0.003115	-0.006730	-0.130830	-0.122829	0.983767	-0.594512	0.803804	0.021296	-0.793372	-0.582075	-0.178185
29006	9.657444	0.205082	-1.770093	0.007361	0.000787	0.000201	-0.130860	-0.122807	0.983765	-0.594511	0.803807	0.021261	-0.793368	-0.582077	-0.178196
29007	9.647250	0.210123	-1.737231	0.005921	0.004605	-0.006452	-0.130821	-0.122817	0.983769	-0.594508	0.803808	0.021292	-0.793376	-0.582073	-0.178171
29008	9.658238	0.219464	-1.789689	0.005592	0.001206	-0.003403	-0.130827	-0.122823	0.983768	-0.594500	0.803814	0.021296	-0.793381	-0.582064	-0.178179
29009	9.647309	0.210596	-1.736848	0.006254	0.001434	-0.000738	-0.130848	-0.122805	0.983767	-0.594493	0.803819	0.021271	-0.793383	-0.582059	-0.178185
29010	9.648047	0.224625	-1.756785	0.005979	0.002470	-0.005789	-0.130831	-0.122823	0.983767	-0.594493	0.803819	0.021295	-0.793386	-0.582057	-0.178181
29011	9.624900	0.203585	-1.742406	0.007749	0.002051	-0.002185	-0.130838	-0.122813	0.983767	-0.594500	0.803814	0.021281	-0.793380	-0.582065	-0.178182
29012	9.657637	0.206091	-1.768922	0.009519	0.001633	0.001420	-0.130869	-0.122777	0.983768	-0.594514	0.803805	0.021230	-0.793364	-0.582085	-0.178186
29013	9.625678	0.217418	-1.762148	0.004872	0.003116	-0.006729	-0.130841	-0.122798	0.983769	-0.594504	0.803812	0.021266	-0.793376	-0.582072	-0.178175
29014	9.656971	0.192770	-1.748500	0.008252	-0.000957	-0.003246	-0.130866	-0.122815	0.983763	-0.594519	0.803801	0.021262	-0.793361	-0.582083	-0.178206
29015	9.657714	0.206659	-1.768435	0.007246	0.005062	-0.001122	-0.130855	-0.122780	0.983769	-0.594520	0.803800	0.021239	-0.793362	-0.582091	-0.178176
29016	9.625768	0.217962	-1.761594	0.008195	0.001180	-0.003908	-0.130858	-0.122789	0.983768	-0.594529	0.803793	0.021243	-0.793354	-0.582099	-0.178184
29017	9.660472	0.238108	-1.716984	0.007088	0.001825	-0.004848	-0.130851	-0.122802	0.983767	-0.594534	0.803789	0.021257	-0.793352	-0.582102	-0.178186
29018	9.657813	0.207317	-1.767816	0.006642	0.002699	-0.003123	-0.130847	-0.122796	0.983768	-0.594533	0.803790	0.021255	-0.793354	-0.582101	-0.178179
29019	9.646872	0.198620	-1.714984	0.007146	-0.000310	-0.004184	-0.130860	-0.122816	0.983764	-0.594537	0.803787	0.021262	-0.793348	-0.582102	-0.178203
29020	9.625837	0.219106	-1.761074	0.005980	0.002471	-0.005787	-0.130843	-0.122833	0.983764	-0.594535	0.803788	0.021286	-0.793352	-0.582098	-0.178199
29021	9.657170	0.194349	-1.747225	0.008800	0.003545	-0.001905	-0.130840	-0.122813	0.983767	-0.594550	0.803777	0.021268	-0.793342	-0.582116	-0.178185
29022	9.636183	0.214621	-1.793092	0.005535	0.003345	-0.004062	-0.130826	-0.122812	0.983769	-0.594543	0.803782	0.021278	-0.793350	-0.582109	-0.178172
29023	9.670875	0.234734	-1.748509	0.005651	-0.000927	-0.002736	-0.130853	-0.122824	0.983764	-0.594534	0.803789	0.021273	-0.793352	-0.582097	-0.178201
29024	9.635515	0.201252	-1.772686	0.006585	0.004836	-0.003785	-0.130829	-0.122812	0.983769	-0.594537	0.803787	0.021278	-0.793354	-0.582103	-0.178175
29025	9.679788	0.202670	-1.740336	0.006643	0.002700	-0.003121	-0.130825	-0.122807	0.983770	-0.594536	0.803788	0.021276	-0.793355	-0.582103	-0.178168
29026	9.603614	0.212839	-1.765549	0.006643	0.002700	-0.003121	-0.130820	-0.122801	0.983771	-0.594532	0.803790	0.021274	-0.793359	-0.582100	-0.178161
29027	9.671043	0.235587	-1.747462	0.005535	0.003345	-0.004061	-0.130806	-0.122799	0.983774	-0.594524	0.803796	0.021283	-0.793367	-0.582093	-0.178148
29028	9.648650	0.228222	-1.753007	0.007247	0.005066	-0.001120	-0.130795	-0.122764	0.983779	-0.594524	0.803796	0.021261	-0.793368	-0.582100	-0.178118
29029	9.657508	0.195943	-1.745178	0.007593	-0.001182	-0.005904	-0.130805	-0.122803	0.983773	-0.594535	0.803788	0.021284	-0.793359	-0.582103	-0.178150
29030	9.647981	0.215114	-1.732555	0.005924	0.004608	-0.006447	-0.130767	-0.122813	0.983777	-0.594531	0.803790	0.021316	-0.793368	-0.582099	-0.178125
29031	9.627012	0.235329	-1.778365	0.006859	0.003804	0.001268	-0.130780	-0.122765	0.983781	-0.594527	0.803795	0.021270	-0.793369	-0.582102	-0.178108
29032	9.667159	0.177772	-1.757006	0.006760	-0.001570	-0.001793	-0.130818	-0.122774	0.983775	-0.594525	0.803796	0.021255	-0.793364	-0.582098	-0.178143
29033	9.627022	0.235374	-1.778306	0.005594	0.001210	-0.003397	-0.130824	-0.122779	0.983774	-0.594516	0.803803	0.021258	-0.793370	-0.582088	-0.178151
29034	9.657637	0.196874	-1.744362	0.008139	0.003320	-0.004565	-0.130809	-0.122781	0.983775	-0.594530	0.803792	0.021266	-0.793362	-0.582102	-0.178140
29035	9.658393	0.210903	-1.764222	0.006644	0.002702	-0.003119	-0.130805	-0.122775	0.983777	-0.594529	0.803793	0.021263	-0.793363	-0.582103	-0.178133
29036	9.648884	0.229783	-1.751513	0.006644	0.002702	-0.003119	-0.130800	-0.122769	0.983778	-0.594526	0.803795	0.021261	-0.793366	-0.582101	-0.178126
29037	9.645549	0.185027	-1.782228	0.006702	0.000567	-0.002455	-0.130817	-0.122770	0.983776	-0.594525	0.803796	0.021252	-0.793364	-0.582099	-0.178140
29038	9.627186	0.236411	-1.777276	0.008140	0.003321	-0.004564	-0.130799	-0.122772	0.983778	-0.594537	0.803787	0.021263	-0.793359	-0.582111	-0.178128
29039	9.681009	0.219101	-1.757329	0.004644	0.005095	-0.000613	-0.130791	-0.122732	0.983784	-0.594517	0.803803	0.021239	-0.793375	-0.582098	-0.178097
29040	9.649046	0.230331	-1.750549	0.006702	0.000567	-0.002454	-0.130809	-0.122734	0.983781	-0.594516	0.803804	0.021230	-0.793373	-0.582096	-0.178112
29041	9.636143	0.204367	-1.768911	0.006041	0.000338	-0.005118	-0.130812	-0.122758	0.983778	-0.594513	0.803805	0.021249	-0.793374	-0.582089	-0.178128
29042	9.659314	0.225972	-1.783055	0.005595	0.001211	-0.003395	-0.130819	-0.122761	0.983776	-0.594500	0.803815	0.021250	-0.793383	-0.582075	-0.178136
29043	9.625900	0.209882	-1.736120	0.007091	0.001830	-0.004840	-0.130812	-0.122774	0.983776	-0.594505	0.803811	0.021264	-0.793380	-0.582078	-0.178138
29044	9.658634	0.212901	-1.762660	0.007537	0.000957	-0.006562	-0.130801	-0.122805	0.983773	-0.594512	0.803805	0.021294	-0.793376	-0.582080	-0.178148
29045	9.670870	0.225459	-1.723844	0.007908	0.005301	0.001547	-0.130805	-0.122746	0.983780	-0.594515	0.803804	0.021243	-0.793374	-0.582094	-0.178116
29046	9.658018	0.199286	-1.741974	0.008645	0.000313	-0.005620	-0.130806	-0.122774	0.983777	-0.594534	0.803789	0.021261	-0.793359	-0.582108	-0.178134
29047	9.649211	0.231944	-1.749428	0.004644	0.005096	-0.000613	-0.130798	-0.122734	0.983783	-0.594514	0.803805	0.021238	-0.793376	-0.582095	-0.178103
29048	9.658812	0.213425	-1.761622	0.006042	0.000338	-0.005116	-0.130801	-0.122759	0.983779	-0.594512	0.803806	0.021256	-0.793377	-0.582088	-0.178120
29049	9.649264	0.232358	-1.749078	0.007752	0.002062	-0.002174	-0.130808	-0.122749	0.983779	-0.594518	0.803801	0.021243	-0.793371	-0.582096	-0.178120
29050	9.645966	0.187685	-1.779695	0.005984	0.002475	-0.005779	-0.130790	-0.122767	0.983780	-0.594516	0.803802	0.021269	-0.793376	-0.582091	-0.178116
29051	9.661517	0.245333	-1.710074	0.008802	0.003555	-0.001896	-0.130787	-0.122746	0.983783	-0.594531	0.803792	0.021251	-0.793365	-0.582110	-0.178102
29052	9.626239	0.211650	-1.734027	0.005090	0.004223	-0.002335	-0.130775	-0.122726	0.983787	-0.594517	0.803803	0.021244	-0.793378	-0.582099	-0.178080
29053	9.658983	0.214527	-1.760547	0.007597	-0.001178	-0.005894	-0.130785	-0.122765	0.983780	-0.594527	0.803794	0.021267	-0.793368	-0.582102	-0.178112
29054	9.636551	0.207089	-1.766372	0.006859	0.003811	0.001271	-0.130799	-0.122718	0.983785	-0.594522	0.803799	0.021222	-0.793370	-0.582105	-0.178094
29055	9.636609	0.207116	-1.766047	0.010745	0.003301	-0.005061	-0.130778	-0.122724	0.983786	-0.594556	0.803774	0.021232	-0.793347	-0.582139	-0.178083
29056	9.649528	0.233678	-1.747446	0.004489	0.001857	-0.004333	-0.130775	-0.122735	0.983786	-0.594543	0.803783	0.021245	-0.793358	-0.582125	-0.178086
29057	9.645535	0.175230	-1.757880	0.006645	0.002707	-0.003114	-0.130771	-0.122729	0.983787	-0.594542	0.803784	0.021243	-0.793359	-0.582125	-0.178079
29058	9.617576	0.245239	-1.740534	0.007753	0.002064	-0.002171	-0.130779	-0.122719	0.983787	-0.594550	0.803778	0.021228	-0.793352	-0.582134	-0.178079
29059	9.668036	0.183128	-1.751623	0.006044	0.000340	-0.005112	-0.130782	-0.122743	0.983784	-0.594547	0.803780	0.021247	-0.793354	-0.582127	-0.178096
29060	9.640764	0.267048	-1.754527	0.006646	0.002708	-0.003113	-0.130778	-0.122736	0.983785	-0.594546	0.803781	0.021244	-0.793355	-0.582127	-0.178089
29061	9.622481	0.154842	-1.742992	0.007093	0.001834	-0.004834	-0.130771	-0.122749	0.983784	-0.594551	0.803777	0.021258	-0.793353	-0.582130	-0.178091
29062	9.649680	0.235058	-1.746420	0.007753	0.002066	-0.002170	-0.130778	-0.122740	0.983785	-0.594558	0.803772	0.021244	-0.793346	-0.582138	-0.178091
29063	9.658547	0.202717	-1.738640	0.005656	-0.000921	-0.002725	-0.130805	-0.122752	0.983779	-0.594548	0.803779	0.021240	-0.793349	-0.582126	-0.178120
29064	9.658561	0.202949	-1.738538	0.008142	0.003328	-0.004556	-0.130789	-0.122755	0.983781	-0.594564	0.803767	0.021249	-0.793340	-0.582142	-0.178109
29065	9.626570	0.214378	-1.731849	0.005597	0.001215	-0.003389	-0.130795	-0.122760	0.983780	-0.594555	0.803774	0.021251	-0.793345	-0.582132	-0.178117
29066	9.658625	0.203286	-1.738145	0.007306	0.002941	-0.000448	-0.130805	-0.122733	0.983782	-0.594558	0.803772	0.021222	-0.793341	-0.582140	-0.178109
29067	9.660082	0.230902	-1.778257	0.004489	0.001858	-0.004331	-0.130801	-0.122742	0.983781	-0.594542	0.803784	0.021236	-0.793354	-0.582122	-0.178110
29068	9.636962	0.209926	-1.763790	0.008143	0.003329	-0.004555	-0.130784	-0.122744	0.983783	-0.594556	0.803774	0.021245	-0.793347	-0.582135	-0.178099
29069	9.636989	0.210133	-1.763618	0.006705	0.000574	-0.002446	-0.130801	-0.122745	0.983781	-0.594554	0.803775	0.021236	-0.793345	-0.582133	-0.178113
29070	9.636298	0.196487	-1.743333	0.005150	0.002090	-0.001667	-0.130811	-0.122732	0.983781	-0.594542	0.803784	0.021221	-0.793352	-0.582124	-0.178113
29071	9.649906	0.236565	-1.744969	0.007754	0.002068	-0.002168	-0.130818	-0.122722	0.983781	-0.594549	0.803780	0.021208	-0.793346	-0.582132	-0.178113
29072	9.669107	0.199318	-1.769541	0.005539	0.003352	-0.004053	-0.130804	-0.122720	0.983784	-0.594540	0.803786	0.021217	-0.793355	-0.582124	-0.178100
29073	9.649991	0.236988	-1.744441	0.004042	0.002733	-0.002609	-0.130803	-0.122710	0.983785	-0.594518	0.803802	0.021214	-0.793372	-0.582103	-0.178093
29074	9.637171	0.210898	-1.762534	0.006647	0.002710	-0.003110	-0.130800	-0.122704	0.983786	-0.594519	0.803802	0.021211	-0.793372	-0.582105	-0.178087
29075	9.637202	0.211159	-1.762329	0.007095	0.001836	-0.004830	-0.130793	-0.122717	0.983785	-0.594524	0.803798	0.021225	-0.793369	-0.582108	-0.178090
29076	9.659672	0.218924	-1.756221	0.007755	0.002069	-0.002167	-0.130801	-0.122709	0.983785	-0.594533	0.803791	0.021211	-0.793361	-0.582119	-0.178091
29077	9.637256	0.211572	-1.761984	0.007095	0.001836	-0.004830	-0.130794	-0.122722	0.983785	-0.594538	0.803787	0.021224	-0.793358	-0.582122	-0.178093
29078	9.637291	0.211891	-1.761755	0.010748	0.003309	-0.005052	-0.130773	-0.122727	0.983787	-0.594571	0.803762	0.021234	-0.793337	-0.582155	-0.178081
29079	9.636630	0.198459	-1.741275	0.005539	0.003353	-0.004052	-0.130759	-0.122725	0.983789	-0.594563	0.803768	0.021243	-0.793346	-0.582147	-0.178068
29080	9.660491	0.233728	-1.775663	0.007213	-0.002435	-0.003498	-0.130794	-0.122753	0.983781	-0.594568	0.803765	0.021243	-0.793336	-0.582146	-0.178113
29081	9.659063	0.206418	-1.735337	0.005150	0.002092	-0.001665	-0.130804	-0.122739	0.983781	-0.594553	0.803776	0.021229	-0.793345	-0.582134	-0.178112
29082	9.637351	0.212671	-1.761334	0.006706	0.000576	-0.002442	-0.130820	-0.122741	0.983779	-0.594552	0.803777	0.021221	-0.793344	-0.582131	-0.178126
29083	9.659110	0.206531	-1.735065	0.007307	0.002946	-0.000445	-0.130830	-0.122712	0.983781	-0.594553	0.803777	0.021191	-0.793341	-0.582137	-0.178117
29084	9.627834	0.231457	-1.748530	0.006647	0.002712	-0.003108	-0.130827	-0.122707	0.983782	-0.594554	0.803776	0.021189	-0.793341	-0.582140	-0.178112
29085	9.669488	0.201843	-1.767172	0.007096	0.001838	-0.004828	-0.130820	-0.122720	0.983781	-0.594559	0.803772	0.021202	-0.793338	-0.582143	-0.178114
29086	9.659923	0.220773	-1.754610	0.007755	0.002072	-0.002164	-0.130828	-0.122710	0.983782	-0.594567	0.803767	0.021188	-0.793331	-0.582153	-0.178115
29087	9.650343	0.239726	-1.742121	0.006047	0.000343	-0.005104	-0.130831	-0.122734	0.983778	-0.594564	0.803768	0.021206	-0.793332	-0.582145	-0.178131
29088	9.647119	0.194912	-1.772652	0.006199	0.003588	-0.001387	-0.130831	-0.122708	0.983781	-0.594557	0.803775	0.021186	-0.793338	-0.582142	-0.178116
29089	9.660709	0.235051	-1.774303	0.008204	0.001198	-0.003883	-0.130835	-0.122717	0.983780	-0.594569	0.803765	0.021189	-0.793328	-0.582153	-0.178124
29090	9.637593	0.214025	-1.759846	0.005540	0.003355	-0.004050	-0.130820	-0.122716	0.983782	-0.594562	0.803770	0.021199	-0.793336	-0.582146	-0.178112
29091	9.636915	0.200575	-1.739454	0.008204	0.001198	-0.003882	-0.130824	-0.122725	0.983780	-0.594575	0.803761	0.021201	-0.793326	-0.582157	-0.178120
29092	9.669710	0.203242	-1.765800	0.007248	0.005085	-0.001109	-0.130813	-0.122689	0.983786	-0.594576	0.803761	0.021177	-0.793327	-0.582165	-0.178091
29093	9.637720	0.214439	-1.759098	0.006707	0.000579	-0.002439	-0.130831	-0.122690	0.983784	-0.594575	0.803762	0.021168	-0.793325	-0.582163	-0.178105
29094	9.650557	0.240997	-1.740756	0.006048	0.000344	-0.005102	-0.130833	-0.122714	0.983780	-0.594571	0.803764	0.021187	-0.793327	-0.582156	-0.178121
29095	9.669034	0.190112	-1.745361	0.008264	-0.000937	-0.003215	-0.130858	-0.122730	0.983775	-0.594584	0.803755	0.021183	-0.793314	-0.582165	-0.178151
29096	9.637024	0.201467	-1.738746	0.006589	0.004851	-0.003771	-0.130834	-0.122719	0.983780	-0.594587	0.803752	0.021187	-0.793315	-0.582171	-0.178125
29097	9.637792	0.215386	-1.758588	0.006648	0.002715	-0.003105	-0.130830	-0.122713	0.983781	-0.594586	0.803753	0.021185	-0.793316	-0.582171	-0.178118
29098	9.669862	0.204502	-1.764820	0.007097	0.001840	-0.004824	-0.130821	-0.122726	0.983781	-0.594589	0.803750	0.021200	-0.793315	-0.582172	-0.178119
29099	9.637846	0.215987	-1.758221	0.007097	0.001840	-0.004823	-0.130814	-0.122738	0.983780	-0.594594	0.803746	0.021213	-0.793313	-0.582175	-0.178121
29100	9.637823	0.216340	-1.758304	0.005060	-0.003286	-0.004711	-0.130849	-0.122782	0.983770	-0.594586	0.803752	0.021230	-0.793314	-0.582157	-0.178174
29101	9.669151	0.191694	-1.744539	0.006200	0.003592	-0.001385	-0.130848	-0.122757	0.983773	-0.594579	0.803757	0.021211	-0.793319	-0.582155	-0.178159
29102	9.660334	0.224237	-1.751904	0.007638	0.006348	-0.003493	-0.130813	-0.122732	0.983781	-0.594585	0.803753	0.021211	-0.793320	-0.582167	-0.178116
29103	9.615537	0.209194	-1.763378	0.005151	0.002096	-0.001662	-0.130823	-0.122718	0.983781	-0.594570	0.803764	0.021197	-0.793329	-0.582154	-0.178115
29104	9.659716	0.210831	-1.731167	0.008206	0.001201	-0.003878	-0.130826	-0.122728	0.983780	-0.594583	0.803754	0.021200	-0.793319	-0.582165	-0.178124
29105	9.661142	0.238392	-1.771498	0.006709	0.000581	-0.002436	-0.130843	-0.122729	0.983777	-0.594582	0.803756	0.021191	-0.793317	-0.582164	-0.178139
29106	9.679676	0.187383	-1.775871	0.006649	0.002717	-0.003103	-0.130841	-0.122723	0.983778	-0.594584	0.803754	0.021187	-0.793316	-0.582167	-0.178133
29107	9.650863	0.243869	-1.738661	0.006050	0.000346	-0.005098	-0.130844	-0.122747	0.983775	-0.594581	0.803756	0.021205	-0.793318	-0.582159	-0.178150
29108	9.638051	0.217902	-1.756857	0.004493	0.001861	-0.004324	-0.130839	-0.122757	0.983774	-0.594563	0.803769	0.021220	-0.793332	-0.582139	-0.178151
29109	9.638092	0.218084	-1.756609	0.008806	0.003574	-0.001881	-0.130836	-0.122736	0.983777	-0.594578	0.803759	0.021202	-0.793322	-0.582158	-0.178136
29110	9.647706	0.199600	-1.768933	0.003954	-0.002646	-0.005652	-0.130859	-0.122782	0.983769	-0.594560	0.803771	0.021229	-0.793331	-0.582132	-0.178182
29111	9.638106	0.218562	-1.756473	0.007248	0.005090	-0.001106	-0.130848	-0.122746	0.983774	-0.594562	0.803770	0.021206	-0.793332	-0.582140	-0.178152
29112	9.647768	0.199874	-1.768566	0.006709	0.000583	-0.002434	-0.130866	-0.122749	0.983772	-0.594564	0.803769	0.021197	-0.793327	-0.582141	-0.178168
29113	9.637454	0.205101	-1.735938	0.008207	0.001203	-0.003875	-0.130869	-0.122758	0.983770	-0.594576	0.803760	0.021200	-0.793317	-0.582152	-0.178176
29114	9.638165	0.219090	-1.756086	0.006051	0.000347	-0.005097	-0.130872	-0.122783	0.983767	-0.594575	0.803760	0.021219	-0.793318	-0.582146	-0.178193
29115	9.647787	0.200660	-1.768374	0.008207	0.001204	-0.003875	-0.130875	-0.122791	0.983765	-0.594587	0.803751	0.021222	-0.793308	-0.582157	-0.178201
29116	9.637466	0.206027	-1.735757	0.006051	0.000347	-0.005096	-0.130879	-0.122815	0.983762	-0.594584	0.803753	0.021239	-0.793310	-0.582149	-0.178219
29117	9.647811	0.201059	-1.768196	0.005810	0.002335	0.001003	-0.130903	-0.122779	0.983763	-0.594571	0.803763	0.021198	-0.793315	-0.582143	-0.178216
29118	9.651019	0.246237	-1.737462	0.006051	0.000347	-0.005096	-0.130906	-0.122801	0.983760	-0.594567	0.803766	0.021215	-0.793318	-0.582133	-0.178232
29119	9.647166	0.187659	-1.747617	0.007248	0.005092	-0.001105	-0.130896	-0.122765	0.983766	-0.594568	0.803766	0.021192	-0.793319	-0.582142	-0.178202
29120	9.660702	0.227832	-1.749413	0.006111	-0.001788	-0.004427	-0.130920	-0.122796	0.983759	-0.594564	0.803769	0.021204	-0.793318	-0.582132	-0.178239
29121	9.647173	0.188028	-1.747540	0.006710	0.000585	-0.002432	-0.130937	-0.122797	0.983756	-0.594563	0.803770	0.021195	-0.793316	-0.582130	-0.178254
29122	9.637569	0.206864	-1.735087	0.007758	0.002082	-0.002155	-0.130942	-0.122788	0.983757	-0.594570	0.803765	0.021183	-0.793310	-0.582138	-0.178252
29123	9.647921	0.201942	-1.767494	0.005602	0.001224	-0.003377	-0.130948	-0.122793	0.983755	-0.594561	0.803771	0.021185	-0.793316	-0.582128	-0.178260
29124	9.637651	0.207231	-1.734590	0.007638	0.006354	-0.003490	-0.130913	-0.122768	0.983763	-0.594568	0.803766	0.021184	-0.793316	-0.582141	-0.178218
29125	9.693594	0.231210	-1.775176	0.004104	0.000603	-0.001936	-0.130933	-0.122765	0.983761	-0.594546	0.803783	0.021174	-0.793329	-0.582119	-0.178231
29126	9.624934	0.181238	-1.752355	0.010755	0.003325	-0.005034	-0.130913	-0.122773	0.983763	-0.594583	0.803755	0.021185	-0.793305	-0.582155	-0.178220
29127	9.671181	0.224074	-1.780981	0.006172	-0.003923	-0.003757	-0.130958	-0.122810	0.983752	-0.594579	0.803758	0.021189	-0.793301	-0.582143	-0.178279
29128	9.669770	0.197000	-1.740508	0.006590	0.004858	-0.003766	-0.130932	-0.122797	0.983757	-0.594577	0.803759	0.021194	-0.793307	-0.582144	-0.178250
29129	9.616058	0.214383	-1.759908	0.006651	0.002722	-0.003098	-0.130928	-0.122791	0.983758	-0.594576	0.803760	0.021191	-0.793308	-0.582144	-0.178243
29130	9.660250	0.216257	-1.727515	0.004434	0.003999	-0.004988	-0.130903	-0.122793	0.983761	-0.594560	0.803772	0.021212	-0.793324	-0.582128	-0.178224
29131	9.626501	0.209934	-1.791802	0.005543	0.003361	-0.004043	-0.130889	-0.122790	0.983764	-0.594551	0.803778	0.021221	-0.793333	-0.582120	-0.178211
29132	9.638609	0.222982	-1.753158	0.006053	0.000349	-0.005091	-0.130892	-0.122814	0.983760	-0.594548	0.803779	0.021239	-0.793334	-0.582113	-0.178228
29133	9.625792	0.196908	-1.771524	0.007221	-0.002425	-0.003478	-0.130927	-0.122841	0.983752	-0.594553	0.803776	0.021239	-0.793325	-0.582112	-0.178272
29134	9.647528	0.190972	-1.745258	0.009855	0.005080	-0.001597	-0.130914	-0.122809	0.983758	-0.594576	0.803760	0.021215	-0.793310	-0.582141	-0.178243
29135	9.651453	0.249885	-1.734526	0.005543	0.003362	-0.004042	-0.130900	-0.122807	0.983760	-0.594567	0.803766	0.021224	-0.793319	-0.582133	-0.178229
29136	9.625222	0.183719	-1.750513	0.006651	0.002724	-0.003096	-0.130897	-0.122802	0.983761	-0.594570	0.803764	0.021221	-0.793317	-0.582137	-0.178225
29137	9.661850	0.245255	-1.766692	0.007162	-0.000288	-0.004145	-0.130911	-0.122822	0.983757	-0.594575	0.803760	0.021228	-0.793312	-0.582138	-0.178248
29138	9.638047	0.210532	-1.731989	0.007699	0.004222	-0.002819	-0.130894	-0.122804	0.983761	-0.594577	0.803759	0.021223	-0.793313	-0.582144	-0.178224
29139	9.661212	0.231994	-1.746043	0.005603	0.001227	-0.003373	-0.130900	-0.122809	0.983760	-0.594568	0.803765	0.021225	-0.793318	-0.582134	-0.178232
29140	9.626745	0.211641	-1.790288	0.008417	0.002325	0.000512	-0.130920	-0.122776	0.983761	-0.594574	0.803762	0.021185	-0.793310	-0.582145	-0.178228
29141	9.638824	0.224495	-1.751778	0.007613	-0.001164	-0.005860	-0.130931	-0.122815	0.983755	-0.594585	0.803753	0.021208	-0.793301	-0.582149	-0.178260
29142	9.670911	0.213582	-1.757981	0.004642	0.005115	-0.000608	-0.130923	-0.122776	0.983761	-0.594566	0.803768	0.021185	-0.793316	-0.582137	-0.178230
29143	9.647838	0.192598	-1.743362	0.006445	0.001610	-0.007473	-0.130902	-0.122811	0.983759	-0.594569	0.803764	0.021226	-0.793317	-0.582135	-0.178234
29144	9.649252	0.220377	-1.783751	0.006055	0.000351	-0.005088	-0.130907	-0.122834	0.983756	-0.594565	0.803767	0.021242	-0.793319	-0.582126	-0.178251
29145	9.637510	0.198625	-1.710614	0.005994	0.002487	-0.005756	-0.130889	-0.122851	0.983756	-0.594563	0.803768	0.021267	-0.793324	-0.582121	-0.178247
29146	9.648584	0.207491	-1.763227	0.008211	0.001212	-0.003864	-0.130893	-0.122859	0.983754	-0.594575	0.803759	0.021269	-0.793315	-0.582131	-0.178255
29147	9.638980	0.226426	-1.750677	0.005093	0.004240	-0.002324	-0.130881	-0.122838	0.983759	-0.594560	0.803770	0.021262	-0.793327	-0.582121	-0.178233
29148	9.648681	0.207831	-1.762654	0.006652	0.002726	-0.003094	-0.130876	-0.122831	0.983760	-0.594556	0.803773	0.021261	-0.793332	-0.582118	-0.178225
29149	9.648723	0.208201	-1.762384	0.004887	0.003125	-0.006701	-0.130848	-0.122852	0.983761	-0.594546	0.803780	0.021297	-0.793344	-0.582104	-0.178214
29150	9.649435	0.222196	-1.782532	0.008272	-0.000923	-0.003194	-0.130871	-0.122868	0.983756	-0.594556	0.803772	0.021293	-0.793332	-0.582112	-0.178243
29151	9.671142	0.216595	-1.756345	0.006446	0.001611	-0.007471	-0.130850	-0.122903	0.983755	-0.594560	0.803769	0.021334	-0.793333	-0.582109	-0.178247
29152	9.648768	0.209319	-1.762006	0.007700	0.004226	-0.002816	-0.130836	-0.122885	0.983759	-0.594564	0.803765	0.021326	-0.793332	-0.582117	-0.178225
29153	9.626395	0.201850	-1.767686	0.005605	0.001229	-0.003370	-0.130843	-0.122890	0.983757	-0.594556	0.803772	0.021328	-0.793337	-0.582108	-0.178233
29154	9.648842	0.209760	-1.761547	0.005544	0.003365	-0.004038	-0.130828	-0.122887	0.983759	-0.594546	0.803779	0.021337	-0.793347	-0.582099	-0.178219
29155	9.617537	0.234704	-1.775075	0.005093	0.004242	-0.002323	-0.130817	-0.122866	0.983764	-0.594532	0.803789	0.021330	-0.793359	-0.582088	-0.178197
29156	9.658614	0.191374	-1.773156	0.006653	0.002728	-0.003092	-0.130813	-0.122860	0.983765	-0.594532	0.803789	0.021327	-0.793359	-0.582090	-0.178191
29157	9.661736	0.236691	-1.742509	0.009321	0.000578	-0.002914	-0.130828	-0.122865	0.983762	-0.594552	0.803774	0.021318	-0.793342	-0.582109	-0.178206
29158	9.649017	0.210596	-1.760490	0.005935	0.004625	-0.006422	-0.130789	-0.122875	0.983766	-0.594551	0.803774	0.021349	-0.793349	-0.582107	-0.178181
29159	9.617700	0.235611	-1.774075	0.007761	0.002092	-0.002144	-0.130796	-0.122865	0.983767	-0.594558	0.803770	0.021335	-0.793343	-0.582116	-0.178180
29160	9.670780	0.205042	-1.733958	0.005666	-0.000905	-0.002698	-0.130823	-0.122877	0.983761	-0.594549	0.803777	0.021331	-0.793346	-0.582103	-0.178209
29161	9.640114	0.243633	-1.768078	0.009712	0.001838	-0.005297	-0.130813	-0.122893	0.983761	-0.594575	0.803757	0.021345	-0.793327	-0.582127	-0.178211
29162	9.658764	0.192755	-1.772184	0.006653	0.002730	-0.003090	-0.130810	-0.122887	0.983762	-0.594574	0.803757	0.021342	-0.793329	-0.582128	-0.178205
29163	9.629108	0.235680	-1.714891	0.007105	0.001853	-0.004805	-0.130803	-0.122900	0.983761	-0.594579	0.803753	0.021356	-0.793326	-0.582131	-0.178207
29164	9.637110	0.199248	-1.798018	0.002998	0.001245	-0.002876	-0.130812	-0.122901	0.983760	-0.594549	0.803776	0.021358	-0.793347	-0.582099	-0.178214
29165	9.661207	0.225039	-1.721028	0.009322	0.000581	-0.002911	-0.130826	-0.122906	0.983757	-0.594569	0.803761	0.021349	-0.793330	-0.582119	-0.178229
29166	9.636438	0.185894	-1.777575	0.007762	0.002094	-0.002143	-0.130833	-0.122896	0.983758	-0.594574	0.803758	0.021335	-0.793325	-0.582125	-0.178228
29167	9.648549	0.198846	-1.738723	0.005032	0.006380	-0.002991	-0.130801	-0.122867	0.983766	-0.594560	0.803768	0.021334	-0.793341	-0.582117	-0.178185
29168	9.626894	0.205081	-1.764594	0.006058	0.000355	-0.005081	-0.130819	-0.122940	0.983754	-0.594532	0.803787	0.021389	-0.793359	-0.582075	-0.178242
29169	9.671723	0.220834	-1.752613	0.005997	0.002490	-0.005750	-0.130801	-0.122957	0.983754	-0.594530	0.803788	0.021414	-0.793363	-0.582070	-0.178238
29170	9.639683	0.232243	-1.746035	0.006654	0.002732	-0.003088	-0.130797	-0.122951	0.983756	-0.594528	0.803790	0.021412	-0.793365	-0.582070	-0.178231
29171	9.637354	0.200776	-1.796539	0.007762	0.002096	-0.002141	-0.130803	-0.122941	0.983756	-0.594535	0.803785	0.021398	-0.793359	-0.582078	-0.178230
29172	9.640481	0.245998	-1.765750	0.007249	0.005109	-0.001096	-0.130793	-0.122905	0.983762	-0.594536	0.803785	0.021375	-0.793360	-0.582086	-0.178201
29173	9.659158	0.195179	-1.769775	0.002795	0.000127	-0.007250	-0.130785	-0.122947	0.983758	-0.594510	0.803803	0.021421	-0.793381	-0.582053	-0.178219
29174	9.639823	0.233069	-1.745154	0.007762	0.002097	-0.002140	-0.130791	-0.122938	0.983758	-0.594518	0.803798	0.021407	-0.793374	-0.582062	-0.178218
29175	9.658499	0.182008	-1.749227	0.007762	0.002097	-0.002140	-0.130798	-0.122928	0.983758	-0.594524	0.803793	0.021393	-0.793368	-0.582070	-0.178218
29176	9.649541	0.214601	-1.757126	0.006059	0.000356	-0.005078	-0.130801	-0.122951	0.983755	-0.594518	0.803797	0.021411	-0.793372	-0.582060	-0.178234
29177	9.649546	0.214906	-1.757062	0.005607	0.001233	-0.003364	-0.130808	-0.122956	0.983754	-0.594510	0.803803	0.021413	-0.793377	-0.582050	-0.178242
29178	9.649570	0.215054	-1.756916	0.007763	0.002098	-0.002139	-0.130814	-0.122945	0.983754	-0.594516	0.803799	0.021400	-0.793371	-0.582058	-0.178241
29179	9.649606	0.215180	-1.756698	0.006654	0.002734	-0.003086	-0.130810	-0.122939	0.983755	-0.594515	0.803799	0.021397	-0.793373	-0.582059	-0.178235
29180	9.617553	0.226659	-1.750174	0.003843	0.001627	-0.006972	-0.130792	-0.122972	0.983754	-0.594500	0.803810	0.021439	-0.793387	-0.582037	-0.178239
29181	9.658639	0.183415	-1.748305	0.008419	0.002341	0.000523	-0.130813	-0.122939	0.983755	-0.594508	0.803805	0.021397	-0.793378	-0.582051	-0.178236
29182	9.640739	0.248295	-1.764019	0.005937	0.004628	-0.006417	-0.130775	-0.122949	0.983759	-0.594507	0.803805	0.021429	-0.793385	-0.582049	-0.178212
29183	9.659447	0.197458	-1.767939	0.007763	0.002099	-0.002138	-0.130782	-0.122939	0.983759	-0.594513	0.803800	0.021415	-0.793379	-0.582057	-0.178212
29184	9.662500	0.242910	-1.737411	0.006060	0.000357	-0.005076	-0.130786	-0.122964	0.983755	-0.594513	0.803800	0.021433	-0.793378	-0.582053	-0.178230
29185	9.637057	0.190379	-1.773740	0.006060	0.000357	-0.005076	-0.130789	-0.122988	0.983752	-0.594510	0.803802	0.021451	-0.793380	-0.582045	-0.178246
29186	9.663207	0.257110	-1.757562	0.007763	0.002100	-0.002137	-0.130795	-0.122978	0.983753	-0.594515	0.803798	0.021438	-0.793375	-0.582052	-0.178245
29187	9.637110	0.190728	-1.773415	0.006655	0.002735	-0.003085	-0.130792	-0.122971	0.983754	-0.594515	0.803799	0.021435	-0.793376	-0.582053	-0.178238
29188	9.662587	0.243699	-1.736815	0.007311	0.002978	-0.000423	-0.130803	-0.122943	0.983756	-0.594517	0.803798	0.021404	-0.793372	-0.582060	-0.178231
29189	9.649891	0.217518	-1.754849	0.005405	0.000115	-0.007736	-0.130793	-0.122989	0.983752	-0.594513	0.803800	0.021449	-0.793378	-0.582047	-0.178250
29190	9.626835	0.196670	-1.740201	0.007641	0.006373	-0.003477	-0.130757	-0.122966	0.983759	-0.594521	0.803794	0.021450	-0.793378	-0.582060	-0.178208
29191	9.659720	0.199261	-1.766249	0.007249	0.005115	-0.001093	-0.130746	-0.122930	0.983765	-0.594522	0.803794	0.021427	-0.793378	-0.582068	-0.178178
29192	9.650774	0.231793	-1.774040	0.006061	0.000358	-0.005073	-0.130749	-0.122954	0.983762	-0.594519	0.803796	0.021446	-0.793380	-0.582061	-0.178194
29193	9.649388	0.204922	-1.733351	0.009264	0.002726	-0.003571	-0.130742	-0.122952	0.983763	-0.594539	0.803780	0.021443	-0.793366	-0.582082	-0.178188
29194	9.662836	0.245153	-1.735224	0.006655	0.002737	-0.003083	-0.130739	-0.122947	0.983764	-0.594541	0.803780	0.021441	-0.793366	-0.582085	-0.178182
29195	9.639752	0.223918	-1.720786	0.006325	-0.000657	-0.000028	-0.130780	-0.122936	0.983760	-0.594533	0.803786	0.021409	-0.793364	-0.582078	-0.178208
29196	9.650839	0.232426	-1.773607	0.006062	0.000358	-0.005072	-0.130783	-0.122960	0.983756	-0.594532	0.803786	0.021427	-0.793365	-0.582073	-0.178225
29197	9.627777	0.211467	-1.759015	0.006594	0.004873	-0.003753	-0.130758	-0.122947	0.983761	-0.594532	0.803786	0.021431	-0.793369	-0.582075	-0.178197
29198	9.659230	0.187091	-1.744646	0.005547	0.003372	-0.004030	-0.130744	-0.122944	0.983764	-0.594524	0.803792	0.021440	-0.793377	-0.582068	-0.178184
29199	9.641257	0.252010	-1.760658	0.008279	-0.000910	-0.003175	-0.130768	-0.122960	0.983758	-0.594536	0.803783	0.021435	-0.793364	-0.582076	-0.178214
29200	9.682347	0.208706	-1.758852	0.005156	0.002115	-0.001646	-0.130778	-0.122946	0.983759	-0.594520	0.803795	0.021421	-0.793374	-0.582063	-0.178212
29201	9.627184	0.198654	-1.738047	0.005609	0.001237	-0.003358	-0.130784	-0.122951	0.983757	-0.594512	0.803802	0.021423	-0.793380	-0.582053	-0.178220
29202	9.649603	0.206508	-1.731969	0.005156	0.002115	-0.001646	-0.130794	-0.122936	0.983758	-0.594494	0.803815	0.021410	-0.793391	-0.582038	-0.178219
29203	9.638337	0.207353	-1.790512	0.007109	0.001861	-0.004793	-0.130787	-0.122949	0.983757	-0.594500	0.803811	0.021423	-0.793388	-0.582041	-0.178221
29204	9.637673	0.193913	-1.770006	0.007311	0.002983	-0.000420	-0.130798	-0.122920	0.983759	-0.594503	0.803809	0.021392	-0.793384	-0.582050	-0.178213
29205	9.672807	0.228348	-1.745651	0.004893	0.003129	-0.006690	-0.130770	-0.122941	0.983761	-0.594493	0.803815	0.021428	-0.793396	-0.582036	-0.178202
29206	9.637021	0.180834	-1.749396	0.005279	-0.002156	-0.000302	-0.130821	-0.122940	0.983754	-0.594475	0.803829	0.021400	-0.793401	-0.582018	-0.178242
29207	9.651148	0.234514	-1.771647	0.010250	0.006367	-0.003961	-0.130783	-0.122919	0.983762	-0.594504	0.803808	0.021400	-0.793386	-0.582052	-0.178200
29208	9.660203	0.202522	-1.763231	0.004955	0.000994	-0.006018	-0.130775	-0.122946	0.983759	-0.594490	0.803817	0.021430	-0.793397	-0.582033	-0.178209
29209	9.628127	0.213870	-1.756806	0.005156	0.002116	-0.001644	-0.130784	-0.122932	0.983760	-0.594476	0.803828	0.021416	-0.793407	-0.582021	-0.178208
29210	9.637856	0.195234	-1.768867	0.005610	0.001238	-0.003356	-0.130791	-0.122936	0.983758	-0.594468	0.803834	0.021417	-0.793412	-0.582011	-0.178216
29211	9.660959	0.216673	-1.783157	0.006718	0.000605	-0.002408	-0.130808	-0.122937	0.983756	-0.594466	0.803835	0.021408	-0.793410	-0.582009	-0.178230
29212	9.649911	0.208374	-1.730027	0.008296	0.006623	-0.000813	-0.130787	-0.122890	0.983765	-0.594475	0.803829	0.021380	-0.793406	-0.582028	-0.178186
29213	9.650662	0.222218	-1.750009	0.002800	0.000125	-0.007242	-0.130779	-0.122933	0.983760	-0.594450	0.803847	0.021425	-0.793427	-0.581994	-0.178204
29214	9.637270	0.182681	-1.747834	0.008673	0.000351	-0.005553	-0.130781	-0.122961	0.983756	-0.594473	0.803830	0.021442	-0.793409	-0.582013	-0.178223
29215	9.650658	0.222850	-1.749955	0.004764	0.000860	0.000740	-0.130815	-0.122935	0.983755	-0.594452	0.803846	0.021405	-0.793419	-0.581995	-0.178234
29216	9.660391	0.204022	-1.762028	0.007766	0.002108	-0.002129	-0.130823	-0.122926	0.983755	-0.594461	0.803840	0.021391	-0.793411	-0.582006	-0.178235
29217	9.650705	0.222955	-1.749679	0.005610	0.001239	-0.003355	-0.130830	-0.122930	0.983754	-0.594452	0.803846	0.021393	-0.793417	-0.581996	-0.178243
29218	9.638064	0.196569	-1.767584	0.006203	0.003620	-0.001366	-0.130831	-0.122905	0.983757	-0.594448	0.803850	0.021372	-0.793420	-0.581996	-0.178229
29219	9.682875	0.212086	-1.755540	0.006719	0.000606	-0.002405	-0.130848	-0.122905	0.983755	-0.594446	0.803851	0.021363	-0.793418	-0.581994	-0.178243
29220	9.637403	0.183397	-1.747025	0.004956	0.000994	-0.006015	-0.130840	-0.122934	0.983752	-0.594438	0.803857	0.021393	-0.793426	-0.581980	-0.178253
29221	9.661197	0.218511	-1.781641	0.009329	0.000598	-0.002890	-0.130854	-0.122939	0.983750	-0.594458	0.803842	0.021384	-0.793408	-0.582000	-0.178268
29222	9.641105	0.242861	-1.736714	0.005941	0.004633	-0.006410	-0.130815	-0.122949	0.983754	-0.594456	0.803843	0.021415	-0.793416	-0.581997	-0.178242
29223	9.650115	0.210917	-1.728582	0.006189	-0.003909	-0.003721	-0.130860	-0.122986	0.983743	-0.594452	0.803846	0.021420	-0.793412	-0.581985	-0.178301
29224	9.639547	0.225123	-1.807570	0.007250	0.005124	-0.001088	-0.130850	-0.122950	0.983749	-0.594451	0.803847	0.021397	-0.793414	-0.581991	-0.178271
29225	9.660605	0.205725	-1.760657	0.007312	0.002989	-0.000416	-0.130860	-0.122920	0.983751	-0.594452	0.803847	0.021367	-0.793412	-0.581997	-0.178261
29226	9.660638	0.205794	-1.760469	0.008221	0.001232	-0.003838	-0.130864	-0.122931	0.983749	-0.594470	0.803834	0.021369	-0.793398	-0.582013	-0.178271
29227	9.638266	0.198285	-1.766289	0.005611	0.001241	-0.003353	-0.130870	-0.122936	0.983748	-0.594461	0.803840	0.021371	-0.793403	-0.582003	-0.178279
29228	9.640543	0.230275	-1.715508	0.009267	0.002736	-0.003560	-0.130864	-0.122934	0.983749	-0.594484	0.803824	0.021368	-0.793388	-0.582026	-0.178274
29229	9.661440	0.219965	-1.780143	0.003986	0.004888	-0.003263	-0.130842	-0.122916	0.983754	-0.594462	0.803840	0.021372	-0.793407	-0.582008	-0.178245
29230	9.660768	0.206638	-1.759653	0.008283	-0.000902	-0.003164	-0.130868	-0.122932	0.983749	-0.594476	0.803830	0.021366	-0.793393	-0.582019	-0.178276
29231	9.638380	0.199282	-1.765558	0.006458	0.001620	-0.007446	-0.130847	-0.122968	0.983747	-0.594479	0.803826	0.021407	-0.793394	-0.582016	-0.178280
29232	9.660801	0.207335	-1.759393	0.006204	0.003623	-0.001364	-0.130847	-0.122944	0.983750	-0.594478	0.803827	0.021388	-0.793394	-0.582019	-0.178266
29233	9.650407	0.212617	-1.726743	0.007829	-0.000023	-0.001452	-0.130875	-0.122941	0.983747	-0.594485	0.803823	0.021367	-0.793385	-0.582026	-0.178287
29234	9.651811	0.239779	-1.767328	0.005612	0.001242	-0.003351	-0.130881	-0.122944	0.983745	-0.594472	0.803832	0.021369	-0.793393	-0.582013	-0.178293
29235	9.637777	0.186343	-1.744650	0.007767	0.002113	-0.002124	-0.130888	-0.122934	0.983746	-0.594479	0.803827	0.021355	-0.793387	-0.582021	-0.178293
29236	9.639190	0.213609	-1.785173	0.003457	0.000371	-0.004578	-0.130894	-0.122955	0.983742	-0.594457	0.803843	0.021373	-0.793402	-0.581995	-0.178309
29237	9.650450	0.213358	-1.726409	0.009331	0.000603	-0.002885	-0.130908	-0.122959	0.983740	-0.594477	0.803828	0.021364	-0.793385	-0.582014	-0.178324
29238	9.660912	0.208015	-1.758700	0.006858	0.003871	0.001297	-0.130922	-0.122912	0.983744	-0.594474	0.803832	0.021317	-0.793385	-0.582019	-0.178307
29239	9.684054	0.229302	-1.772761	0.008160	0.003371	-0.004507	-0.130905	-0.122913	0.983746	-0.594487	0.803822	0.021326	-0.793378	-0.582032	-0.178295
29240	9.660292	0.194805	-1.737908	0.004566	-0.000261	-0.003627	-0.130923	-0.122928	0.983742	-0.594470	0.803835	0.021331	-0.793388	-0.582013	-0.178317
29241	9.637912	0.187304	-1.743797	0.008222	0.001236	-0.003833	-0.130926	-0.122937	0.983740	-0.594483	0.803825	0.021333	-0.793378	-0.582024	-0.178325
29242	9.619180	0.238617	-1.739612	0.006659	0.002747	-0.003073	-0.130923	-0.122931	0.983741	-0.594483	0.803825	0.021330	-0.793379	-0.582025	-0.178319
29243	9.669394	0.163130	-1.729286	0.009269	0.002740	-0.003555	-0.130916	-0.122928	0.983743	-0.594503	0.803810	0.021328	-0.793364	-0.582046	-0.178313
29244	9.651375	0.227986	-1.745328	0.005550	0.003379	-0.004022	-0.130902	-0.122925	0.983745	-0.594492	0.803818	0.021336	-0.793375	-0.582036	-0.178299
29245	9.638057	0.188126	-1.742908	0.006722	0.000612	-0.002399	-0.130919	-0.122925	0.983743	-0.594491	0.803819	0.021327	-0.793373	-0.582034	-0.178313
29246	9.662562	0.236604	-1.797781	0.005550	0.003379	-0.004022	-0.130905	-0.122924	0.983745	-0.594486	0.803823	0.021334	-0.793379	-0.582030	-0.178301
29247	9.661877	0.223321	-1.777351	0.008286	-0.000898	-0.003158	-0.130930	-0.122939	0.983739	-0.594498	0.803814	0.021330	-0.793366	-0.582039	-0.178330
29248	9.628389	0.207504	-1.730318	0.007706	0.004252	-0.002794	-0.130916	-0.122922	0.983743	-0.594508	0.803807	0.021321	-0.793361	-0.582052	-0.178310
29249	9.661932	0.223724	-1.776999	0.006068	0.000365	-0.005058	-0.130920	-0.122946	0.983740	-0.594505	0.803809	0.021339	-0.793362	-0.582045	-0.178326
29250	9.629840	0.235102	-1.770604	0.008161	0.003374	-0.004503	-0.130904	-0.122947	0.983742	-0.594520	0.803797	0.021347	-0.793354	-0.582060	-0.178315
29251	9.638925	0.203032	-1.762147	0.006660	0.002749	-0.003070	-0.130900	-0.122941	0.983743	-0.594519	0.803798	0.021344	-0.793355	-0.582060	-0.178308
29252	9.638264	0.189657	-1.741596	0.007768	0.002118	-0.002120	-0.130907	-0.122932	0.983743	-0.594528	0.803792	0.021330	-0.793347	-0.582071	-0.178308
29253	9.652346	0.243265	-1.763927	0.006204	0.003628	-0.001361	-0.130906	-0.122906	0.983747	-0.594522	0.803797	0.021312	-0.793352	-0.582069	-0.178293
29254	9.639066	0.203356	-1.761339	0.005551	0.003380	-0.004020	-0.130892	-0.122904	0.983749	-0.594512	0.803804	0.021320	-0.793362	-0.582060	-0.178279
29255	9.651715	0.230151	-1.743166	0.008287	-0.000896	-0.003154	-0.130916	-0.122919	0.983744	-0.594524	0.803795	0.021316	-0.793349	-0.582069	-0.178308
29256	9.648847	0.184919	-1.773230	0.007706	0.004254	-0.002792	-0.130902	-0.122902	0.983748	-0.594532	0.803789	0.021308	-0.793345	-0.582081	-0.178287
29257	9.651796	0.230512	-1.742669	0.005551	0.003381	-0.004020	-0.130888	-0.122900	0.983750	-0.594524	0.803795	0.021317	-0.793353	-0.582073	-0.178274
29258	9.648956	0.185364	-1.772590	0.006660	0.002750	-0.003069	-0.130885	-0.122894	0.983751	-0.594524	0.803795	0.021313	-0.793354	-0.582074	-0.178268
29259	9.662317	0.225687	-1.774656	0.007116	0.001871	-0.004778	-0.130878	-0.122906	0.983751	-0.594529	0.803791	0.021326	-0.793351	-0.582077	-0.178270
29260	9.651214	0.217699	-1.721591	0.006205	0.003630	-0.001359	-0.130878	-0.122880	0.983754	-0.594523	0.803796	0.021306	-0.793356	-0.582076	-0.178255
29261	9.639301	0.204830	-1.759884	0.007635	-0.001143	-0.005812	-0.130889	-0.122918	0.983747	-0.594534	0.803788	0.021329	-0.793346	-0.582079	-0.178286
29262	9.651934	0.231772	-1.741736	0.008162	0.003377	-0.004500	-0.130871	-0.122920	0.983750	-0.594545	0.803779	0.021338	-0.793340	-0.582091	-0.178273
29263	9.648366	0.173008	-1.751538	0.005284	-0.002145	-0.000287	-0.130923	-0.122919	0.983743	-0.594530	0.803791	0.021310	-0.793343	-0.582074	-0.178314
29264	9.652630	0.245504	-1.762059	0.004506	0.001877	-0.004296	-0.130919	-0.122929	0.983742	-0.594515	0.803802	0.021324	-0.793355	-0.582057	-0.178316
29265	9.648389	0.173346	-1.751377	0.007769	0.002121	-0.002116	-0.130926	-0.122919	0.983743	-0.594521	0.803797	0.021310	-0.793349	-0.582066	-0.178316
29266	9.640055	0.219205	-1.779817	0.006724	0.000616	-0.002393	-0.130942	-0.122921	0.983740	-0.594523	0.803796	0.021301	-0.793345	-0.582067	-0.178330
29267	9.670792	0.181384	-1.745257	0.005615	0.001247	-0.003344	-0.130949	-0.122925	0.983739	-0.594515	0.803802	0.021303	-0.793350	-0.582058	-0.178338
29268	9.640066	0.219617	-1.779707	0.007180	-0.000263	-0.004101	-0.130964	-0.122945	0.983734	-0.594521	0.803798	0.021309	-0.793343	-0.582060	-0.178362
29269	9.661790	0.214022	-1.753146	0.005686	0.006647	-0.000324	-0.130945	-0.122894	0.983743	-0.594508	0.803808	0.021281	-0.793356	-0.582057	-0.178316
29270	9.629722	0.225210	-1.746618	0.006071	0.000368	-0.005052	-0.130949	-0.122917	0.983740	-0.594504	0.803810	0.021298	-0.793358	-0.582049	-0.178332
29271	9.673758	0.227685	-1.714409	0.008682	0.000364	-0.005531	-0.130949	-0.122944	0.983736	-0.594523	0.803796	0.021316	-0.793344	-0.582062	-0.178349
29272	9.639531	0.206988	-1.758369	0.007188	0.007274	-0.001755	-0.130918	-0.122901	0.983746	-0.594527	0.803793	0.021300	-0.793346	-0.582075	-0.178299
29273	9.662668	0.228377	-1.772400	0.005615	0.001248	-0.003342	-0.130924	-0.122906	0.983744	-0.594518	0.803800	0.021301	-0.793352	-0.582065	-0.178307
29274	9.661998	0.215110	-1.751870	0.006661	0.002754	-0.003065	-0.130920	-0.122900	0.983746	-0.594516	0.803801	0.021299	-0.793354	-0.582064	-0.178300
29275	9.638959	0.194056	-1.737260	0.005615	0.001248	-0.003342	-0.130926	-0.122904	0.983744	-0.594508	0.803808	0.021301	-0.793359	-0.582055	-0.178307
29276	9.671111	0.183176	-1.743301	0.005159	0.002128	-0.001634	-0.130936	-0.122890	0.983745	-0.594493	0.803819	0.021287	-0.793368	-0.582043	-0.178306
29277	9.652989	0.247986	-1.759745	0.007637	-0.001141	-0.005806	-0.130946	-0.122928	0.983739	-0.594504	0.803810	0.021309	-0.793359	-0.582046	-0.178337
29278	9.648765	0.175724	-1.749066	0.006858	0.003885	0.001303	-0.130959	-0.122882	0.983743	-0.594503	0.803812	0.021264	-0.793358	-0.582053	-0.178320
29279	9.630665	0.240240	-1.765422	0.005679	-0.000887	-0.002666	-0.130986	-0.122893	0.983738	-0.594494	0.803819	0.021259	-0.793360	-0.582041	-0.178349
29280	9.671173	0.183697	-1.742902	0.005553	0.003384	-0.004016	-0.130973	-0.122891	0.983740	-0.594487	0.803824	0.021267	-0.793367	-0.582035	-0.178336
29281	9.631409	0.254178	-1.785465	0.008227	0.001246	-0.003820	-0.130976	-0.122899	0.983738	-0.594500	0.803815	0.021269	-0.793357	-0.582046	-0.178344
29282	9.648851	0.176331	-1.748534	0.006725	0.000620	-0.002389	-0.130993	-0.122901	0.983736	-0.594500	0.803814	0.021260	-0.793354	-0.582046	-0.178359
29283	9.662886	0.229984	-1.771004	0.007708	0.004261	-0.002787	-0.130979	-0.122883	0.983740	-0.594507	0.803809	0.021253	-0.793351	-0.582057	-0.178337
29284	9.630835	0.241061	-1.764384	0.007251	0.005142	-0.001079	-0.130969	-0.122847	0.983746	-0.594509	0.803809	0.021228	-0.793351	-0.582065	-0.178307
29285	9.649024	0.176667	-1.747545	0.007119	0.001876	-0.004770	-0.130962	-0.122859	0.983745	-0.594514	0.803805	0.021241	-0.793349	-0.582069	-0.178309
29286	9.652563	0.235920	-1.737690	0.006073	0.000370	-0.005047	-0.130966	-0.122883	0.983742	-0.594512	0.803805	0.021259	-0.793349	-0.582062	-0.178327
29287	9.640660	0.223130	-1.776052	0.008685	0.000367	-0.005525	-0.130967	-0.122910	0.983738	-0.594531	0.803791	0.021276	-0.793335	-0.582076	-0.178344
29288	9.672117	0.198994	-1.761701	0.005553	0.003386	-0.004015	-0.130953	-0.122907	0.983740	-0.594522	0.803798	0.021284	-0.793344	-0.582068	-0.178331
29289	9.618376	0.215814	-1.781482	0.006206	0.003637	-0.001355	-0.130952	-0.122882	0.983744	-0.594515	0.803803	0.021265	-0.793349	-0.582066	-0.178315
29290	9.661743	0.204649	-1.728689	0.005617	0.001250	-0.003339	-0.130957	-0.122888	0.983742	-0.594509	0.803808	0.021269	-0.793353	-0.582058	-0.178322
29291	9.631033	0.242762	-1.763067	0.006663	0.002757	-0.003062	-0.130953	-0.122881	0.983744	-0.594508	0.803808	0.021266	-0.793354	-0.582059	-0.178315
29292	9.649885	0.191970	-1.766823	0.007640	-0.001138	-0.005800	-0.130965	-0.122919	0.983737	-0.594516	0.803802	0.021287	-0.793346	-0.582060	-0.178347
29293	9.685547	0.240077	-1.763154	0.006206	0.003638	-0.001354	-0.130964	-0.122893	0.983741	-0.594510	0.803807	0.021269	-0.793352	-0.582058	-0.178331
29294	9.649956	0.192348	-1.766390	0.008165	0.003384	-0.004491	-0.130947	-0.122895	0.983743	-0.594524	0.803797	0.021278	-0.793344	-0.582072	-0.178319
29295	9.630393	0.230267	-1.742255	0.006201	-0.003900	-0.003693	-0.130992	-0.122933	0.983732	-0.594520	0.803799	0.021282	-0.793339	-0.582060	-0.178377
29296	9.673012	0.214034	-1.780802	0.006142	0.005774	-0.002030	-0.130970	-0.122903	0.983739	-0.594518	0.803801	0.021271	-0.793345	-0.582064	-0.178341
29297	9.640230	0.211709	-1.753970	0.006726	0.000623	-0.002385	-0.130987	-0.122903	0.983736	-0.594517	0.803802	0.021262	-0.793343	-0.582063	-0.178355
29298	9.639552	0.198362	-1.733481	0.007772	0.002130	-0.002108	-0.130993	-0.122895	0.983737	-0.594528	0.803794	0.021249	-0.793333	-0.582076	-0.178356
29299	9.640971	0.225378	-1.774077	0.005618	0.001252	-0.003337	-0.130999	-0.122899	0.983735	-0.594519	0.803801	0.021250	-0.793339	-0.582066	-0.178363
29300	9.672422	0.201098	-1.759788	0.006727	0.000624	-0.002384	-0.131017	-0.122900	0.983733	-0.594519	0.803801	0.021240	-0.793335	-0.582065	-0.178378
29301	9.640995	0.225766	-1.773896	0.007121	0.001879	-0.004766	-0.131010	-0.122912	0.983732	-0.594525	0.803797	0.021253	-0.793333	-0.582069	-0.178380
29302	9.650134	0.193661	-1.765274	0.007252	0.005147	-0.001076	-0.130999	-0.122877	0.983738	-0.594529	0.803794	0.021230	-0.793332	-0.582079	-0.178350
29303	9.630641	0.231452	-1.740725	0.005554	0.003388	-0.004012	-0.130985	-0.122874	0.983740	-0.594520	0.803800	0.021238	-0.793340	-0.582072	-0.178337
29304	9.640438	0.212846	-1.752691	0.005682	-0.000883	-0.002660	-0.131013	-0.122885	0.983735	-0.594511	0.803807	0.021233	-0.793343	-0.582059	-0.178365
29305	9.662112	0.207463	-1.726288	0.008167	0.003387	-0.004488	-0.130995	-0.122887	0.983737	-0.594524	0.803798	0.021242	-0.793336	-0.582073	-0.178353
29306	9.641186	0.226807	-1.772724	0.004509	0.001881	-0.004288	-0.130991	-0.122896	0.983737	-0.594509	0.803808	0.021256	-0.793348	-0.582056	-0.178354
29307	9.640512	0.213715	-1.752176	0.007121	0.001880	-0.004764	-0.130984	-0.122909	0.983736	-0.594514	0.803804	0.021269	-0.793345	-0.582059	-0.178356
29308	9.630768	0.232725	-1.739856	0.006206	0.003641	-0.001352	-0.130983	-0.122883	0.983739	-0.594507	0.803810	0.021250	-0.793350	-0.582057	-0.178340
29309	9.672766	0.203020	-1.757676	0.009212	0.004896	-0.004210	-0.130955	-0.122873	0.983744	-0.594528	0.803794	0.021254	-0.793339	-0.582080	-0.178313
29310	9.640659	0.214339	-1.751291	0.006076	0.000373	-0.005040	-0.130960	-0.122897	0.983741	-0.594528	0.803793	0.021271	-0.793339	-0.582076	-0.178330
29311	9.640646	0.214607	-1.751328	0.005682	-0.000882	-0.002658	-0.130987	-0.122909	0.983736	-0.594519	0.803800	0.021266	-0.793341	-0.582064	-0.178359
29312	9.652532	0.228131	-1.712826	0.007058	0.004016	-0.005439	-0.130960	-0.122914	0.983739	-0.594524	0.803796	0.021285	-0.793341	-0.582069	-0.178340
29313	9.650507	0.196341	-1.762939	0.006664	0.002762	-0.003057	-0.130956	-0.122907	0.983740	-0.594524	0.803796	0.021282	-0.793342	-0.582070	-0.178333
29314	9.663808	0.236600	-1.765094	0.006664	0.002762	-0.003056	-0.130952	-0.122900	0.983741	-0.594521	0.803798	0.021279	-0.793345	-0.582068	-0.178326
29315	9.640106	0.202173	-1.729957	0.005555	0.003390	-0.004010	-0.130938	-0.122898	0.983744	-0.594513	0.803804	0.021288	-0.793354	-0.582061	-0.178313
29316	9.640828	0.215731	-1.750192	0.005225	0.000000	-0.000951	-0.130969	-0.122892	0.983740	-0.594500	0.803814	0.021267	-0.793358	-0.582048	-0.178334
29317	9.650633	0.197063	-1.762170	0.007123	0.001882	-0.004761	-0.130962	-0.122904	0.983740	-0.594505	0.803810	0.021280	-0.793355	-0.582051	-0.178336
29318	9.640195	0.202644	-1.729404	0.009864	0.005152	-0.001548	-0.130948	-0.122872	0.983745	-0.594528	0.803794	0.021256	-0.793340	-0.582081	-0.178306
29319	9.673073	0.205121	-1.755740	0.008296	-0.000880	-0.003130	-0.130973	-0.122887	0.983740	-0.594541	0.803785	0.021251	-0.793327	-0.582090	-0.178335
29320	9.606044	0.181750	-1.773345	0.005097	0.004271	-0.002303	-0.130963	-0.122865	0.983744	-0.594528	0.803795	0.021243	-0.793338	-0.582081	-0.178314
29321	9.676606	0.264344	-1.745639	0.006665	0.002764	-0.003055	-0.130959	-0.122859	0.983746	-0.594527	0.803795	0.021240	-0.793340	-0.582082	-0.178307
29322	9.627774	0.176616	-1.746567	0.006078	0.000374	-0.005037	-0.130962	-0.122882	0.983742	-0.594525	0.803796	0.021258	-0.793341	-0.582075	-0.178323
29323	9.641047	0.216844	-1.748845	0.007316	0.003018	-0.000396	-0.130972	-0.122853	0.983745	-0.594525	0.803797	0.021227	-0.793338	-0.582081	-0.178314
29324	9.650916	0.198137	-1.760494	0.008105	0.005527	-0.005159	-0.130933	-0.122846	0.983751	-0.594538	0.803787	0.021243	-0.793335	-0.582096	-0.178279
29325	9.641189	0.217166	-1.748024	0.006207	0.003646	-0.001349	-0.130933	-0.122821	0.983754	-0.594531	0.803792	0.021224	-0.793341	-0.582094	-0.178263
29326	9.674051	0.219546	-1.774476	0.000064	-0.002135	0.000677	-0.130990	-0.122812	0.983747	-0.594470	0.803838	0.021196	-0.793377	-0.582032	-0.178302
29327	9.640482	0.203901	-1.727655	0.008691	0.000376	-0.005510	-0.130990	-0.122839	0.983744	-0.594489	0.803824	0.021213	-0.793363	-0.582046	-0.178319
29328	9.631409	0.236397	-1.735807	0.007711	0.004274	-0.002777	-0.130977	-0.122820	0.983748	-0.594495	0.803820	0.021205	-0.793360	-0.582056	-0.178298
29329	9.715367	0.176959	-1.771839	0.007124	0.001884	-0.004758	-0.130970	-0.122833	0.983747	-0.594500	0.803815	0.021218	-0.793358	-0.582059	-0.178299
29330	9.600020	0.261353	-1.749646	0.007124	0.001884	-0.004758	-0.130962	-0.122845	0.983747	-0.594507	0.803810	0.021232	-0.793354	-0.582064	-0.178301
29331	9.693080	0.169702	-1.777373	0.006666	0.002766	-0.003053	-0.130958	-0.122839	0.983748	-0.594506	0.803811	0.021229	-0.793355	-0.582064	-0.178294
29332	9.589588	0.267292	-1.716730	0.008170	0.003394	-0.004480	-0.130939	-0.122841	0.983750	-0.594520	0.803800	0.021238	-0.793348	-0.582079	-0.178280
29333	9.670096	0.149049	-1.762505	0.005034	-0.001133	-0.005310	-0.130953	-0.122875	0.983744	-0.594509	0.803807	0.021261	-0.793354	-0.582061	-0.178311
29334	9.646214	0.304878	-1.777871	0.009865	0.005159	-0.001544	-0.130940	-0.122842	0.983750	-0.594532	0.803791	0.021236	-0.793339	-0.582091	-0.178282
29335	9.605849	0.171294	-1.749906	0.005685	-0.000878	-0.002651	-0.130967	-0.122853	0.983745	-0.594523	0.803798	0.021231	-0.793341	-0.582079	-0.178310
29336	9.751161	0.226422	-1.767045	0.009865	0.005159	-0.001543	-0.130953	-0.122821	0.983751	-0.594547	0.803781	0.021208	-0.793326	-0.582109	-0.178280
29337	9.554844	0.233601	-1.739710	0.003467	0.000374	-0.004559	-0.130959	-0.122840	0.983748	-0.594523	0.803799	0.021226	-0.793343	-0.582081	-0.178296
29338	9.757599	0.149069	-1.788335	0.009344	0.000634	-0.002846	-0.130974	-0.122844	0.983745	-0.594544	0.803783	0.021215	-0.793324	-0.582101	-0.178311
29339	9.571507	0.332954	-1.732479	0.005162	0.002140	-0.001623	-0.130983	-0.122830	0.983746	-0.594530	0.803794	0.021201	-0.793333	-0.582089	-0.178310
29340	9.696338	0.034590	-1.806862	0.008170	0.003396	-0.004478	-0.130967	-0.122831	0.983748	-0.594542	0.803785	0.021209	-0.793327	-0.582102	-0.178297
29341	9.632199	0.434812	-1.692694	0.007126	0.001886	-0.004754	-0.130960	-0.122843	0.983748	-0.594547	0.803781	0.021222	-0.793324	-0.582105	-0.178299
29342	9.651717	0.019527	-1.818335	0.006081	0.000377	-0.005031	-0.130963	-0.122866	0.983744	-0.594545	0.803782	0.021239	-0.793325	-0.582098	-0.178315
29343	9.651838	0.397699	-1.716555	0.007776	0.002143	-0.002095	-0.130970	-0.122855	0.983745	-0.594551	0.803777	0.021225	-0.793319	-0.582107	-0.178315
29344	9.632853	0.070857	-1.814321	0.006207	0.003650	-0.001346	-0.130969	-0.122831	0.983748	-0.594548	0.803781	0.021207	-0.793322	-0.582108	-0.178299
29345	9.658328	0.320079	-1.737639	0.010849	0.001264	-0.004270	-0.130970	-0.122843	0.983746	-0.594582	0.803755	0.021208	-0.793297	-0.582140	-0.178308
29346	9.648865	0.156806	-1.786378	0.002485	0.004273	-0.001828	-0.130962	-0.122817	0.983750	-0.594546	0.803782	0.021200	-0.793324	-0.582109	-0.178286
29347	9.641096	0.208090	-1.723729	0.009740	0.001890	-0.005224	-0.130952	-0.122833	0.983750	-0.594573	0.803762	0.021213	-0.793306	-0.582133	-0.178288
29348	9.645222	0.280469	-1.734440	0.005813	0.002398	0.001037	-0.130977	-0.122796	0.983751	-0.594560	0.803773	0.021170	-0.793312	-0.582126	-0.178285
29349	9.657410	0.111577	-1.756871	0.009740	0.001891	-0.005224	-0.130967	-0.122812	0.983750	-0.594586	0.803753	0.021183	-0.793294	-0.582150	-0.178287
29350	9.635470	0.299813	-1.721958	0.005953	0.004649	-0.006385	-0.130930	-0.122821	0.983754	-0.594586	0.803752	0.021213	-0.793300	-0.582149	-0.178263
29351	9.681243	0.146779	-1.791225	0.004768	0.000888	0.000760	-0.130964	-0.122795	0.983753	-0.594566	0.803768	0.021176	-0.793310	-0.582132	-0.178274
29352	9.635528	0.300081	-1.721591	0.007127	0.001888	-0.004751	-0.130955	-0.122807	0.983753	-0.594569	0.803765	0.021191	-0.793308	-0.582134	-0.178274
29353	9.648433	0.144681	-1.764410	0.007777	0.002146	-0.002092	-0.130962	-0.122796	0.983753	-0.594576	0.803760	0.021176	-0.793302	-0.582143	-0.178274
29354	9.645407	0.281685	-1.733214	0.006018	0.002514	-0.005706	-0.130944	-0.122812	0.983753	-0.594572	0.803763	0.021201	-0.793308	-0.582136	-0.178268
29355	9.648490	0.145213	-1.764052	0.006732	0.000636	-0.002368	-0.130961	-0.122812	0.983751	-0.594571	0.803764	0.021191	-0.793306	-0.582134	-0.178282
29356	9.632936	0.255373	-1.750850	0.009281	0.002775	-0.003518	-0.130953	-0.122809	0.983753	-0.594588	0.803752	0.021189	-0.793295	-0.582152	-0.178275
29357	9.651257	0.191159	-1.733634	0.003989	0.004903	-0.003254	-0.130931	-0.122791	0.983758	-0.594566	0.803768	0.021193	-0.793315	-0.582134	-0.178246
29358	9.674348	0.212551	-1.747814	0.007777	0.002147	-0.002091	-0.130940	-0.122779	0.983758	-0.594569	0.803766	0.021177	-0.793311	-0.582139	-0.178245
29359	9.621954	0.255925	-1.808830	0.006083	0.000379	-0.005026	-0.130943	-0.122802	0.983755	-0.594566	0.803767	0.021194	-0.793313	-0.582132	-0.178261
29360	9.682826	0.167413	-1.718661	0.008822	0.003658	-0.001814	-0.130939	-0.122779	0.983758	-0.594579	0.803759	0.021175	-0.793304	-0.582149	-0.178245
29361	9.612181	0.275228	-1.796460	0.004974	0.001004	-0.005981	-0.130932	-0.122806	0.983756	-0.594568	0.803766	0.021204	-0.793313	-0.582134	-0.178255
29362	9.648049	0.133377	-1.742094	0.006668	0.002773	-0.003045	-0.130930	-0.122799	0.983757	-0.594569	0.803765	0.021199	-0.793313	-0.582136	-0.178250
29363	9.657579	0.304842	-1.804818	0.005688	-0.000873	-0.002643	-0.130957	-0.122810	0.983752	-0.594560	0.803772	0.021194	-0.793315	-0.582124	-0.178278
29364	9.648079	0.133766	-1.741896	0.005559	0.003397	-0.004001	-0.130943	-0.122808	0.983754	-0.594552	0.803778	0.021202	-0.793323	-0.582117	-0.178265
29365	9.633888	0.270677	-1.769593	0.009347	0.000643	-0.002836	-0.130957	-0.122812	0.983752	-0.594572	0.803763	0.021193	-0.793306	-0.582136	-0.178279
29366	9.639680	0.179871	-1.770495	0.003865	0.001629	-0.006935	-0.130940	-0.122843	0.983750	-0.594553	0.803776	0.021233	-0.793323	-0.582112	-0.178283
29367	9.664666	0.233754	-1.734679	0.008303	-0.000868	-0.003112	-0.130964	-0.122858	0.983745	-0.594566	0.803767	0.021227	-0.793310	-0.582121	-0.178312
29368	9.662732	0.201624	-1.784836	0.005099	0.004280	-0.002298	-0.130774	-0.122996	0.983753	-0.594674	0.803682	0.021430	-0.793260	-0.582210	-0.178243
29369	9.620062	0.218233	-1.746139	0.009348	0.000644	-0.002834	-0.130788	-0.123000	0.983751	-0.594694	0.803667	0.021420	-0.793243	-0.582229	-0.178257
29370	9.652945	0.220825	-1.772532	0.007129	0.001892	-0.004746	-0.130781	-0.123013	0.983750	-0.594701	0.803661	0.021434	-0.793239	-0.582234	-0.178259
29371	9.652268	0.207765	-1.751956	0.005624	0.001263	-0.003320	-0.130787	-0.123017	0.983749	-0.594692	0.803668	0.021435	-0.793244	-0.582224	-0.178267
29372	9.642490	0.226704	-1.739615	0.008297	0.006680	-0.000788	-0.130765	-0.122969	0.983758	-0.594701	0.803662	0.021407	-0.793241	-0.582242	-0.178221
29373	9.639861	0.181299	-1.769365	0.005566	-0.004148	-0.006321	-0.130797	-0.123029	0.983746	-0.594695	0.803665	0.021438	-0.793240	-0.582225	-0.178281
29374	9.611018	0.251357	-1.753919	0.006857	0.003916	0.001317	-0.130811	-0.122981	0.983750	-0.594691	0.803669	0.021392	-0.793241	-0.582229	-0.178264
29375	9.671376	0.157311	-1.754745	0.006481	0.001634	-0.007402	-0.130790	-0.123016	0.983749	-0.594695	0.803666	0.021432	-0.793242	-0.582227	-0.178268
29376	9.611098	0.251896	-1.753402	0.007714	0.004287	-0.002766	-0.130775	-0.122999	0.983753	-0.594704	0.803660	0.021425	-0.793237	-0.582239	-0.178247
29377	9.617669	0.174219	-1.774447	0.006669	0.002776	-0.003042	-0.130771	-0.122992	0.983754	-0.594703	0.803660	0.021422	-0.793239	-0.582240	-0.178239
29378	9.655823	0.268080	-1.741151	0.009809	-0.000236	-0.004532	-0.130781	-0.123016	0.983750	-0.594730	0.803640	0.021430	-0.793217	-0.582263	-0.178262
29379	9.651821	0.196122	-1.729934	0.004450	0.004023	-0.004954	-0.130755	-0.123017	0.983753	-0.594714	0.803651	0.021449	-0.793233	-0.582247	-0.178242
29380	9.653242	0.223161	-1.770623	0.006086	0.000382	-0.005020	-0.130758	-0.123041	0.983750	-0.594710	0.803653	0.021468	-0.793235	-0.582239	-0.178257
29381	9.652575	0.210036	-1.749993	0.003594	0.003653	-0.000871	-0.130760	-0.123011	0.983753	-0.594682	0.803674	0.021449	-0.793256	-0.582216	-0.178241
29382	9.674234	0.204823	-1.723450	0.008701	0.000389	-0.005487	-0.130760	-0.123039	0.983750	-0.594704	0.803658	0.021467	-0.793240	-0.582232	-0.178258
29383	9.630987	0.215866	-1.776065	0.005164	0.002148	-0.001616	-0.130769	-0.123025	0.983750	-0.594689	0.803670	0.021453	-0.793249	-0.582220	-0.178257
29384	9.673074	0.186138	-1.793764	0.007714	0.004290	-0.002764	-0.130755	-0.123006	0.983754	-0.594695	0.803666	0.021445	-0.793247	-0.582230	-0.178235
29385	9.633695	0.261733	-1.745726	0.006735	0.000643	-0.002360	-0.130772	-0.123007	0.983752	-0.594694	0.803667	0.021435	-0.793245	-0.582228	-0.178248
29386	9.639574	0.170831	-1.746385	0.004451	0.004024	-0.004953	-0.130748	-0.123008	0.983755	-0.594676	0.803679	0.021455	-0.793263	-0.582210	-0.178229
29387	9.643645	0.243384	-1.757082	0.007714	0.004291	-0.002763	-0.130734	-0.122990	0.983759	-0.594683	0.803674	0.021447	-0.793260	-0.582221	-0.178207
29388	9.653522	0.224600	-1.768914	0.006800	-0.001492	-0.001680	-0.130772	-0.122997	0.983753	-0.594680	0.803677	0.021430	-0.793256	-0.582216	-0.178242
29389	9.653510	0.224675	-1.768970	0.006735	0.000643	-0.002359	-0.130789	-0.122997	0.983751	-0.594679	0.803678	0.021421	-0.793254	-0.582214	-0.178256
29390	9.653547	0.224984	-1.768728	0.005957	0.004654	-0.006377	-0.130750	-0.123005	0.983755	-0.594673	0.803682	0.021452	-0.793264	-0.582208	-0.178229
29391	9.662788	0.193044	-1.759761	0.009868	0.005182	-0.001529	-0.130736	-0.122972	0.983761	-0.594696	0.803665	0.021428	-0.793250	-0.582237	-0.178199
29392	9.610934	0.241839	-1.729548	0.003011	0.001260	-0.002848	-0.130744	-0.122973	0.983760	-0.594665	0.803688	0.021431	-0.793272	-0.582205	-0.178205
29393	9.662155	0.180000	-1.738923	0.006736	0.000644	-0.002358	-0.130761	-0.122973	0.983758	-0.594663	0.803689	0.021421	-0.793270	-0.582204	-0.178219
29394	9.633978	0.263456	-1.743904	0.004517	0.001889	-0.004272	-0.130757	-0.122983	0.983757	-0.594651	0.803698	0.021435	-0.793280	-0.582189	-0.178221
29395	9.641277	0.199165	-1.785425	0.006671	0.002780	-0.003038	-0.130753	-0.122976	0.983758	-0.594650	0.803699	0.021432	-0.793281	-0.582190	-0.178214
29396	9.643212	0.231653	-1.734953	0.007780	0.002158	-0.002081	-0.130760	-0.122966	0.983759	-0.594659	0.803693	0.021418	-0.793273	-0.582200	-0.178213
29397	9.640649	0.186177	-1.764559	0.004517	0.001890	-0.004271	-0.130755	-0.122975	0.983758	-0.594643	0.803704	0.021431	-0.793286	-0.582183	-0.178214
29398	9.644662	0.258655	-1.775512	0.007780	0.002158	-0.002080	-0.130763	-0.122964	0.983759	-0.594652	0.803698	0.021416	-0.793278	-0.582193	-0.178215
29399	9.630855	0.205425	-1.752189	0.008177	0.003411	-0.004461	-0.130745	-0.122965	0.983761	-0.594665	0.803688	0.021424	-0.793271	-0.582207	-0.178201
29400	9.654620	0.240239	-1.786885	0.005561	0.003403	-0.003994	-0.130731	-0.122962	0.983763	-0.594655	0.803695	0.021432	-0.793281	-0.582198	-0.178188
29401	9.653259	0.213896	-1.745747	0.005627	0.001268	-0.003313	-0.130737	-0.122966	0.983762	-0.594646	0.803702	0.021434	-0.793287	-0.582188	-0.178195
29402	9.640828	0.187364	-1.763451	0.007133	0.001898	-0.004737	-0.130730	-0.122977	0.983761	-0.594648	0.803700	0.021447	-0.793287	-0.582188	-0.178196
29403	9.663864	0.208868	-1.777861	0.005627	0.001269	-0.003313	-0.130736	-0.122981	0.983760	-0.594639	0.803707	0.021448	-0.793292	-0.582178	-0.178203
29404	9.640856	0.187938	-1.763241	0.006089	0.000386	-0.005013	-0.130739	-0.123005	0.983757	-0.594637	0.803708	0.021466	-0.793294	-0.582171	-0.178219
29405	9.676337	0.236066	-1.759834	0.008428	0.002422	0.000579	-0.130759	-0.122971	0.983758	-0.594645	0.803703	0.021425	-0.793284	-0.582185	-0.178216
29406	9.652654	0.201746	-1.724632	0.003870	0.001629	-0.006927	-0.130742	-0.123002	0.983757	-0.594626	0.803716	0.021465	-0.793301	-0.582161	-0.178219
29407	9.675664	0.223353	-1.739162	0.008308	-0.000857	-0.003097	-0.130766	-0.123017	0.983752	-0.594638	0.803707	0.021460	-0.793288	-0.582170	-0.178248
29408	9.631067	0.207595	-1.750767	0.008759	0.005810	-0.002482	-0.130741	-0.122987	0.983759	-0.594653	0.803697	0.021447	-0.793281	-0.582191	-0.178211
29409	9.654140	0.229031	-1.764967	0.004518	0.001891	-0.004269	-0.130737	-0.122995	0.983758	-0.594637	0.803708	0.021460	-0.793294	-0.582173	-0.178212
29410	9.662652	0.183778	-1.735761	0.007781	0.002162	-0.002077	-0.130742	-0.122984	0.983759	-0.594640	0.803706	0.021447	-0.793290	-0.582178	-0.178210
29411	9.631895	0.221462	-1.770445	0.005562	0.003405	-0.003992	-0.130728	-0.122982	0.983761	-0.594632	0.803712	0.021455	-0.793299	-0.582171	-0.178196
29412	9.663430	0.197359	-1.755751	0.008891	0.001541	-0.001119	-0.130743	-0.122966	0.983761	-0.594643	0.803704	0.021431	-0.793288	-0.582184	-0.178200
29413	9.633825	0.254259	-1.719801	0.004915	0.003143	-0.006649	-0.130715	-0.122986	0.983762	-0.594633	0.803711	0.021466	-0.793300	-0.582171	-0.178188
29414	9.662778	0.184688	-1.734965	0.005694	-0.000865	-0.002629	-0.130743	-0.122995	0.983757	-0.594614	0.803725	0.021461	-0.793310	-0.582150	-0.178215
29415	9.653581	0.217117	-1.743563	0.006090	0.000387	-0.005010	-0.130746	-0.123018	0.983754	-0.594611	0.803726	0.021479	-0.793311	-0.582143	-0.178232
29416	9.641192	0.190462	-1.761129	0.004638	0.005173	-0.000593	-0.130738	-0.122976	0.983760	-0.594585	0.803747	0.021455	-0.793332	-0.582124	-0.178200
29417	9.666133	0.244180	-1.725042	0.007716	0.004299	-0.002756	-0.130724	-0.122958	0.983765	-0.594592	0.803741	0.021448	-0.793329	-0.582135	-0.178178
29418	9.641293	0.190790	-1.760543	0.005047	-0.001127	-0.005285	-0.130737	-0.122993	0.983758	-0.594583	0.803748	0.021470	-0.793334	-0.582119	-0.178209
29419	9.653713	0.217946	-1.742731	0.008244	0.001281	-0.003774	-0.130741	-0.123001	0.983757	-0.594596	0.803738	0.021472	-0.793324	-0.582130	-0.178217
29420	9.654433	0.231361	-1.763061	0.007782	0.002165	-0.002074	-0.130747	-0.122989	0.983758	-0.594601	0.803734	0.021457	-0.793319	-0.582138	-0.178215
29421	9.641367	0.191404	-1.760068	0.003991	0.004911	-0.003250	-0.130724	-0.122972	0.983763	-0.594580	0.803750	0.021461	-0.793339	-0.582120	-0.178186
29422	9.666914	0.258598	-1.744882	0.006223	-0.003882	-0.003645	-0.130769	-0.123011	0.983752	-0.594579	0.803751	0.021466	-0.793332	-0.582111	-0.178245
29423	9.641377	0.191754	-1.759978	0.007254	0.005184	-0.001057	-0.130758	-0.122974	0.983758	-0.594580	0.803751	0.021443	-0.793333	-0.582119	-0.178214
29424	9.654542	0.232097	-1.762363	0.004982	0.001009	-0.005965	-0.130750	-0.123001	0.983756	-0.594568	0.803759	0.021472	-0.793343	-0.582102	-0.178224
29425	9.641454	0.192183	-1.759508	0.007320	0.003049	-0.000375	-0.130760	-0.122971	0.983758	-0.594569	0.803759	0.021442	-0.793341	-0.582108	-0.178214
29426	9.653912	0.219148	-1.741475	0.007135	0.001903	-0.004730	-0.130752	-0.122983	0.983758	-0.594573	0.803755	0.021455	-0.793339	-0.582111	-0.178215
29427	9.653235	0.206161	-1.720851	0.005629	0.001272	-0.003308	-0.130759	-0.122987	0.983756	-0.594565	0.803761	0.021456	-0.793344	-0.582101	-0.178222
29428	9.673735	0.181735	-1.765000	0.008892	0.001546	-0.001114	-0.130778	-0.122971	0.983756	-0.594576	0.803754	0.021429	-0.793333	-0.582115	-0.178229
29429	9.644758	0.251961	-1.749747	0.005445	0.000126	-0.007663	-0.130768	-0.123017	0.983751	-0.594571	0.803756	0.021474	-0.793338	-0.582102	-0.178247
29430	9.663851	0.201166	-1.753002	0.004770	0.000905	0.000772	-0.130802	-0.122990	0.983750	-0.594552	0.803772	0.021436	-0.793347	-0.582086	-0.178259
29431	9.631709	0.212110	-1.746686	0.010267	0.006448	-0.003899	-0.130764	-0.122969	0.983758	-0.594581	0.803750	0.021435	-0.793331	-0.582120	-0.178217
29432	9.663949	0.201494	-1.752420	0.005049	-0.001126	-0.005281	-0.130776	-0.123004	0.983752	-0.594569	0.803758	0.021458	-0.793338	-0.582102	-0.178247
29433	9.644159	0.239519	-1.728613	0.007783	0.002168	-0.002071	-0.130783	-0.122993	0.983752	-0.594576	0.803754	0.021444	-0.793332	-0.582111	-0.178246
29434	9.641682	0.193889	-1.758069	0.006673	0.002788	-0.003030	-0.130779	-0.122985	0.983754	-0.594573	0.803756	0.021441	-0.793335	-0.582110	-0.178238
29435	9.655540	0.247408	-1.780930	0.005101	0.004293	-0.002290	-0.130767	-0.122964	0.983758	-0.594559	0.803766	0.021434	-0.793347	-0.582099	-0.178215
29436	9.653490	0.207772	-1.719229	0.009356	0.000665	-0.002810	-0.130780	-0.122967	0.983756	-0.594578	0.803752	0.021425	-0.793331	-0.582118	-0.178228
29437	9.644309	0.240248	-1.727676	0.004917	0.003145	-0.006645	-0.130751	-0.122987	0.983757	-0.594568	0.803759	0.021460	-0.793343	-0.582105	-0.178217
29438	9.654237	0.221554	-1.739372	0.007386	0.000918	0.000310	-0.130782	-0.122964	0.983756	-0.594568	0.803760	0.021423	-0.793338	-0.582108	-0.178228
29439	9.654251	0.221775	-1.739264	0.006491	0.001641	-0.007383	-0.130761	-0.122999	0.983754	-0.594571	0.803756	0.021463	-0.793339	-0.582106	-0.178232
29440	9.676579	0.230083	-1.733182	0.005167	0.002158	-0.001607	-0.130772	-0.122984	0.983755	-0.594558	0.803767	0.021447	-0.793347	-0.582095	-0.178231
29441	9.641215	0.182112	-1.736154	0.006674	0.002790	-0.003028	-0.130768	-0.122977	0.983756	-0.594557	0.803767	0.021444	-0.793348	-0.582095	-0.178224
29442	9.663553	0.190344	-1.730030	0.007137	0.001906	-0.004725	-0.130761	-0.122988	0.983756	-0.594560	0.803765	0.021456	-0.793347	-0.582096	-0.178225
29443	9.632073	0.214758	-1.744355	0.006674	0.002790	-0.003028	-0.130757	-0.122981	0.983757	-0.594560	0.803765	0.021453	-0.793348	-0.582097	-0.178218
29444	9.642026	0.196092	-1.755941	0.008181	0.003422	-0.004448	-0.130741	-0.122981	0.983759	-0.594571	0.803756	0.021460	-0.793342	-0.582109	-0.178205
29445	9.654450	0.223166	-1.737983	0.009357	0.000668	-0.002806	-0.130755	-0.122985	0.983757	-0.594592	0.803742	0.021451	-0.793325	-0.582129	-0.178219
29446	9.651278	0.164127	-1.747062	0.004770	0.000909	0.000774	-0.130790	-0.122957	0.983756	-0.594570	0.803759	0.021412	-0.793335	-0.582111	-0.178230
29447	9.645263	0.255496	-1.746451	0.006492	0.001642	-0.007381	-0.130769	-0.122992	0.983754	-0.594574	0.803755	0.021452	-0.793336	-0.582109	-0.178234
29448	9.641438	0.183533	-1.734767	0.007254	0.005192	-0.001053	-0.130758	-0.122956	0.983760	-0.594575	0.803754	0.021429	-0.793336	-0.582118	-0.178203
29449	9.686788	0.212835	-1.743153	0.008248	0.001288	-0.003764	-0.130761	-0.122963	0.983759	-0.594588	0.803745	0.021430	-0.793326	-0.582129	-0.178211
29450	9.654609	0.224002	-1.736991	0.005565	0.003411	-0.003985	-0.130746	-0.122961	0.983761	-0.594581	0.803750	0.021439	-0.793334	-0.582122	-0.178197
29451	9.641548	0.184216	-1.734082	0.006095	0.000392	-0.004999	-0.130749	-0.122984	0.983758	-0.594578	0.803752	0.021456	-0.793336	-0.582115	-0.178213
29452	9.644745	0.243622	-1.724762	0.004455	0.004031	-0.004944	-0.130724	-0.122986	0.983761	-0.594565	0.803761	0.021476	-0.793349	-0.582103	-0.178194
29453	9.674539	0.187021	-1.760031	0.008430	0.002439	0.000591	-0.130744	-0.122952	0.983763	-0.594574	0.803755	0.021434	-0.793340	-0.582117	-0.178190
29454	9.645538	0.256991	-1.744710	0.005565	0.003412	-0.003985	-0.130730	-0.122949	0.983765	-0.594564	0.803762	0.021442	-0.793349	-0.582108	-0.178177
29455	9.674621	0.187506	-1.759528	0.006493	0.001643	-0.007378	-0.130710	-0.122983	0.983763	-0.594568	0.803758	0.021482	-0.793350	-0.582106	-0.178181
29456	9.654838	0.225595	-1.735509	0.007254	0.005194	-0.001051	-0.130697	-0.122947	0.983769	-0.594570	0.803758	0.021459	-0.793351	-0.582115	-0.178149
29457	9.642515	0.198852	-1.752943	0.007139	0.001909	-0.004721	-0.130690	-0.122959	0.983769	-0.594575	0.803753	0.021472	-0.793348	-0.582118	-0.178151
29458	9.645692	0.258204	-1.743680	0.007139	0.001910	-0.004720	-0.130684	-0.122970	0.983768	-0.594579	0.803750	0.021484	-0.793346	-0.582120	-0.178153
29459	9.629505	0.159369	-1.749773	0.005566	0.003413	-0.003983	-0.130669	-0.122967	0.983771	-0.594570	0.803756	0.021492	-0.793355	-0.582112	-0.178139
29460	9.677285	0.234700	-1.728616	0.004522	0.001896	-0.004260	-0.130666	-0.122975	0.983770	-0.594552	0.803770	0.021505	-0.793369	-0.582092	-0.178141
29461	9.619666	0.178755	-1.737424	0.008828	0.003693	-0.001787	-0.130663	-0.122953	0.983773	-0.594566	0.803759	0.021486	-0.793359	-0.582111	-0.178125
29462	9.664946	0.208104	-1.746140	0.006230	-0.003876	-0.003629	-0.130707	-0.122990	0.983763	-0.594560	0.803764	0.021491	-0.793356	-0.582097	-0.178182
29463	9.633410	0.232486	-1.760761	0.005566	0.003413	-0.003983	-0.130692	-0.122987	0.983765	-0.594552	0.803770	0.021499	-0.793365	-0.582090	-0.178169
29464	9.641995	0.187438	-1.731251	0.008183	0.003428	-0.004442	-0.130674	-0.122989	0.983767	-0.594564	0.803760	0.021508	-0.793358	-0.582102	-0.178155
29465	9.665709	0.222066	-1.766194	0.006742	0.000661	-0.002339	-0.130691	-0.122989	0.983765	-0.594563	0.803761	0.021498	-0.793356	-0.582101	-0.178169
29466	9.642735	0.201067	-1.751476	0.007140	0.001911	-0.004718	-0.130686	-0.122999	0.983764	-0.594567	0.803758	0.021509	-0.793354	-0.582103	-0.178171
29467	9.668872	0.281532	-1.756918	0.006743	0.000661	-0.002338	-0.130703	-0.122999	0.983762	-0.594566	0.803759	0.021499	-0.793352	-0.582102	-0.178185
29468	9.652681	0.182621	-1.763161	0.006097	0.000395	-0.004994	-0.130706	-0.123024	0.983759	-0.594566	0.803759	0.021517	-0.793352	-0.582097	-0.178202
29469	9.643503	0.214885	-1.771524	0.010915	0.006730	-0.001232	-0.130681	-0.122980	0.983767	-0.594597	0.803737	0.021489	-0.793333	-0.582137	-0.178157
29470	9.655234	0.228860	-1.732877	0.006496	0.001645	-0.007373	-0.130662	-0.123014	0.983766	-0.594600	0.803733	0.021528	-0.793333	-0.582134	-0.178162
29471	9.662743	0.164612	-1.774184	0.003480	0.000380	-0.004534	-0.130668	-0.123034	0.983762	-0.594576	0.803750	0.021546	-0.793350	-0.582106	-0.178178
29472	9.646701	0.274771	-1.761962	0.007388	0.000929	0.000319	-0.130698	-0.123012	0.983761	-0.594579	0.803750	0.021509	-0.793343	-0.582112	-0.178189
29473	9.642911	0.202676	-1.750323	0.006031	0.002530	-0.005677	-0.130681	-0.123028	0.983762	-0.594577	0.803751	0.021533	-0.793348	-0.582108	-0.178184
29474	9.643624	0.216340	-1.770691	0.007606	0.001028	-0.006412	-0.130669	-0.123058	0.983759	-0.594585	0.803743	0.021564	-0.793344	-0.582111	-0.178193
29475	9.642954	0.203470	-1.749995	0.006676	0.002798	-0.003020	-0.130665	-0.123051	0.983761	-0.594584	0.803744	0.021561	-0.793345	-0.582112	-0.178185
29476	9.653600	0.197977	-1.782232	0.004591	-0.000237	-0.003573	-0.130681	-0.123066	0.983757	-0.594568	0.803756	0.021567	-0.793354	-0.582092	-0.178207
29477	9.665265	0.212006	-1.743906	0.007141	0.001914	-0.004715	-0.130674	-0.123078	0.983756	-0.594573	0.803752	0.021579	-0.793352	-0.582095	-0.178208
29478	9.623829	0.255308	-1.746465	0.008184	0.003432	-0.004438	-0.130656	-0.123079	0.983758	-0.594589	0.803740	0.021588	-0.793343	-0.582111	-0.178195
29479	9.653680	0.198638	-1.781725	0.007388	0.000932	0.000321	-0.130687	-0.123056	0.983757	-0.594589	0.803741	0.021550	-0.793338	-0.582115	-0.178206
29480	9.633826	0.236600	-1.757938	0.003414	0.002516	-0.005217	-0.130671	-0.123069	0.983758	-0.594567	0.803756	0.021575	-0.793357	-0.582091	-0.178201
29481	9.674659	0.180706	-1.734276	0.005102	0.004302	-0.002284	-0.130659	-0.123047	0.983762	-0.594553	0.803767	0.021568	-0.793369	-0.582081	-0.178178
29482	9.646264	0.263998	-1.739645	0.008252	0.001298	-0.003753	-0.130662	-0.123054	0.983761	-0.594561	0.803761	0.021569	-0.793363	-0.582087	-0.178184
29483	9.652440	0.172998	-1.739771	0.005169	0.002167	-0.001600	-0.130672	-0.123039	0.983761	-0.594546	0.803772	0.021555	-0.793372	-0.582075	-0.178183
29484	9.634000	0.237163	-1.756906	0.008365	0.004586	-0.000086	-0.130671	-0.122998	0.983767	-0.594554	0.803768	0.021520	-0.793367	-0.582090	-0.178158
29485	9.653912	0.199475	-1.780371	0.005057	-0.001121	-0.005266	-0.130685	-0.123032	0.983760	-0.594543	0.803775	0.021542	-0.793372	-0.582073	-0.178189
29486	9.665542	0.213629	-1.742168	0.008718	0.000413	-0.005447	-0.130685	-0.123058	0.983757	-0.594562	0.803761	0.021559	-0.793358	-0.582087	-0.178205
29487	9.622401	0.224109	-1.794802	0.004637	0.005188	-0.000589	-0.130676	-0.123017	0.983763	-0.594542	0.803776	0.021536	-0.793375	-0.582074	-0.178173
29488	9.653284	0.186978	-1.759397	0.007210	-0.000219	-0.004028	-0.130690	-0.123036	0.983759	-0.594546	0.803773	0.021542	-0.793369	-0.582075	-0.178196
29489	9.666341	0.227246	-1.762072	0.008830	0.003703	-0.001780	-0.130686	-0.123014	0.983763	-0.594561	0.803762	0.021522	-0.793359	-0.582094	-0.178180
29490	9.643401	0.206151	-1.747216	0.005635	0.001283	-0.003293	-0.130693	-0.123017	0.983761	-0.594550	0.803770	0.021523	-0.793366	-0.582082	-0.178187
29491	9.644124	0.219525	-1.767572	0.006678	0.002801	-0.003017	-0.130689	-0.123009	0.983763	-0.594549	0.803771	0.021520	-0.793367	-0.582083	-0.178179
29492	9.643487	0.206501	-1.746699	0.002484	0.004287	-0.001826	-0.130679	-0.122987	0.983767	-0.594519	0.803794	0.021514	-0.793392	-0.582057	-0.178157
29493	9.643507	0.206776	-1.746556	0.007676	-0.001104	-0.005720	-0.130690	-0.123024	0.983761	-0.594530	0.803785	0.021536	-0.793382	-0.582060	-0.178188
29494	9.653468	0.188209	-1.758255	0.008186	0.003436	-0.004434	-0.130672	-0.123024	0.983763	-0.594537	0.803779	0.021544	-0.793379	-0.582069	-0.178174
29495	9.686450	0.190789	-1.784367	0.005568	0.003419	-0.003977	-0.130657	-0.123021	0.983765	-0.594529	0.803785	0.021553	-0.793388	-0.582061	-0.178160
29496	9.634327	0.239776	-1.754755	0.007211	-0.000218	-0.004025	-0.130671	-0.123040	0.983761	-0.594536	0.803780	0.021559	-0.793380	-0.582064	-0.178182
29497	9.652854	0.175894	-1.737181	0.007144	0.001918	-0.004710	-0.130663	-0.123052	0.983761	-0.594541	0.803776	0.021572	-0.793378	-0.582068	-0.178183
29498	9.646675	0.267307	-1.736854	0.005635	0.001284	-0.003292	-0.130668	-0.123056	0.983760	-0.594530	0.803784	0.021574	-0.793385	-0.582056	-0.178189
29499	9.631290	0.181533	-1.763452	0.007211	-0.000217	-0.004024	-0.130682	-0.123074	0.983756	-0.594535	0.803780	0.021580	-0.793379	-0.582057	-0.178211
29500	9.656631	0.248869	-1.748575	0.008254	0.001302	-0.003747	-0.130685	-0.123081	0.983754	-0.594543	0.803774	0.021582	-0.793373	-0.582064	-0.178218
29501	9.631314	0.182042	-1.763272	0.007144	0.001919	-0.004708	-0.130678	-0.123092	0.983754	-0.594548	0.803770	0.021594	-0.793370	-0.582067	-0.178219
29502	9.667348	0.243425	-1.780506	0.006856	0.003959	0.001335	-0.130690	-0.123042	0.983758	-0.594540	0.803777	0.021548	-0.793374	-0.582067	-0.178200
29503	9.642997	0.195997	-1.724711	0.006635	-0.002621	-0.005993	-0.130712	-0.123091	0.983750	-0.594543	0.803775	0.021574	-0.793369	-0.582061	-0.178245
29504	9.653660	0.190587	-1.756946	0.009230	0.004957	-0.004155	-0.130683	-0.123082	0.983754	-0.594565	0.803758	0.021579	-0.793356	-0.582086	-0.178218
29505	9.634459	0.241785	-1.753757	0.005704	-0.000849	-0.002605	-0.130711	-0.123092	0.983749	-0.594556	0.803765	0.021573	-0.793358	-0.582075	-0.178246
29506	9.653696	0.191077	-1.756694	0.008653	0.002553	-0.006124	-0.130690	-0.123112	0.983750	-0.594577	0.803748	0.021597	-0.793346	-0.582093	-0.178242
29507	9.668124	0.257828	-1.800434	0.006679	0.002805	-0.003013	-0.130686	-0.123105	0.983751	-0.594577	0.803749	0.021594	-0.793347	-0.582094	-0.178234
29508	9.631483	0.183467	-1.762200	0.006746	0.000671	-0.002327	-0.130703	-0.123106	0.983749	-0.594579	0.803748	0.021584	-0.793343	-0.582095	-0.178248
29509	9.644503	0.223818	-1.764967	0.007145	0.001920	-0.004706	-0.130696	-0.123118	0.983748	-0.594584	0.803743	0.021597	-0.793340	-0.582098	-0.178250
29510	9.653834	0.191893	-1.755851	0.004636	0.005193	-0.000588	-0.130687	-0.123077	0.983755	-0.594560	0.803762	0.021573	-0.793360	-0.582082	-0.178218
29511	9.633943	0.229917	-1.732053	0.008722	0.000420	-0.005437	-0.130688	-0.123103	0.983751	-0.594579	0.803748	0.021590	-0.793345	-0.582096	-0.178234
29512	9.654589	0.205489	-1.776010	0.004060	0.002788	-0.002557	-0.130686	-0.123092	0.983753	-0.594555	0.803765	0.021588	-0.793364	-0.582073	-0.178225
29513	9.622384	0.216660	-1.769901	0.006035	0.002536	-0.005667	-0.130668	-0.123108	0.983753	-0.594552	0.803766	0.021612	-0.793368	-0.582069	-0.178220
29514	9.676250	0.201019	-1.749052	0.006679	0.002807	-0.003012	-0.130665	-0.123101	0.983754	-0.594550	0.803768	0.021609	-0.793371	-0.582067	-0.178214
29515	9.644735	0.225146	-1.763526	0.005170	0.002173	-0.001595	-0.130674	-0.123086	0.983755	-0.594535	0.803780	0.021594	-0.793380	-0.582055	-0.178212
29516	9.621835	0.204011	-1.748496	0.006145	0.005828	-0.002004	-0.130653	-0.123052	0.983762	-0.594525	0.803787	0.021581	-0.793391	-0.582052	-0.178175
29517	9.654835	0.206499	-1.774555	0.007146	0.001922	-0.004704	-0.130646	-0.123063	0.983762	-0.594530	0.803783	0.021594	-0.793388	-0.582055	-0.178176
29518	9.621879	0.204612	-1.748184	0.006638	-0.002619	-0.005987	-0.130669	-0.123112	0.983753	-0.594538	0.803777	0.021619	-0.793379	-0.582053	-0.178223
29519	9.666440	0.220966	-1.736262	0.004636	0.005194	-0.000587	-0.130660	-0.123072	0.983759	-0.594518	0.803792	0.021595	-0.793395	-0.582041	-0.178192
29520	9.612637	0.237036	-1.756726	0.008791	-0.001713	-0.004747	-0.130680	-0.123105	0.983752	-0.594532	0.803782	0.021607	-0.793382	-0.582048	-0.178228
29521	9.664136	0.175496	-1.765532	0.007146	0.001923	-0.004703	-0.130673	-0.123116	0.983751	-0.594537	0.803778	0.021619	-0.793379	-0.582051	-0.178229
29522	9.625638	0.277627	-1.759492	0.006281	0.001560	-0.000631	-0.130693	-0.123096	0.983751	-0.594529	0.803784	0.021593	-0.793382	-0.582046	-0.178233
29523	9.642599	0.180725	-1.791751	0.006748	0.000674	-0.002324	-0.130710	-0.123096	0.983749	-0.594528	0.803785	0.021583	-0.793380	-0.582045	-0.178247
29524	9.657929	0.266991	-1.765073	0.008189	0.003443	-0.004426	-0.130693	-0.123098	0.983751	-0.594545	0.803772	0.021591	-0.793370	-0.582063	-0.178234
29525	9.664231	0.176320	-1.764932	0.005462	0.000132	-0.007633	-0.130682	-0.123144	0.983747	-0.594541	0.803774	0.021635	-0.793375	-0.582050	-0.178253
29526	9.657973	0.267648	-1.764737	0.006856	0.003967	0.001338	-0.130694	-0.123096	0.983751	-0.594535	0.803780	0.021590	-0.793377	-0.582053	-0.178234
29527	9.632055	0.187544	-1.758641	0.003885	0.001632	-0.006903	-0.130676	-0.123127	0.983750	-0.594517	0.803792	0.021630	-0.793394	-0.582029	-0.178237
29528	9.667318	0.236169	-1.755527	0.005638	0.001289	-0.003285	-0.130681	-0.123132	0.983748	-0.594511	0.803796	0.021634	-0.793397	-0.582022	-0.178245
29529	9.622809	0.220205	-1.767151	0.006680	0.002810	-0.003009	-0.130677	-0.123125	0.983750	-0.594510	0.803797	0.021630	-0.793398	-0.582023	-0.178237
29530	9.664397	0.177466	-1.763904	0.006680	0.002810	-0.003008	-0.130673	-0.123119	0.983751	-0.594510	0.803798	0.021627	-0.793400	-0.582023	-0.178230
29531	9.677397	0.217936	-1.766659	0.004995	0.001018	-0.005939	-0.130666	-0.123145	0.983749	-0.594499	0.803804	0.021656	-0.793408	-0.582008	-0.178240
29532	9.632191	0.188918	-1.757749	0.007791	0.002197	-0.002045	-0.130672	-0.123135	0.983749	-0.594506	0.803800	0.021642	-0.793403	-0.582017	-0.178239
29533	9.657444	0.256316	-1.743002	0.007683	-0.001096	-0.005705	-0.130683	-0.123172	0.983743	-0.594517	0.803791	0.021664	-0.793393	-0.582020	-0.178270
29534	9.664450	0.178546	-1.763506	0.005171	0.002177	-0.001592	-0.130691	-0.123157	0.983744	-0.594500	0.803804	0.021650	-0.793404	-0.582006	-0.178267
29535	9.656796	0.243611	-1.722132	0.005570	0.003426	-0.003970	-0.130677	-0.123154	0.983746	-0.594492	0.803810	0.021659	-0.793413	-0.581998	-0.178254
29536	9.642940	0.184022	-1.789582	0.007216	-0.000209	-0.004012	-0.130690	-0.123173	0.983742	-0.594499	0.803805	0.021665	-0.793405	-0.582002	-0.178276
29537	9.677475	0.219452	-1.766046	0.006106	0.000405	-0.004975	-0.130693	-0.123196	0.983739	-0.594496	0.803806	0.021682	-0.793406	-0.581995	-0.178292
29538	9.632284	0.190350	-1.757085	0.006213	0.003698	-0.001315	-0.130693	-0.123170	0.983742	-0.594488	0.803813	0.021662	-0.793413	-0.581992	-0.178276
29539	9.644591	0.217628	-1.739237	0.007616	0.001040	-0.006389	-0.130683	-0.123200	0.983740	-0.594499	0.803804	0.021691	-0.793406	-0.581998	-0.178286
29540	9.644618	0.218012	-1.739038	0.008190	0.003448	-0.004421	-0.130664	-0.123202	0.983742	-0.594515	0.803792	0.021700	-0.793397	-0.582014	-0.178272
29541	9.664644	0.180444	-1.762251	0.007149	0.001927	-0.004697	-0.130657	-0.123214	0.983741	-0.594520	0.803788	0.021712	-0.793394	-0.582017	-0.178274
29542	9.635377	0.250562	-1.747469	0.005171	0.002178	-0.001591	-0.130666	-0.123200	0.983742	-0.594508	0.803797	0.021699	-0.793402	-0.582007	-0.178273
29543	9.643835	0.198933	-1.808874	0.005571	0.003427	-0.003969	-0.130651	-0.123197	0.983744	-0.594500	0.803803	0.021707	-0.793411	-0.582000	-0.178259
29544	9.667721	0.240070	-1.752777	0.005171	0.002179	-0.001590	-0.130661	-0.123183	0.983745	-0.594487	0.803812	0.021692	-0.793418	-0.581989	-0.178258
29545	9.633228	0.204995	-1.776107	0.007791	0.002201	-0.002042	-0.130668	-0.123172	0.983745	-0.594494	0.803808	0.021678	-0.793412	-0.581998	-0.178257
29546	9.667099	0.227088	-1.731799	0.007792	0.002201	-0.002041	-0.130675	-0.123161	0.983746	-0.594503	0.803802	0.021663	-0.793404	-0.582009	-0.178256
29547	9.644879	0.219163	-1.737443	0.002951	0.003406	-0.003517	-0.130663	-0.123154	0.983748	-0.594473	0.803823	0.021671	-0.793429	-0.581980	-0.178242
29548	9.664890	0.181635	-1.760779	0.007686	-0.001093	-0.005699	-0.130674	-0.123192	0.983742	-0.594485	0.803814	0.021693	-0.793418	-0.581985	-0.178273
29549	9.634903	0.238673	-1.725516	0.006213	0.003701	-0.001313	-0.130673	-0.123166	0.983745	-0.594479	0.803819	0.021674	-0.793423	-0.581983	-0.178257
29550	9.653387	0.167944	-1.798601	0.007792	0.002202	-0.002040	-0.130679	-0.123156	0.983746	-0.594488	0.803813	0.021659	-0.793415	-0.581995	-0.178256
29551	9.668663	0.254204	-1.771840	0.005035	0.006450	-0.002964	-0.130646	-0.123127	0.983754	-0.594474	0.803823	0.021659	-0.793430	-0.581987	-0.178212
29552	9.632826	0.193061	-1.753815	0.008260	0.001316	-0.003730	-0.130649	-0.123134	0.983752	-0.594487	0.803814	0.021659	-0.793421	-0.581998	-0.178219
29553	9.645787	0.233422	-1.756683	0.005640	0.001294	-0.003279	-0.130656	-0.123138	0.983751	-0.594478	0.803820	0.021661	-0.793426	-0.581988	-0.178226
29554	9.645125	0.220523	-1.735905	0.006682	0.002816	-0.003003	-0.130652	-0.123132	0.983752	-0.594479	0.803820	0.021658	-0.793426	-0.581990	-0.178220
29555	9.646559	0.246804	-1.776796	0.008834	0.003725	-0.001763	-0.130648	-0.123109	0.983756	-0.594493	0.803809	0.021638	-0.793416	-0.582009	-0.178204
29556	9.676802	0.196788	-1.720515	0.006682	0.002816	-0.003002	-0.130645	-0.123101	0.983757	-0.594491	0.803811	0.021634	-0.793418	-0.582008	-0.178197
29557	9.623695	0.225944	-1.761592	0.004530	0.001907	-0.004242	-0.130641	-0.123109	0.983757	-0.594475	0.803823	0.021647	-0.793431	-0.581991	-0.178197
29558	9.677556	0.210328	-1.740710	0.010413	0.002227	-0.002488	-0.130646	-0.123102	0.983757	-0.594506	0.803800	0.021631	-0.793407	-0.582024	-0.178198
29559	9.633085	0.194273	-1.752258	0.005572	0.003429	-0.003966	-0.130631	-0.123099	0.983759	-0.594498	0.803806	0.021639	-0.793415	-0.582016	-0.178184
29560	9.666087	0.196700	-1.778396	0.007793	0.002205	-0.002037	-0.130638	-0.123088	0.983760	-0.594507	0.803800	0.021625	-0.793408	-0.582027	-0.178183
29561	9.655396	0.202721	-1.746016	0.007220	-0.000204	-0.004004	-0.130652	-0.123107	0.983755	-0.594512	0.803796	0.021630	-0.793402	-0.582028	-0.178206
29562	9.656103	0.216020	-1.766505	0.006683	0.002818	-0.003001	-0.130647	-0.123101	0.983757	-0.594515	0.803794	0.021627	-0.793400	-0.582033	-0.178199
29563	9.656110	0.216124	-1.766454	0.006820	-0.001452	-0.001625	-0.130685	-0.123108	0.983751	-0.594514	0.803795	0.021610	-0.793394	-0.582029	-0.178233
29564	9.656131	0.216206	-1.766330	0.007724	0.004341	-0.002725	-0.130671	-0.123090	0.983755	-0.594525	0.803787	0.021602	-0.793389	-0.582044	-0.178211
29565	9.635458	0.241252	-1.722056	0.007152	0.001931	-0.004690	-0.130663	-0.123102	0.983755	-0.594530	0.803783	0.021615	-0.793386	-0.582047	-0.178213
29566	9.666223	0.197676	-1.777550	0.007793	0.002206	-0.002036	-0.130670	-0.123091	0.983755	-0.594538	0.803777	0.021600	-0.793379	-0.582057	-0.178211
29567	9.645562	0.222517	-1.733221	0.004635	0.005205	-0.000585	-0.130661	-0.123050	0.983761	-0.594518	0.803793	0.021577	-0.793395	-0.582045	-0.178180
29568	9.666312	0.197829	-1.777048	0.008800	-0.001702	-0.004726	-0.130789	-0.123075	0.983741	-0.594649	0.803698	0.021491	-0.793276	-0.582170	-0.178301
29569	9.646275	0.235911	-1.753669	0.007794	0.002207	-0.002035	-0.130795	-0.123063	0.983742	-0.594656	0.803694	0.021476	-0.793270	-0.582179	-0.178300
29570	9.665648	0.185130	-1.756246	0.007152	0.001932	-0.004689	-0.130790	-0.123075	0.983741	-0.594664	0.803687	0.021488	-0.793265	-0.582185	-0.178302
29571	9.637026	0.268409	-1.762099	0.006615	0.004954	-0.003688	-0.130764	-0.123061	0.983746	-0.594663	0.803688	0.021491	-0.793269	-0.582188	-0.178274
29572	9.654997	0.191593	-1.723563	0.005138	-0.003248	-0.004552	-0.130797	-0.123102	0.983737	-0.594650	0.803697	0.021508	-0.793274	-0.582166	-0.178323
29573	9.655713	0.204802	-1.744016	0.005677	0.006729	-0.000309	-0.130778	-0.123050	0.983746	-0.594638	0.803707	0.021480	-0.793286	-0.582164	-0.178277
29574	9.634211	0.209889	-1.770196	0.006111	0.000410	-0.004964	-0.130781	-0.123072	0.983743	-0.594635	0.803708	0.021497	-0.793288	-0.582156	-0.178293
29575	9.655767	0.205325	-1.743658	0.008732	0.000435	-0.005412	-0.130781	-0.123098	0.983739	-0.594654	0.803694	0.021514	-0.793274	-0.582171	-0.178309
29576	9.624209	0.229349	-1.758341	0.004704	0.003072	0.000104	-0.130794	-0.123066	0.983742	-0.594636	0.803708	0.021483	-0.793285	-0.582159	-0.178299
29577	9.678087	0.213582	-1.737360	0.007794	0.002209	-0.002033	-0.130800	-0.123054	0.983742	-0.594643	0.803703	0.021468	-0.793278	-0.582168	-0.178298
29578	9.646532	0.237658	-1.752019	0.007153	0.001934	-0.004687	-0.130794	-0.123066	0.983742	-0.594649	0.803698	0.021481	-0.793275	-0.582171	-0.178300
29579	9.643675	0.178801	-1.760431	0.006684	0.002821	-0.002997	-0.130790	-0.123058	0.983743	-0.594648	0.803699	0.021477	-0.793276	-0.582172	-0.178292
29580	9.646578	0.238313	-1.751678	0.005471	0.000135	-0.007616	-0.130780	-0.123103	0.983739	-0.594641	0.803703	0.021521	-0.793284	-0.582157	-0.178310
29581	9.675986	0.168603	-1.765954	0.008436	0.002487	0.000622	-0.130800	-0.123069	0.983741	-0.594649	0.803698	0.021479	-0.793274	-0.582171	-0.178306
29582	9.636611	0.257524	-1.739633	0.005574	0.003433	-0.003962	-0.130785	-0.123066	0.983743	-0.594643	0.803703	0.021488	-0.793281	-0.582165	-0.178293
29583	9.632285	0.165697	-1.797777	0.008195	0.003459	-0.004409	-0.130767	-0.123066	0.983745	-0.594656	0.803693	0.021495	-0.793274	-0.582179	-0.178279
29584	9.678992	0.228361	-1.756577	0.006113	0.000411	-0.004961	-0.130770	-0.123089	0.983742	-0.594654	0.803694	0.021513	-0.793276	-0.582173	-0.178294
29585	9.601533	0.210133	-1.741923	0.005643	0.001299	-0.003272	-0.130776	-0.123093	0.983741	-0.594645	0.803700	0.021514	-0.793281	-0.582163	-0.178302
29586	9.666803	0.201826	-1.773926	0.007154	0.001936	-0.004684	-0.130769	-0.123103	0.983740	-0.594648	0.803698	0.021526	-0.793280	-0.582164	-0.178302
29587	9.624510	0.231869	-1.756363	0.005643	0.001299	-0.003272	-0.130776	-0.123107	0.983739	-0.594640	0.803704	0.021527	-0.793285	-0.582155	-0.178309
29588	9.643940	0.180997	-1.758755	0.007256	0.005235	-0.001031	-0.130766	-0.123069	0.983745	-0.594637	0.803707	0.021503	-0.793289	-0.582159	-0.178279
29589	9.637512	0.272153	-1.758864	0.006754	0.000689	-0.002306	-0.130783	-0.123069	0.983743	-0.594636	0.803708	0.021493	-0.793287	-0.582158	-0.178292
29590	9.653347	0.149380	-1.749409	0.003892	0.001633	-0.006890	-0.130764	-0.123098	0.983742	-0.594613	0.803724	0.021533	-0.793307	-0.582130	-0.178294
29591	9.636850	0.259785	-1.737973	0.010417	0.002240	-0.002476	-0.130768	-0.123090	0.983742	-0.594641	0.803703	0.021518	-0.793285	-0.582160	-0.178293
29592	9.666288	0.189886	-1.752211	0.005243	0.000053	-0.000893	-0.130798	-0.123082	0.983739	-0.594626	0.803715	0.021497	-0.793292	-0.582145	-0.178312
29593	9.624694	0.232759	-1.755237	0.007726	0.004349	-0.002718	-0.130784	-0.123064	0.983743	-0.594633	0.803710	0.021489	-0.793289	-0.582156	-0.178290
29594	9.667068	0.203081	-1.772336	0.005174	0.002188	-0.001582	-0.130793	-0.123048	0.983744	-0.594618	0.803721	0.021474	-0.793298	-0.582144	-0.178288
29595	9.634811	0.214027	-1.766431	0.008266	0.001327	-0.003716	-0.130797	-0.123056	0.983743	-0.594631	0.803712	0.021474	-0.793288	-0.582155	-0.178296
29596	9.657747	0.235454	-1.781124	0.004603	-0.000224	-0.003546	-0.130814	-0.123071	0.983738	-0.594618	0.803721	0.021479	-0.793295	-0.582139	-0.178318
29597	9.656398	0.209633	-1.739646	0.006616	0.004960	-0.003683	-0.130789	-0.123056	0.983744	-0.594618	0.803721	0.021483	-0.793299	-0.582142	-0.178289
29598	9.647084	0.241936	-1.748391	0.008736	0.000440	-0.005403	-0.130790	-0.123082	0.983740	-0.594640	0.803704	0.021498	-0.793282	-0.582160	-0.178306
29599	9.644217	0.182964	-1.757034	0.005313	-0.002081	-0.000202	-0.130841	-0.123081	0.983733	-0.594625	0.803716	0.021470	-0.793285	-0.582144	-0.178347
29600	9.667161	0.204314	-1.771687	0.007086	0.004073	-0.005371	-0.130816	-0.123087	0.983736	-0.594634	0.803709	0.021488	-0.793282	-0.582152	-0.178330
29601	9.634237	0.202371	-1.744991	0.006686	0.002826	-0.002993	-0.130812	-0.123080	0.983738	-0.594634	0.803710	0.021485	-0.793284	-0.582153	-0.178322
29602	9.666563	0.191683	-1.750502	0.007796	0.002217	-0.002027	-0.130818	-0.123069	0.983738	-0.594641	0.803704	0.021471	-0.793277	-0.582163	-0.178321
29603	9.657937	0.236818	-1.779911	0.006686	0.002827	-0.002992	-0.130814	-0.123062	0.983740	-0.594641	0.803705	0.021467	-0.793278	-0.582163	-0.178313
29604	9.635035	0.215820	-1.764987	0.008267	0.001329	-0.003713	-0.130818	-0.123070	0.983738	-0.594654	0.803695	0.021468	-0.793267	-0.582175	-0.178321
29605	9.647274	0.243179	-1.747169	0.003995	0.004934	-0.003237	-0.130795	-0.123052	0.983743	-0.594632	0.803711	0.021472	-0.793287	-0.582157	-0.178292
29606	9.645135	0.197316	-1.776289	0.006254	-0.003855	-0.003575	-0.130841	-0.123089	0.983733	-0.594631	0.803712	0.021475	-0.793281	-0.582148	-0.178351
29607	9.657293	0.224865	-1.758881	0.006516	0.001661	-0.007332	-0.130821	-0.123123	0.983731	-0.594634	0.803708	0.021514	-0.793282	-0.582146	-0.178355
29608	9.633712	0.190960	-1.723250	0.006216	0.003716	-0.001304	-0.130821	-0.123095	0.983734	-0.594624	0.803717	0.021494	-0.793290	-0.582140	-0.178338
29609	9.666731	0.193297	-1.749394	0.008267	0.001331	-0.003712	-0.130824	-0.123102	0.983733	-0.594636	0.803707	0.021495	-0.793280	-0.582151	-0.178346
29610	9.656694	0.212482	-1.737654	0.005645	0.001303	-0.003267	-0.130830	-0.123106	0.983732	-0.594629	0.803712	0.021496	-0.793284	-0.582144	-0.178352
29611	9.635167	0.217598	-1.764051	0.007157	0.001940	-0.004678	-0.130823	-0.123118	0.983731	-0.594635	0.803708	0.021509	-0.793281	-0.582147	-0.178354
29612	9.678975	0.221257	-1.731441	0.004535	0.001912	-0.004233	-0.130819	-0.123126	0.983731	-0.594619	0.803719	0.021521	-0.793293	-0.582130	-0.178355
29613	9.621683	0.165034	-1.739786	0.006617	0.004964	-0.003681	-0.130794	-0.123112	0.983736	-0.594619	0.803719	0.021525	-0.793298	-0.582133	-0.178326
29614	9.615159	0.256339	-1.740134	0.008337	-0.000803	-0.003020	-0.130819	-0.123126	0.983731	-0.594632	0.803710	0.021518	-0.793284	-0.582143	-0.178355
29615	9.676958	0.175948	-1.759897	0.005977	0.004685	-0.006333	-0.130780	-0.123134	0.983735	-0.594630	0.803710	0.021549	-0.793291	-0.582140	-0.178329
29616	9.615890	0.270188	-1.760427	0.006588	-0.000472	-0.006639	-0.130780	-0.123175	0.983730	-0.594635	0.803706	0.021581	-0.793288	-0.582138	-0.178353
29617	9.644665	0.187536	-1.754088	0.006826	-0.001439	-0.001608	-0.130818	-0.123182	0.983724	-0.594634	0.803707	0.021564	-0.793283	-0.582135	-0.178388
29618	9.667586	0.208905	-1.768832	0.007158	0.001942	-0.004676	-0.130811	-0.123194	0.983723	-0.594643	0.803701	0.021577	-0.793277	-0.582141	-0.178389
29619	9.623167	0.192766	-1.780331	0.005105	0.004327	-0.002269	-0.130799	-0.123172	0.983728	-0.594629	0.803711	0.021569	-0.793290	-0.582131	-0.178366
29620	9.657610	0.228409	-1.756683	0.007629	0.001055	-0.006361	-0.130789	-0.123202	0.983725	-0.594641	0.803701	0.021597	-0.793282	-0.582139	-0.178376
29621	9.645466	0.201386	-1.774034	0.008437	0.002502	0.000631	-0.130809	-0.123167	0.983727	-0.594650	0.803696	0.021554	-0.793272	-0.582154	-0.178372
29622	9.667059	0.196608	-1.747214	0.005576	0.003440	-0.003955	-0.130794	-0.123166	0.983729	-0.594645	0.803699	0.021563	-0.793278	-0.582150	-0.178359
29623	9.636191	0.233679	-1.782488	0.005576	0.003440	-0.003955	-0.130779	-0.123162	0.983732	-0.594637	0.803705	0.021571	-0.793287	-0.582142	-0.178345
29624	9.667848	0.210120	-1.767256	0.006687	0.002832	-0.002988	-0.130776	-0.123156	0.983733	-0.594641	0.803702	0.021566	-0.793284	-0.582147	-0.178339
29625	9.679362	0.224401	-1.728872	0.007798	0.002223	-0.002021	-0.130783	-0.123144	0.983733	-0.594648	0.803697	0.021551	-0.793278	-0.582156	-0.178337
29626	9.667927	0.210348	-1.766797	0.006687	0.002832	-0.002987	-0.130779	-0.123137	0.983735	-0.594648	0.803698	0.021548	-0.793279	-0.582158	-0.178330
29627	9.625579	0.240378	-1.749347	0.006118	0.000418	-0.004949	-0.130783	-0.123159	0.983732	-0.594645	0.803699	0.021564	-0.793280	-0.582151	-0.178346
29628	9.678038	0.191722	-1.778127	0.008437	0.002504	0.000633	-0.130805	-0.123125	0.983733	-0.594653	0.803694	0.021522	-0.793270	-0.582165	-0.178344
29629	9.647135	0.236029	-1.722647	0.006422	-0.001639	-0.010973	-0.130788	-0.123208	0.983725	-0.594661	0.803687	0.021597	-0.793267	-0.582158	-0.178380
29630	9.644370	0.177239	-1.730976	0.006855	0.004002	0.001352	-0.130802	-0.123158	0.983729	-0.594654	0.803693	0.021550	-0.793270	-0.582160	-0.178361
29631	9.680167	0.238647	-1.748715	0.008741	0.000448	-0.005390	-0.130803	-0.123184	0.983726	-0.594673	0.803678	0.021566	-0.793256	-0.582174	-0.178378
29632	9.613487	0.214345	-1.766327	0.005647	0.001307	-0.003262	-0.130811	-0.123188	0.983724	-0.594665	0.803684	0.021567	-0.793260	-0.582165	-0.178386
29633	9.667349	0.199048	-1.745327	0.007159	0.001945	-0.004671	-0.130804	-0.123199	0.983724	-0.594670	0.803680	0.021579	-0.793257	-0.582169	-0.178387
29634	9.647894	0.250285	-1.742738	0.004607	-0.000220	-0.003537	-0.130821	-0.123215	0.983719	-0.594657	0.803689	0.021584	-0.793264	-0.582152	-0.178410
29635	9.633686	0.177214	-1.789150	0.008200	0.003473	-0.004395	-0.130804	-0.123215	0.983722	-0.594671	0.803679	0.021592	-0.793257	-0.582166	-0.178396
29636	9.670194	0.258906	-1.736377	0.008839	0.003754	-0.001742	-0.130801	-0.123193	0.983725	-0.594685	0.803670	0.021572	-0.793247	-0.582185	-0.178381
29637	9.633103	0.164547	-1.767889	0.001914	0.001885	-0.003786	-0.130799	-0.123197	0.983725	-0.594647	0.803697	0.021585	-0.793275	-0.582146	-0.178382
29638	9.648046	0.251181	-1.741767	0.010823	0.003504	-0.004836	-0.130780	-0.123200	0.983727	-0.594680	0.803672	0.021591	-0.793254	-0.582179	-0.178369
29639	9.655414	0.173224	-1.761485	0.005176	0.002197	-0.001575	-0.130790	-0.123185	0.983727	-0.594666	0.803683	0.021576	-0.793263	-0.582167	-0.178367
29640	9.658220	0.232464	-1.752793	0.007729	0.004363	-0.002708	-0.130775	-0.123166	0.983732	-0.594674	0.803678	0.021568	-0.793260	-0.582179	-0.178344
