// General information: 
//  MT Manager version: 2019.2.0 
//  XDA version: 2019.2.0 build 3853 rev 94535 built on 2019-09-09
// Device information: 
//  DeviceId: 00B44058
//  ProductCode: MTW2-3A7G6
//  Firmware Version: 4.3.5
//  Hardware Version: 1.1.0
// Device settings: 
//  Filter Profile: human(46.1)
//  Option Flags: Orientation Smoother Disabled, AHS Disabled, ICC Disabled
// Coordinate system: ENU
PacketCounter	Acc_X	Acc_Y	Acc_Z	Gyr_X	Gyr_Y	Gyr_Z	Mat[1][1]	Mat[2][1]	Mat[3][1]	Mat[1][2]	Mat[2][2]	Mat[3][2]	Mat[1][3]	Mat[2][3]	Mat[3][3]
28840	9.370959	-0.158138	2.641250	-0.001715	0.000119	0.006065	-0.243358	-0.117523	0.962790	0.387074	-0.921932	-0.014697	0.889354	0.369094	0.269849
28841	9.413834	-0.161442	2.664503	-0.002338	0.002678	0.006435	-0.243355	-0.117522	0.962791	0.387069	-0.921933	-0.014699	0.889357	0.369090	0.269847
28842	9.384541	-0.137576	2.618682	-0.002456	0.001428	0.007767	-0.243338	-0.117532	0.962794	0.387069	-0.921933	-0.014715	0.889361	0.369087	0.269835
28843	9.403659	-0.163831	2.631860	-0.000492	0.002558	0.005330	-0.243342	-0.117523	0.962794	0.387081	-0.921928	-0.014702	0.889355	0.369102	0.269835
28844	9.405852	-0.139939	2.630725	0.001471	0.003688	0.002893	-0.243364	-0.117497	0.962792	0.387104	-0.921919	-0.014661	0.889339	0.369133	0.269845
28845	9.396658	-0.113837	2.650941	-0.006397	0.000420	0.006349	-0.243343	-0.117488	0.962798	0.387064	-0.921936	-0.014672	0.889362	0.369094	0.269822
28846	9.384230	-0.139930	2.619670	-0.003703	0.006547	0.008507	-0.243369	-0.117523	0.962787	0.387055	-0.921940	-0.014699	0.889359	0.369074	0.269860
28847	9.405576	-0.141963	2.631604	-0.001599	0.001368	0.004735	-0.243366	-0.117506	0.962790	0.387057	-0.921939	-0.014683	0.889359	0.369081	0.269850
28848	9.403263	-0.166703	2.633093	0.000129	-0.000003	0.004961	-0.243347	-0.117485	0.962798	0.387073	-0.921933	-0.014665	0.889358	0.369104	0.269825
28849	9.407812	-0.118725	2.630309	-0.003446	0.001489	0.005840	-0.243338	-0.117474	0.962801	0.387057	-0.921939	-0.014664	0.889367	0.369091	0.269812
28850	9.424615	-0.169113	2.644973	-0.000376	0.003807	0.003999	-0.243357	-0.117457	0.962799	0.387066	-0.921936	-0.014638	0.889358	0.369104	0.269823
28851	9.386188	-0.118418	2.619292	-0.002340	0.002677	0.006437	-0.243356	-0.117461	0.962798	0.387065	-0.921936	-0.014641	0.889359	0.369102	0.269823
28852	9.405245	-0.144569	2.632644	0.000730	0.004996	0.004596	-0.243383	-0.117454	0.962792	0.387085	-0.921928	-0.014618	0.889342	0.369125	0.269846
28853	9.416587	-0.147498	2.611436	-0.003565	0.000238	0.007172	-0.243357	-0.117455	0.962799	0.387075	-0.921932	-0.014632	0.889354	0.369114	0.269823
28854	9.407404	-0.121397	2.631647	0.001471	0.003686	0.002894	-0.243379	-0.117428	0.962796	0.387098	-0.921923	-0.014591	0.889338	0.369145	0.269833
28855	9.381310	-0.169214	2.623053	-0.005531	-0.000892	0.009610	-0.243336	-0.117447	0.962805	0.387076	-0.921932	-0.014633	0.889359	0.369118	0.269800
28856	9.417333	-0.121784	2.664988	0.000730	0.004995	0.004596	-0.243363	-0.117441	0.962799	0.387097	-0.921923	-0.014610	0.889343	0.369141	0.269823
28857	9.404889	-0.147573	2.633748	-0.002342	0.002677	0.006437	-0.243366	-0.117446	0.962798	0.387097	-0.921923	-0.014614	0.889342	0.369140	0.269828
28858	9.393406	-0.145888	2.655384	-0.000614	0.001305	0.006664	-0.243352	-0.117445	0.962801	0.387111	-0.921917	-0.014614	0.889340	0.369155	0.269815
28859	9.416171	-0.151160	2.612727	-0.002224	0.003927	0.005106	-0.243369	-0.117439	0.962798	0.387106	-0.921920	-0.014603	0.889337	0.369151	0.269828
28860	9.406960	-0.125160	2.633057	0.000491	0.002493	0.007260	-0.243364	-0.117448	0.962798	0.387131	-0.921909	-0.014606	0.889328	0.369174	0.269827
28861	9.404541	-0.150194	2.634844	-0.004813	0.005356	0.007914	-0.243381	-0.117475	0.962790	0.387112	-0.921916	-0.014631	0.889331	0.369147	0.269853
28862	9.415900	-0.153190	2.613586	-0.000979	-0.001192	0.004365	-0.243354	-0.117444	0.962801	0.387117	-0.921915	-0.014611	0.889336	0.369161	0.269816
28863	9.371557	-0.147629	2.645037	-0.002224	0.003927	0.005107	-0.243370	-0.117437	0.962798	0.387112	-0.921917	-0.014599	0.889334	0.369157	0.269828
28864	9.414398	-0.151013	2.668376	-0.003569	0.000237	0.007174	-0.243345	-0.117437	0.962804	0.387100	-0.921922	-0.014612	0.889346	0.369146	0.269805
28865	9.396604	-0.129418	2.601044	-0.002344	0.002676	0.006439	-0.243343	-0.117435	0.962805	0.387095	-0.921924	-0.014613	0.889349	0.369141	0.269802
28866	9.425692	-0.154744	2.647309	-0.002344	0.002675	0.006439	-0.243342	-0.117437	0.962805	0.387093	-0.921925	-0.014616	0.889350	0.369138	0.269803
28867	9.404178	-0.154030	2.635918	-0.000616	0.001304	0.006665	-0.243328	-0.117439	0.962808	0.387108	-0.921918	-0.014618	0.889347	0.369154	0.269790
28868	9.382682	-0.153300	2.624464	-0.000616	0.001304	0.006665	-0.243314	-0.117438	0.962812	0.387122	-0.921913	-0.014619	0.889345	0.369169	0.269777
28869	9.426917	-0.160092	2.593332	-0.004193	0.002796	0.007545	-0.243313	-0.117450	0.962810	0.387106	-0.921919	-0.014636	0.889352	0.369149	0.269781
28870	9.384838	-0.130444	2.623554	-0.005060	0.004110	0.004285	-0.243334	-0.117438	0.962807	0.387075	-0.921932	-0.014626	0.889360	0.369119	0.269794
28871	9.415282	-0.158965	2.615464	0.000608	0.003742	0.005931	-0.243345	-0.117440	0.962804	0.387098	-0.921923	-0.014616	0.889347	0.369143	0.269805
28872	9.427533	-0.134420	2.647381	-0.004194	0.002795	0.007546	-0.243341	-0.117452	0.962803	0.387082	-0.921929	-0.014634	0.889355	0.369122	0.269807
28873	9.425125	-0.159428	2.649048	-0.002346	0.002674	0.006440	-0.243341	-0.117457	0.962803	0.387082	-0.921929	-0.014639	0.889355	0.369121	0.269809
28874	9.417350	-0.136796	2.614857	-0.002346	0.002674	0.006440	-0.243340	-0.117459	0.962803	0.387080	-0.921930	-0.014642	0.889356	0.369118	0.269809
28875	9.405843	-0.135120	2.636552	-0.002347	0.002674	0.006441	-0.243340	-0.117462	0.962802	0.387078	-0.921931	-0.014645	0.889357	0.369116	0.269810
28876	9.428620	-0.140477	2.593908	-0.002347	0.002674	0.006441	-0.243340	-0.117464	0.962802	0.387076	-0.921931	-0.014648	0.889358	0.369113	0.269810
28877	9.375172	-0.108511	2.645389	-0.003573	0.000235	0.007175	-0.243312	-0.117465	0.962809	0.387065	-0.921936	-0.014662	0.889370	0.369102	0.269785
28878	9.438531	-0.140896	2.627254	0.000607	0.003740	0.005932	-0.243323	-0.117466	0.962806	0.387088	-0.921926	-0.014653	0.889358	0.369125	0.269796
28879	9.416973	-0.140202	2.616034	-0.003090	0.003982	0.008144	-0.243325	-0.117487	0.962803	0.387082	-0.921929	-0.014674	0.889360	0.369113	0.269805
28880	9.384052	-0.137105	2.626026	-0.000983	-0.001194	0.004367	-0.243298	-0.117456	0.962814	0.387087	-0.921927	-0.014654	0.889365	0.369127	0.269768
28881	9.416885	-0.141410	2.616287	-0.001242	0.003861	0.007039	-0.243306	-0.117469	0.962810	0.387097	-0.921922	-0.014660	0.889358	0.369134	0.269781
28882	9.426805	-0.141141	2.649620	-0.002348	0.002673	0.006442	-0.243305	-0.117472	0.962810	0.387095	-0.921923	-0.014663	0.889359	0.369131	0.269781
28883	9.414369	-0.167021	2.618248	-0.002349	0.002673	0.006442	-0.243306	-0.117473	0.962809	0.387093	-0.921924	-0.014665	0.889360	0.369128	0.269783
28884	9.372292	-0.137361	2.648506	-0.000137	0.005047	0.007637	-0.243322	-0.117495	0.962803	0.387113	-0.921916	-0.014673	0.889347	0.369143	0.269806
28885	9.440307	-0.121341	2.627634	-0.006410	0.000420	0.006353	-0.243301	-0.117486	0.962809	0.387073	-0.921932	-0.014686	0.889370	0.369104	0.269782
28886	9.402645	-0.166639	2.640613	0.000847	0.006241	0.003271	-0.243344	-0.117472	0.962800	0.387091	-0.921925	-0.014649	0.889351	0.369126	0.269817
28887	9.440140	-0.122385	2.628185	-0.001849	-0.001138	0.007402	-0.243306	-0.117468	0.962810	0.387095	-0.921923	-0.014659	0.889359	0.369132	0.269781
28888	9.381030	-0.166383	2.629567	-0.000610	0.007595	0.005402	-0.243353	-0.117479	0.962797	0.387106	-0.921919	-0.014648	0.889342	0.369140	0.269829
28889	9.417057	-0.118853	2.671789	0.000727	0.001211	0.005862	-0.243340	-0.117470	0.962801	0.387129	-0.921909	-0.014637	0.889335	0.369167	0.269814
28890	9.406047	-0.147997	2.585930	-0.002107	0.003915	0.007556	-0.243346	-0.117487	0.962798	0.387132	-0.921908	-0.014650	0.889332	0.369164	0.269826
28891	9.371649	-0.141581	2.650558	-0.000379	0.002543	0.005264	-0.243348	-0.117477	0.962799	0.387143	-0.921904	-0.014636	0.889327	0.369179	0.269823
28892	9.394460	-0.146808	2.607858	-0.002349	0.001413	0.005183	-0.243341	-0.117462	0.962802	0.387138	-0.921906	-0.014627	0.889331	0.369177	0.269811
28893	9.406741	-0.122343	2.639738	-0.003954	0.004036	0.008662	-0.243343	-0.117488	0.962798	0.387125	-0.921911	-0.014655	0.889336	0.369157	0.269823
28894	9.404254	-0.147346	2.641561	0.001714	0.004923	0.006531	-0.243362	-0.117500	0.962792	0.387159	-0.921897	-0.014648	0.889316	0.369189	0.269845
28895	9.415584	-0.150168	2.620475	-0.001605	0.002623	0.003479	-0.243366	-0.117471	0.962795	0.387154	-0.921899	-0.014621	0.889317	0.369191	0.269839
28896	9.406463	-0.124106	2.640643	-0.003091	0.000202	0.006886	-0.243342	-0.117468	0.962801	0.387146	-0.921902	-0.014630	0.889327	0.369184	0.269815
28897	9.415477	-0.151389	2.620790	-0.000256	0.003793	0.006450	-0.243349	-0.117475	0.962798	0.387163	-0.921895	-0.014628	0.889318	0.369200	0.269825
28898	9.425366	-0.151078	2.654187	-0.003331	0.003995	0.005771	-0.243363	-0.117476	0.962795	0.387150	-0.921901	-0.014627	0.889320	0.369186	0.269837
28899	9.403848	-0.150248	2.642844	-0.002348	0.001412	0.005182	-0.243354	-0.117460	0.962799	0.387143	-0.921904	-0.014618	0.889325	0.369184	0.269823
28900	9.382348	-0.149361	2.631440	-0.003453	0.002744	0.004584	-0.243361	-0.117445	0.962799	0.387126	-0.921911	-0.014606	0.889330	0.369170	0.269823
28901	9.415194	-0.153776	2.621667	-0.001985	-0.001131	0.007483	-0.243319	-0.117443	0.962810	0.387130	-0.921909	-0.014619	0.889340	0.369176	0.269784
28902	9.406060	-0.127980	2.641895	-0.001981	0.005164	0.008741	-0.243332	-0.117476	0.962803	0.387137	-0.921906	-0.014643	0.889334	0.369173	0.269808
28903	9.393578	-0.153930	2.610623	-0.002225	0.002662	0.006368	-0.243332	-0.117477	0.962803	0.387136	-0.921906	-0.014645	0.889334	0.369172	0.269809
28904	9.417294	-0.131668	2.621126	-0.001481	0.003873	0.004665	-0.243349	-0.117468	0.962800	0.387137	-0.921906	-0.014629	0.889329	0.369175	0.269820
28905	9.417172	-0.132124	2.621544	0.000490	0.005002	0.004746	-0.243373	-0.117463	0.962794	0.387156	-0.921898	-0.014609	0.889314	0.369196	0.269842
28906	9.395645	-0.131252	2.610243	-0.001119	0.001330	0.006965	-0.243359	-0.117465	0.962797	0.387166	-0.921894	-0.014614	0.889314	0.369206	0.269829
28907	9.417022	-0.133279	2.622023	-0.000376	0.002540	0.005262	-0.243360	-0.117454	0.962798	0.387177	-0.921890	-0.014599	0.889309	0.369220	0.269827
28908	9.400730	-0.179930	2.646553	-0.001480	0.003872	0.004664	-0.243377	-0.117444	0.962795	0.387178	-0.921890	-0.014583	0.889304	0.369224	0.269838
28909	9.402997	-0.156227	2.645523	-0.003328	0.003994	0.005769	-0.243389	-0.117444	0.962792	0.387165	-0.921895	-0.014582	0.889306	0.369210	0.269850
28910	9.392949	-0.157665	2.612662	0.003682	-0.000246	0.005353	-0.243367	-0.117425	0.962800	0.387214	-0.921875	-0.014558	0.889291	0.369266	0.269823
28911	9.405246	-0.132992	2.644542	-0.004432	0.005326	0.005171	-0.243397	-0.117427	0.962792	0.387191	-0.921885	-0.014555	0.889292	0.369242	0.269851
28912	9.414223	-0.160417	2.624757	-0.003710	0.000239	0.009772	-0.243362	-0.117451	0.962798	0.387185	-0.921887	-0.014593	0.889305	0.369229	0.269827
28913	9.383681	-0.133197	2.633329	-0.002222	0.002661	0.006366	-0.243360	-0.117450	0.962799	0.387182	-0.921888	-0.014594	0.889306	0.369227	0.269825
28914	9.395031	-0.136198	2.612202	-0.003327	0.003993	0.005768	-0.243374	-0.117451	0.962795	0.387169	-0.921893	-0.014593	0.889308	0.369213	0.269838
28915	9.404939	-0.135942	2.645487	-0.001117	0.001328	0.006964	-0.243360	-0.117458	0.962798	0.387183	-0.921887	-0.014601	0.889306	0.369226	0.269828
28916	9.404892	-0.136635	2.645618	-0.004193	0.001532	0.006284	-0.243350	-0.117454	0.962801	0.387164	-0.921895	-0.014607	0.889317	0.369207	0.269817
28917	9.416291	-0.139686	2.624314	-0.001117	0.001327	0.006964	-0.243334	-0.117459	0.962804	0.387177	-0.921890	-0.014614	0.889316	0.369219	0.269805
28918	9.416195	-0.140330	2.624623	-0.004430	0.005325	0.005170	-0.243362	-0.117459	0.962797	0.387153	-0.921900	-0.014610	0.889319	0.369194	0.269830
28919	9.404603	-0.138567	2.646545	-0.001354	0.005121	0.005850	-0.243384	-0.117467	0.962790	0.387160	-0.921897	-0.014607	0.889309	0.369199	0.269854
28920	9.394561	-0.140067	2.613686	-0.000136	-0.001256	0.006375	-0.243349	-0.117454	0.962801	0.387177	-0.921890	-0.014604	0.889312	0.369221	0.269816
28921	9.415961	-0.142227	2.625360	-0.004068	0.002781	0.007470	-0.243344	-0.117465	0.962801	0.387162	-0.921896	-0.014621	0.889320	0.369202	0.269816
28922	9.396869	-0.117261	2.612556	-0.001116	0.001326	0.006963	-0.243329	-0.117467	0.962804	0.387172	-0.921892	-0.014626	0.889319	0.369212	0.269803
28923	9.415818	-0.143632	2.625797	-0.003324	0.003992	0.005767	-0.243345	-0.117471	0.962800	0.387161	-0.921896	-0.014626	0.889320	0.369200	0.269819
28924	9.359014	-0.163108	2.625710	-0.001600	0.002621	0.003477	-0.243355	-0.117445	0.962801	0.387159	-0.921898	-0.014598	0.889318	0.369204	0.269818
28925	9.415633	-0.144624	2.626405	-0.000248	0.003787	0.006447	-0.243362	-0.117453	0.962798	0.387176	-0.921890	-0.014597	0.889308	0.369220	0.269828
28926	9.414069	-0.141856	2.681180	-0.001600	0.002620	0.003476	-0.243372	-0.117427	0.962798	0.387173	-0.921892	-0.014570	0.889307	0.369224	0.269828
28927	9.384059	-0.145070	2.582308	-0.005294	0.002864	0.005684	-0.243377	-0.117422	0.962798	0.387142	-0.921905	-0.014573	0.889319	0.369193	0.269829
28928	9.401521	-0.168266	2.650027	-0.000991	0.002575	0.008149	-0.243369	-0.117439	0.962798	0.387156	-0.921899	-0.014588	0.889315	0.369203	0.269829
28929	9.403851	-0.144735	2.648886	-0.002218	0.002658	0.006364	-0.243370	-0.117440	0.962797	0.387154	-0.921899	-0.014589	0.889316	0.369201	0.269830
28930	9.417653	-0.123444	2.626259	-0.002342	0.001409	0.005178	-0.243363	-0.117426	0.962801	0.387149	-0.921902	-0.014580	0.889320	0.369199	0.269818
28931	9.403709	-0.145995	2.649321	-0.002094	0.003907	0.007550	-0.243370	-0.117441	0.962797	0.387151	-0.921901	-0.014591	0.889318	0.369196	0.269830
28932	9.417532	-0.124787	2.626630	-0.000135	-0.001258	0.006374	-0.243334	-0.117428	0.962808	0.387168	-0.921894	-0.014588	0.889320	0.369218	0.269793
28933	9.407488	-0.126105	2.593820	0.001242	0.006208	0.003043	-0.243378	-0.117411	0.962799	0.387189	-0.921886	-0.014548	0.889298	0.369244	0.269827
28934	9.405882	-0.123317	2.648719	-0.005292	0.002863	0.005683	-0.243382	-0.117407	0.962798	0.387158	-0.921898	-0.014551	0.889311	0.369214	0.269829
28935	9.403350	-0.148202	2.650471	-0.001349	0.005118	0.005848	-0.243406	-0.117414	0.962792	0.387165	-0.921896	-0.014547	0.889301	0.369218	0.269854
28936	9.384270	-0.123051	2.637718	-0.001238	0.000075	0.005775	-0.243385	-0.117400	0.962799	0.387171	-0.921893	-0.014540	0.889305	0.369229	0.269829
28937	9.407136	-0.128393	2.594985	-0.002217	0.002657	0.006363	-0.243383	-0.117402	0.962799	0.387170	-0.921894	-0.014542	0.889305	0.369227	0.269828
28938	9.405571	-0.125802	2.649706	-0.002216	0.002657	0.006363	-0.243383	-0.117403	0.962799	0.387168	-0.921894	-0.014544	0.889306	0.369225	0.269828
28939	9.404559	-0.153883	2.596853	-0.000369	0.002535	0.005260	-0.243388	-0.117395	0.962798	0.387182	-0.921889	-0.014530	0.889299	0.369242	0.269830
28940	9.435891	-0.154935	2.641694	-0.000494	0.001286	0.004073	-0.243384	-0.117370	0.962802	0.387191	-0.921886	-0.014506	0.889296	0.369258	0.269817
28941	9.383941	-0.125862	2.638757	-0.003319	0.003990	0.005765	-0.243397	-0.117373	0.962799	0.387180	-0.921890	-0.014506	0.889297	0.369245	0.269830
28942	9.402872	-0.152136	2.651943	-0.002466	0.000159	0.003991	-0.243383	-0.117343	0.962806	0.387170	-0.921894	-0.014486	0.889305	0.369244	0.269806
28943	9.402792	-0.152793	2.652189	-0.001965	0.005153	0.008735	-0.243395	-0.117376	0.962799	0.387178	-0.921891	-0.014510	0.889299	0.369242	0.269829
28944	9.395181	-0.130140	2.618009	-0.001237	0.000074	0.005774	-0.243373	-0.117362	0.962806	0.387184	-0.921889	-0.014504	0.889302	0.369253	0.269804
28945	9.392723	-0.154879	2.619448	-0.000493	0.001285	0.004073	-0.243369	-0.117337	0.962810	0.387192	-0.921885	-0.014480	0.889300	0.369269	0.269790
28946	9.383655	-0.128807	2.639629	-0.004186	0.001529	0.006279	-0.243358	-0.117334	0.962813	0.387173	-0.921893	-0.014486	0.889311	0.369250	0.269779
28947	9.423980	-0.156702	2.664489	-0.000242	0.003782	0.006445	-0.243370	-0.117341	0.962809	0.387191	-0.921886	-0.014483	0.889300	0.369266	0.269793
28948	9.416330	-0.133853	2.630488	-0.002573	0.005201	0.004063	-0.243401	-0.117330	0.962803	0.387180	-0.921890	-0.014463	0.889296	0.369258	0.269817
28949	9.392379	-0.157178	2.620546	-0.001111	0.001321	0.006960	-0.243387	-0.117332	0.962806	0.387191	-0.921886	-0.014468	0.889295	0.369268	0.269805
28950	9.383265	-0.131192	2.640899	-0.001344	0.005115	0.005846	-0.243410	-0.117338	0.962800	0.387196	-0.921884	-0.014463	0.889287	0.369272	0.269829
28951	9.402164	-0.157590	2.654133	-0.000009	-0.000013	0.007558	-0.243384	-0.117341	0.962806	0.387218	-0.921875	-0.014469	0.889284	0.369294	0.269806
28952	9.416023	-0.136389	2.631456	-0.002213	0.002655	0.006361	-0.243384	-0.117343	0.962806	0.387217	-0.921875	-0.014471	0.889285	0.369293	0.269806
28953	9.404501	-0.134624	2.653070	-0.002339	0.001406	0.005175	-0.243377	-0.117326	0.962810	0.387209	-0.921878	-0.014460	0.889290	0.369290	0.269793
28954	9.394503	-0.136030	2.620143	0.000736	0.001199	0.005857	-0.243365	-0.117317	0.962814	0.387233	-0.921869	-0.014449	0.889283	0.369317	0.269780
28955	9.394410	-0.136663	2.620443	-0.003189	0.005236	0.006949	-0.243387	-0.117334	0.962806	0.387225	-0.921872	-0.014459	0.889280	0.369304	0.269806
28956	9.415728	-0.138956	2.632377	-0.002956	0.001442	0.008061	-0.243369	-0.117346	0.962809	0.387221	-0.921873	-0.014479	0.889287	0.369297	0.269794
28957	9.391781	-0.162424	2.622367	-0.000239	0.003780	0.006444	-0.243379	-0.117353	0.962806	0.387239	-0.921866	-0.014476	0.889277	0.369312	0.269806
28958	9.415590	-0.140207	2.632804	-0.002464	0.000158	0.003989	-0.243366	-0.117323	0.962813	0.387229	-0.921870	-0.014456	0.889284	0.369311	0.269782
28959	9.394094	-0.139361	2.621433	-0.005033	0.005357	0.008050	-0.243384	-0.117350	0.962805	0.387208	-0.921879	-0.014481	0.889289	0.369281	0.269810
28960	9.382535	-0.137633	2.643165	-0.000491	0.001284	0.004072	-0.243380	-0.117326	0.962809	0.387216	-0.921876	-0.014457	0.889286	0.369297	0.269797
28961	9.426804	-0.144392	2.612181	-0.000238	0.003779	0.006443	-0.243389	-0.117333	0.962806	0.387234	-0.921868	-0.014455	0.889276	0.369313	0.269808
28962	9.396289	-0.116897	2.620918	-0.005285	0.002861	0.005678	-0.243393	-0.117329	0.962805	0.387204	-0.921881	-0.014458	0.889288	0.369283	0.269809
28963	9.415162	-0.143330	2.634168	-0.002210	0.002653	0.006360	-0.243392	-0.117333	0.962805	0.387205	-0.921880	-0.014462	0.889288	0.369283	0.269810
28964	9.382184	-0.140226	2.644272	-0.003929	0.004022	0.008647	-0.243394	-0.117360	0.962801	0.387194	-0.921884	-0.014491	0.889292	0.369264	0.269823
28965	9.415016	-0.144810	2.634608	-0.001362	-0.001177	0.004586	-0.243365	-0.117332	0.962812	0.387197	-0.921883	-0.014475	0.889298	0.369275	0.269785
28966	9.414991	-0.145364	2.634667	0.000865	0.002444	0.007041	-0.243360	-0.117339	0.962812	0.387225	-0.921872	-0.014475	0.889288	0.369302	0.269783
28967	9.372058	-0.142929	2.611763	-0.001338	0.005112	0.005845	-0.243384	-0.117348	0.962805	0.387233	-0.921868	-0.014471	0.889278	0.369308	0.269809
28968	9.436182	-0.148123	2.647016	-0.002209	0.002652	0.006359	-0.243384	-0.117349	0.962805	0.387231	-0.921869	-0.014473	0.889278	0.369306	0.269809
28969	9.383321	-0.146628	2.591006	-0.002082	0.003899	0.007545	-0.243466	-0.117542	0.962761	0.387178	-0.921889	-0.014641	0.889279	0.369195	0.269958
28970	9.404653	-0.148810	2.602883	-0.002336	0.001404	0.005173	-0.243459	-0.117528	0.962764	0.387173	-0.921891	-0.014632	0.889284	0.369194	0.269946
28971	9.414518	-0.148478	2.636182	-0.001464	0.003864	0.004659	-0.243476	-0.117519	0.962761	0.387175	-0.921890	-0.014616	0.889278	0.369198	0.269959
28972	9.414459	-0.149005	2.636365	-0.001234	0.000070	0.005771	-0.243455	-0.117505	0.962768	0.387181	-0.921888	-0.014609	0.889281	0.369208	0.269934
28973	9.414362	-0.149716	2.636670	-0.003054	0.006480	0.008131	-0.243482	-0.117537	0.962757	0.387176	-0.921890	-0.014630	0.889276	0.369195	0.269971
28974	9.406803	-0.127229	2.602558	-0.000622	0.000017	0.010440	-0.243442	-0.117566	0.962764	0.387199	-0.921880	-0.014667	0.889277	0.369211	0.269946
28975	9.414222	-0.151170	2.637087	0.002101	0.002372	0.001269	-0.243457	-0.117519	0.962766	0.387223	-0.921870	-0.014609	0.889262	0.369249	0.269941
28976	9.383767	-0.123457	2.645690	-0.002952	0.001439	0.008058	-0.243439	-0.117531	0.962769	0.387219	-0.921872	-0.014629	0.889269	0.369241	0.269930
28977	9.425539	-0.154708	2.616151	-0.001335	0.005110	0.005843	-0.243463	-0.117537	0.962762	0.387225	-0.921869	-0.014623	0.889260	0.369245	0.269955
28978	9.413956	-0.152952	2.637933	-0.002207	0.002651	0.006358	-0.243463	-0.117538	0.962762	0.387223	-0.921870	-0.014625	0.889260	0.369243	0.269955
28979	9.404873	-0.127037	2.658298	-0.002078	0.003897	0.007543	-0.243468	-0.117556	0.962758	0.387227	-0.921868	-0.014639	0.889257	0.369242	0.269967
28980	9.413747	-0.154352	2.638598	-0.000233	0.003775	0.006441	-0.243478	-0.117563	0.962755	0.387244	-0.921861	-0.014636	0.889247	0.369257	0.269978
28981	9.392267	-0.153311	2.627197	-0.000489	0.001281	0.004070	-0.243474	-0.117541	0.962759	0.387255	-0.921857	-0.014613	0.889243	0.369275	0.269967
28982	9.383258	-0.127101	2.647322	-0.002462	0.000157	0.003986	-0.243461	-0.117511	0.962766	0.387246	-0.921861	-0.014593	0.889251	0.369274	0.269943
28983	9.427567	-0.133953	2.616253	-0.002205	0.002650	0.006357	-0.243458	-0.117513	0.962766	0.387245	-0.921861	-0.014596	0.889252	0.369273	0.269941
28984	9.397084	-0.106496	2.624988	-0.005151	0.004107	0.006860	-0.243468	-0.117525	0.962762	0.387219	-0.921872	-0.014611	0.889261	0.369242	0.269955
28985	9.413403	-0.157261	2.639653	-0.002205	0.002649	0.006357	-0.243468	-0.117525	0.962762	0.387217	-0.921873	-0.014613	0.889261	0.369241	0.269955
28986	9.391917	-0.156441	2.628263	-0.004050	0.002772	0.007458	-0.243464	-0.117538	0.962762	0.387202	-0.921879	-0.014630	0.889269	0.369222	0.269956
28987	9.437123	-0.136088	2.650499	-0.002076	0.003895	0.007542	-0.243470	-0.117558	0.962758	0.387209	-0.921876	-0.014646	0.889265	0.369222	0.269969
28988	9.370302	-0.156423	2.617284	0.000998	0.003684	0.008224	-0.243471	-0.117581	0.962755	0.387241	-0.921862	-0.014657	0.889250	0.369249	0.269979
28989	9.405607	-0.136691	2.606397	-0.003561	0.001491	0.003387	-0.243471	-0.117549	0.962759	0.387219	-0.921872	-0.014634	0.889260	0.369236	0.269966
28990	9.415437	-0.136513	2.639765	-0.001946	0.005141	0.008727	-0.243483	-0.117582	0.962752	0.387226	-0.921868	-0.014658	0.889254	0.369233	0.269990
28991	9.393920	-0.135724	2.628492	-0.005277	0.002859	0.005673	-0.243488	-0.117574	0.962751	0.387193	-0.921882	-0.014659	0.889267	0.369201	0.269991
28992	9.402813	-0.162939	2.608677	-0.000358	0.002526	0.005255	-0.243490	-0.117565	0.962752	0.387205	-0.921877	-0.014645	0.889261	0.369217	0.269990
28993	9.393766	-0.136890	2.628983	-0.002203	0.002648	0.006356	-0.243491	-0.117566	0.962751	0.387204	-0.921878	-0.014646	0.889261	0.369215	0.269991
28994	9.403623	-0.136820	2.662231	-0.002947	0.001435	0.008054	-0.243473	-0.117579	0.962754	0.387201	-0.921879	-0.014667	0.889267	0.369208	0.269979
28995	9.402606	-0.165007	2.609294	-0.002202	0.002648	0.006355	-0.243470	-0.117581	0.962755	0.387200	-0.921879	-0.014670	0.889268	0.369207	0.269977
28996	9.405991	-0.114120	2.661318	-0.002817	0.002680	0.009239	-0.243459	-0.117609	0.962754	0.387201	-0.921878	-0.014702	0.889271	0.369200	0.269978
28997	9.412343	-0.165781	2.642910	-0.003301	0.003982	0.005756	-0.243472	-0.117609	0.962751	0.387188	-0.921884	-0.014700	0.889273	0.369186	0.269990
28998	9.404845	-0.142985	2.608808	-0.002201	0.002647	0.006355	-0.243472	-0.117611	0.962751	0.387187	-0.921884	-0.014702	0.889274	0.369185	0.269990
28999	9.393319	-0.141286	2.630344	-0.000002	-0.000024	0.007552	-0.243444	-0.117617	0.962757	0.387211	-0.921874	-0.014711	0.889271	0.369209	0.269967
29000	9.404737	-0.144481	2.609115	-0.003915	0.004015	0.008640	-0.243447	-0.117644	0.962753	0.387200	-0.921878	-0.014740	0.889275	0.369190	0.269980
29001	9.403075	-0.142002	2.663895	-0.000356	0.002524	0.005254	-0.243451	-0.117636	0.962753	0.387214	-0.921872	-0.014726	0.889268	0.369206	0.269981
29002	9.414480	-0.144966	2.642723	-0.002200	0.002646	0.006354	-0.243450	-0.117637	0.962753	0.387212	-0.921873	-0.014728	0.889268	0.369204	0.269981
29003	9.414404	-0.145546	2.642965	-0.000356	0.002524	0.005254	-0.243452	-0.117628	0.962754	0.387226	-0.921867	-0.014715	0.889262	0.369221	0.269980
29004	9.381445	-0.142302	2.652969	-0.002815	0.002679	0.009238	-0.243441	-0.117657	0.962753	0.387226	-0.921867	-0.014746	0.889265	0.369213	0.269980
29005	9.414225	-0.147057	2.643516	-0.003298	0.003981	0.005755	-0.243454	-0.117656	0.962750	0.387212	-0.921873	-0.014744	0.889267	0.369199	0.269991
29006	9.392736	-0.145968	2.632171	-0.001584	0.002613	0.003470	-0.243464	-0.117630	0.962750	0.387210	-0.921874	-0.014717	0.889266	0.369203	0.269991
29007	9.395193	-0.122091	2.631071	-0.001584	0.002613	0.003470	-0.243474	-0.117607	0.962751	0.387209	-0.921875	-0.014691	0.889263	0.369209	0.269991
29008	9.404066	-0.149451	2.611252	-0.004658	0.002800	0.010337	-0.243460	-0.117646	0.962750	0.387196	-0.921880	-0.014738	0.889273	0.369184	0.269993
29009	9.395066	-0.123655	2.631453	-0.001230	0.000064	0.005767	-0.243436	-0.117631	0.962757	0.387200	-0.921878	-0.014731	0.889278	0.369194	0.269965
29010	9.413878	-0.150184	2.644577	-0.004042	0.002767	0.007453	-0.243432	-0.117643	0.962757	0.387185	-0.921884	-0.014749	0.889285	0.369175	0.269966
29011	9.416351	-0.126618	2.643428	-0.002328	0.001400	0.005168	-0.243425	-0.117628	0.962761	0.387180	-0.921886	-0.014739	0.889290	0.369173	0.269953
29012	9.402265	-0.149079	2.666366	-0.002198	0.002645	0.006353	-0.243424	-0.117629	0.962761	0.387178	-0.921887	-0.014741	0.889291	0.369172	0.269953
29013	9.413694	-0.151982	2.645130	0.002589	0.001064	0.004752	-0.243416	-0.117614	0.962765	0.387220	-0.921870	-0.014717	0.889275	0.369219	0.269940
29014	9.370814	-0.149417	2.622119	-0.005009	0.005348	0.008039	-0.243433	-0.117641	0.962757	0.387197	-0.921879	-0.014743	0.889280	0.369188	0.269966
29015	9.415068	-0.156553	2.591316	0.000876	0.002431	0.007037	-0.243425	-0.117646	0.962758	0.387224	-0.921868	-0.014743	0.889270	0.369215	0.269962
29016	9.415968	-0.129738	2.644642	-0.005400	0.001613	0.004483	-0.243423	-0.117627	0.962761	0.387190	-0.921882	-0.014736	0.889286	0.369185	0.269951
29017	9.382097	-0.153799	2.601327	0.000001	-0.000028	0.007549	-0.243394	-0.117626	0.962769	0.387209	-0.921874	-0.014741	0.889285	0.369205	0.269925
29018	9.415896	-0.131060	2.644835	-0.002196	0.002644	0.006352	-0.243394	-0.117628	0.962769	0.387208	-0.921874	-0.014743	0.889286	0.369203	0.269925
29019	9.394444	-0.130054	2.633365	-0.002327	0.001399	0.005167	-0.243386	-0.117612	0.962772	0.387202	-0.921877	-0.014733	0.889291	0.369202	0.269912
29020	9.434630	-0.158130	2.658140	-0.001097	0.001307	0.006950	-0.243372	-0.117614	0.962776	0.387212	-0.921873	-0.014738	0.889290	0.369212	0.269899
29021	9.391769	-0.155567	2.635070	-0.003293	0.003979	0.005753	-0.243386	-0.117612	0.962772	0.387197	-0.921879	-0.014734	0.889293	0.369197	0.269912
29022	9.415654	-0.133460	2.645576	0.000615	-0.000060	0.004666	-0.243368	-0.117588	0.962780	0.387217	-0.921871	-0.014712	0.889289	0.369224	0.269886
29023	9.405712	-0.134776	2.612629	-0.002195	0.002643	0.006352	-0.243368	-0.117587	0.962780	0.387214	-0.921872	-0.014713	0.889290	0.369222	0.269885
29024	9.382689	-0.130543	2.655574	-0.002457	0.000154	0.003982	-0.243354	-0.117558	0.962787	0.387205	-0.921877	-0.014692	0.889298	0.369221	0.269861
29025	9.396711	-0.109250	2.632899	-0.001096	0.001306	0.006950	-0.243338	-0.117557	0.962791	0.387214	-0.921873	-0.014696	0.889299	0.369230	0.269847
29026	9.415480	-0.135711	2.646078	-0.003423	0.002734	0.004568	-0.243345	-0.117543	0.962791	0.387197	-0.921880	-0.014684	0.889304	0.369217	0.269847
29027	9.382523	-0.132290	2.656076	-0.002194	0.002642	0.006351	-0.243343	-0.117540	0.962792	0.387193	-0.921882	-0.014684	0.889307	0.369213	0.269844
29028	9.405460	-0.137685	2.613384	-0.001227	0.000061	0.005765	-0.243321	-0.117526	0.962799	0.387199	-0.921879	-0.014678	0.889310	0.369223	0.269819
29029	9.415299	-0.137508	2.646632	-0.000219	0.003764	0.006437	-0.243332	-0.117530	0.962796	0.387213	-0.921873	-0.014673	0.889301	0.369237	0.269830
29030	9.393783	-0.136492	2.635394	-0.004389	0.005315	0.005154	-0.243359	-0.117530	0.962789	0.387190	-0.921883	-0.014669	0.889303	0.369212	0.269856
29031	9.393673	-0.137110	2.635755	0.000880	0.002427	0.007035	-0.243352	-0.117538	0.962790	0.387218	-0.921871	-0.014670	0.889293	0.369240	0.269852
29032	9.426490	-0.141797	2.626195	-0.004167	0.001520	0.006264	-0.243342	-0.117534	0.962793	0.387199	-0.921879	-0.014677	0.889304	0.369221	0.269841
29033	9.369560	-0.161033	2.625911	-0.001315	0.005099	0.005838	-0.243366	-0.117542	0.962786	0.387207	-0.921876	-0.014672	0.889294	0.369227	0.269866
29034	9.390831	-0.163355	2.637939	-0.004035	0.002764	0.007449	-0.243362	-0.117554	0.962786	0.387192	-0.921882	-0.014690	0.889302	0.369208	0.269867
29035	9.428772	-0.119702	2.625797	-0.004034	0.002764	0.007448	-0.243359	-0.117566	0.962785	0.387177	-0.921888	-0.014707	0.889309	0.369189	0.269869
29036	9.393239	-0.140650	2.637115	-0.002191	0.002641	0.006350	-0.243358	-0.117567	0.962785	0.387176	-0.921888	-0.014708	0.889309	0.369188	0.269869
29037	9.402098	-0.167808	2.617217	-0.000481	0.001274	0.004067	-0.243355	-0.117543	0.962789	0.387186	-0.921885	-0.014684	0.889306	0.369205	0.269856
29038	9.393158	-0.141583	2.637354	0.000617	-0.000063	0.004665	-0.243337	-0.117519	0.962796	0.387205	-0.921877	-0.014662	0.889303	0.369232	0.269831
29039	9.437453	-0.148661	2.606455	-0.004998	0.005344	0.008034	-0.243354	-0.117547	0.962788	0.387185	-0.921885	-0.014688	0.889307	0.369202	0.269857
29040	9.404476	-0.145414	2.616502	-0.001093	0.001303	0.006948	-0.243340	-0.117549	0.962792	0.387195	-0.921881	-0.014693	0.889307	0.369212	0.269844
29041	9.381438	-0.141317	2.659440	-0.004165	0.001519	0.006263	-0.243333	-0.117544	0.962794	0.387175	-0.921889	-0.014697	0.889317	0.369194	0.269836
29042	9.414285	-0.146065	2.649778	-0.003068	0.000182	0.006861	-0.243308	-0.117541	0.962801	0.387167	-0.921892	-0.014706	0.889327	0.369187	0.269812
29043	9.406938	-0.123265	2.615512	-0.002190	0.002640	0.006349	-0.243310	-0.117540	0.962800	0.387165	-0.921893	-0.014706	0.889328	0.369185	0.269813
29044	9.406880	-0.123790	2.615694	-0.000480	0.001273	0.004066	-0.243306	-0.117515	0.962804	0.387174	-0.921890	-0.014681	0.889325	0.369201	0.269800
29045	9.392786	-0.146210	2.638424	-0.001970	-0.001155	0.007459	-0.243269	-0.117511	0.962814	0.387176	-0.921889	-0.014691	0.889334	0.369205	0.269764
29046	9.404184	-0.149389	2.617328	-0.004117	0.007800	0.007521	-0.243309	-0.117542	0.962800	0.387161	-0.921895	-0.014709	0.889330	0.369179	0.269814
29047	9.392542	-0.147585	2.639217	-0.001576	0.002610	0.003467	-0.243321	-0.117515	0.962801	0.387156	-0.921897	-0.014679	0.889328	0.369183	0.269813
29048	9.427955	-0.127917	2.628346	-0.001092	0.001302	0.006947	-0.243306	-0.117517	0.962804	0.387166	-0.921893	-0.014684	0.889328	0.369193	0.269801
29049	9.382537	-0.149527	2.606515	-0.005260	0.002855	0.005663	-0.243309	-0.117511	0.962804	0.387135	-0.921906	-0.014687	0.889341	0.369162	0.269800
29050	9.427812	-0.129259	2.628792	-0.002188	0.002638	0.006348	-0.243308	-0.117512	0.962804	0.387134	-0.921907	-0.014689	0.889342	0.369160	0.269800
29051	9.394856	-0.125862	2.638769	-0.002188	0.002638	0.006348	-0.243306	-0.117511	0.962805	0.387131	-0.921908	-0.014690	0.889343	0.369158	0.269798
29052	9.392181	-0.150612	2.640329	-0.001575	0.002609	0.003467	-0.243317	-0.117486	0.962805	0.387128	-0.921909	-0.014662	0.889342	0.369162	0.269798
29053	9.424936	-0.155121	2.631014	0.000667	0.006216	0.005923	-0.243348	-0.117498	0.962796	0.387153	-0.921899	-0.014653	0.889322	0.369183	0.269832
29054	9.384725	-0.128078	2.606525	-0.000261	-0.002523	0.005176	-0.243306	-0.117469	0.962810	0.387166	-0.921894	-0.014639	0.889328	0.369206	0.269783
29055	9.424861	-0.156509	2.631202	-0.006482	0.002912	0.011423	-0.243288	-0.117515	0.962809	0.387137	-0.921905	-0.014699	0.889346	0.369163	0.269783
29056	9.382024	-0.154047	2.608096	0.002727	0.002297	0.005936	-0.243286	-0.117512	0.962810	0.387178	-0.921888	-0.014684	0.889328	0.369207	0.269781
29057	9.415808	-0.131388	2.651768	-0.004028	0.002760	0.007445	-0.243284	-0.117523	0.962809	0.387163	-0.921894	-0.014700	0.889335	0.369188	0.269782
29058	9.403261	-0.157034	2.620197	-0.002320	0.001394	0.005163	-0.243277	-0.117509	0.962813	0.387158	-0.921896	-0.014691	0.889340	0.369187	0.269770
29059	9.404165	-0.130322	2.673606	-0.002052	0.003880	0.007531	-0.243286	-0.117525	0.962808	0.387161	-0.921895	-0.014701	0.889336	0.369185	0.269785
29060	9.403100	-0.158553	2.620684	-0.001701	0.001328	0.009826	-0.243260	-0.117553	0.962811	0.387173	-0.921890	-0.014735	0.889338	0.369190	0.269772
29061	9.391550	-0.156844	2.642212	-0.003549	0.001489	0.003379	-0.243264	-0.117525	0.962814	0.387155	-0.921897	-0.014712	0.889345	0.369179	0.269765
29062	9.405577	-0.135494	2.619798	0.001766	0.004876	0.006521	-0.243283	-0.117536	0.962808	0.387189	-0.921883	-0.014705	0.889325	0.369211	0.269787
29063	9.405504	-0.135996	2.620034	-0.002453	0.000151	0.003977	-0.243268	-0.117507	0.962815	0.387180	-0.921887	-0.014685	0.889332	0.369210	0.269762
29064	9.405460	-0.136543	2.620162	-0.002184	0.002636	0.006346	-0.243268	-0.117508	0.962815	0.387179	-0.921888	-0.014687	0.889333	0.369209	0.269762
29065	9.393861	-0.134850	2.641865	-0.002050	0.003879	0.007531	-0.243277	-0.117523	0.962811	0.387181	-0.921887	-0.014697	0.889330	0.369207	0.269776
29066	9.426644	-0.139707	2.632444	-0.000954	0.002541	0.008129	-0.243269	-0.117540	0.962811	0.387195	-0.921880	-0.014713	0.889326	0.369216	0.269776
29067	9.402586	-0.162932	2.622257	-0.002318	0.001393	0.005161	-0.243259	-0.117526	0.962815	0.387190	-0.921883	-0.014704	0.889331	0.369215	0.269761
29068	9.393626	-0.136946	2.642591	-0.002049	0.003878	0.007530	-0.243265	-0.117543	0.962811	0.387193	-0.921881	-0.014717	0.889328	0.369214	0.269773
29069	9.405088	-0.139962	2.621317	-0.001357	-0.001187	0.004576	-0.243238	-0.117513	0.962822	0.387195	-0.921881	-0.014699	0.889334	0.369224	0.269737
29070	9.404993	-0.140602	2.621624	-0.004104	0.007796	0.007517	-0.243279	-0.117544	0.962808	0.387179	-0.921887	-0.014717	0.889330	0.369199	0.269786
29071	9.416356	-0.143596	2.600711	-0.001572	0.002608	0.003465	-0.243290	-0.117519	0.962808	0.387177	-0.921888	-0.014689	0.889328	0.369204	0.269787
29072	9.393298	-0.139404	2.643631	-0.001833	0.000082	0.008639	-0.243258	-0.117532	0.962815	0.387185	-0.921885	-0.014712	0.889333	0.369208	0.269762
29073	9.414622	-0.141853	2.655438	-0.002182	0.002635	0.006345	-0.243257	-0.117534	0.962815	0.387185	-0.921885	-0.014714	0.889334	0.369208	0.269762
29074	9.414528	-0.142419	2.655741	-0.001436	0.003849	0.004649	-0.243274	-0.117524	0.962812	0.387186	-0.921884	-0.014698	0.889328	0.369212	0.269774
29075	9.402908	-0.140635	2.677499	-0.002046	0.003877	0.007529	-0.243280	-0.117539	0.962808	0.387188	-0.921883	-0.014709	0.889326	0.369209	0.269786
29076	9.407115	-0.120165	2.621961	-0.002316	0.001392	0.005160	-0.243273	-0.117525	0.962812	0.387183	-0.921886	-0.014700	0.889330	0.369208	0.269774
29077	9.380423	-0.167561	2.613016	-0.004157	0.001515	0.006257	-0.243265	-0.117523	0.962814	0.387166	-0.921893	-0.014706	0.889339	0.369191	0.269765
29078	9.392789	-0.143375	2.645226	-0.004100	0.007794	0.007515	-0.243306	-0.117554	0.962800	0.387151	-0.921899	-0.014724	0.889335	0.369166	0.269815
29079	9.406863	-0.122197	2.622772	-0.000261	-0.002526	0.005173	-0.243264	-0.117527	0.962814	0.387166	-0.921893	-0.014711	0.889340	0.369190	0.269766
29080	9.415723	-0.149267	2.602680	-0.001570	0.002607	0.003465	-0.243274	-0.117502	0.962814	0.387163	-0.921894	-0.014684	0.889338	0.369194	0.269765
29081	9.395273	-0.120657	2.644410	-0.000339	0.002510	0.005248	-0.243275	-0.117494	0.962815	0.387177	-0.921889	-0.014671	0.889332	0.369211	0.269763
29082	9.392553	-0.145403	2.645955	-0.003410	0.002730	0.004561	-0.243282	-0.117479	0.962815	0.387161	-0.921896	-0.014659	0.889337	0.369198	0.269764
29083	9.392491	-0.145935	2.646144	-0.002315	0.001392	0.005160	-0.243276	-0.117462	0.962818	0.387154	-0.921899	-0.014648	0.889342	0.369195	0.269752
29084	9.406591	-0.124629	2.623630	-0.000339	0.002510	0.005248	-0.243279	-0.117453	0.962819	0.387166	-0.921894	-0.014634	0.889336	0.369211	0.269751
29085	9.413738	-0.148759	2.658191	-0.001085	0.001295	0.006942	-0.243262	-0.117456	0.962823	0.387178	-0.921889	-0.014640	0.889335	0.369222	0.269737
29086	9.382457	-0.148413	2.613601	-0.002179	0.002633	0.006343	-0.243262	-0.117458	0.962823	0.387177	-0.921889	-0.014642	0.889336	0.369221	0.269737
29087	9.425040	-0.152570	2.637466	-0.004096	0.007792	0.007514	-0.243300	-0.117487	0.962809	0.387161	-0.921896	-0.014660	0.889332	0.369195	0.269784
29088	9.392029	-0.149140	2.647604	-0.005385	0.001611	0.004472	-0.243297	-0.117468	0.962812	0.387126	-0.921910	-0.014653	0.889348	0.369165	0.269773
29089	9.413366	-0.151347	2.659364	0.000620	-0.000071	0.004662	-0.243283	-0.117446	0.962819	0.387149	-0.921901	-0.014631	0.889342	0.369195	0.269752
29090	9.424852	-0.154314	2.638036	-0.004154	0.001514	0.006255	-0.243272	-0.117443	0.962822	0.387130	-0.921909	-0.014638	0.889353	0.369177	0.269741
29091	9.406098	-0.129060	2.625186	-0.004154	0.001514	0.006254	-0.243264	-0.117442	0.962824	0.387115	-0.921915	-0.014645	0.889362	0.369161	0.269732
29092	9.403378	-0.153894	2.626666	-0.000337	0.002508	0.005247	-0.243266	-0.117433	0.962825	0.387127	-0.921910	-0.014632	0.889356	0.369176	0.269731
29093	9.427342	-0.131974	2.637242	-0.001083	0.001293	0.006941	-0.243251	-0.117437	0.962828	0.387140	-0.921905	-0.014638	0.889355	0.369188	0.269718
29094	9.391741	-0.152746	2.648419	-0.002177	0.002631	0.006342	-0.243250	-0.117438	0.962828	0.387139	-0.921905	-0.014639	0.889355	0.369187	0.269718
29095	9.427239	-0.133326	2.637545	0.000011	-0.000046	0.007540	-0.243225	-0.117439	0.962834	0.387159	-0.921897	-0.014644	0.889354	0.369208	0.269695
29096	9.405816	-0.132336	2.626031	-0.002040	0.003872	0.007526	-0.243230	-0.117455	0.962831	0.387162	-0.921895	-0.014657	0.889351	0.369206	0.269707
29097	9.408407	-0.108756	2.624983	-0.002313	0.001390	0.005158	-0.243223	-0.117440	0.962835	0.387156	-0.921898	-0.014647	0.889355	0.369205	0.269695
29098	9.381648	-0.156093	2.616059	-0.002176	0.002631	0.006342	-0.243223	-0.117441	0.962835	0.387155	-0.921898	-0.014648	0.889356	0.369203	0.269694
29099	9.394099	-0.131923	2.648041	-0.002922	0.001415	0.008036	-0.243207	-0.117454	0.962837	0.387153	-0.921899	-0.014668	0.889361	0.369197	0.269685
29100	9.405550	-0.135151	2.626840	-0.004015	0.002754	0.007437	-0.243204	-0.117466	0.962836	0.387138	-0.921905	-0.014685	0.889369	0.369179	0.269686
29101	9.351250	-0.130014	2.625028	-0.001081	0.001291	0.006940	-0.243191	-0.117467	0.962839	0.387148	-0.921901	-0.014688	0.889368	0.369189	0.269675
29102	9.438269	-0.140681	2.617638	-0.004362	0.005308	0.005144	-0.243219	-0.117467	0.962832	0.387125	-0.921910	-0.014684	0.889370	0.369165	0.269700
29103	9.391052	-0.158947	2.650497	-0.001291	0.005086	0.005831	-0.243244	-0.117473	0.962825	0.387131	-0.921908	-0.014678	0.889360	0.369169	0.269726
29104	9.415013	-0.137032	2.661146	-0.001218	0.000050	0.005756	-0.243223	-0.117460	0.962832	0.387137	-0.921905	-0.014672	0.889364	0.369180	0.269701
29105	9.405147	-0.138330	2.628120	-0.001081	0.001290	0.006940	-0.243207	-0.117464	0.962836	0.387149	-0.921900	-0.014678	0.889362	0.369192	0.269689
29106	9.393584	-0.136600	2.649630	-0.001080	0.001290	0.006940	-0.243192	-0.117466	0.962839	0.387160	-0.921896	-0.014682	0.889362	0.369202	0.269676
29107	9.405042	-0.139610	2.628425	-0.003404	0.002728	0.004558	-0.243200	-0.117450	0.962839	0.387143	-0.921903	-0.014669	0.889367	0.369189	0.269677
29108	9.390742	-0.162003	2.651411	-0.003267	0.003968	0.005742	-0.243214	-0.117451	0.962836	0.387131	-0.921908	-0.014668	0.889369	0.369176	0.269689
29109	9.412051	-0.164439	2.663237	-0.001963	-0.001166	0.007449	-0.243171	-0.117444	0.962847	0.387131	-0.921908	-0.014679	0.889380	0.369178	0.269648
29110	9.393352	-0.139162	2.650319	-0.002173	0.002629	0.006340	-0.243170	-0.117445	0.962847	0.387130	-0.921908	-0.014681	0.889381	0.369177	0.269647
29111	9.404762	-0.142192	2.629290	-0.001289	0.005085	0.005830	-0.243193	-0.117454	0.962841	0.387138	-0.921905	-0.014677	0.889371	0.369183	0.269671
29112	9.416207	-0.145182	2.608140	-0.001217	0.000049	0.005755	-0.243171	-0.117440	0.962848	0.387144	-0.921902	-0.014671	0.889374	0.369193	0.269647
29113	9.404623	-0.143445	2.629719	-0.005104	0.004091	0.006836	-0.243179	-0.117451	0.962844	0.387119	-0.921913	-0.014686	0.889383	0.369163	0.269658
29114	9.414375	-0.143450	2.663062	-0.002310	0.001388	0.005156	-0.243172	-0.117437	0.962848	0.387113	-0.921915	-0.014677	0.889388	0.369162	0.269646
29115	9.407194	-0.120421	2.628818	-0.002309	0.001388	0.005156	-0.243164	-0.117422	0.962852	0.387108	-0.921918	-0.014668	0.889392	0.369161	0.269632
29116	9.434611	-0.173805	2.621887	-0.005849	0.002874	0.008529	-0.243157	-0.117445	0.962851	0.387080	-0.921929	-0.014701	0.889407	0.369125	0.269634
29117	9.415891	-0.148490	2.609095	-0.000470	0.001264	0.004061	-0.243153	-0.117418	0.962855	0.387087	-0.921926	-0.014674	0.889404	0.369141	0.269620
29118	9.395522	-0.119986	2.650649	0.000015	-0.000052	0.007537	-0.243124	-0.117420	0.962862	0.387109	-0.921917	-0.014682	0.889403	0.369163	0.269595
29119	9.392775	-0.144905	2.652056	-0.005240	0.002850	0.005651	-0.243128	-0.117414	0.962862	0.387077	-0.921930	-0.014684	0.889415	0.369132	0.269595
29120	9.414017	-0.147220	2.664123	0.000553	0.004959	0.004735	-0.243154	-0.117409	0.962856	0.387097	-0.921923	-0.014663	0.889400	0.369153	0.269618
29121	9.394251	-0.149058	2.598295	-0.002170	0.002627	0.006339	-0.243153	-0.117413	0.962856	0.387098	-0.921922	-0.014667	0.889400	0.369153	0.269618
29122	9.389785	-0.170901	2.654241	-0.004147	0.001510	0.006249	-0.243142	-0.117409	0.962859	0.387079	-0.921930	-0.014673	0.889411	0.369135	0.269607
29123	9.415493	-0.152188	2.610317	-0.001077	0.001287	0.006938	-0.243127	-0.117412	0.962862	0.387091	-0.921925	-0.014678	0.889410	0.369147	0.269594
29124	9.371048	-0.146201	2.641509	-0.002308	0.001387	0.005155	-0.243120	-0.117398	0.962866	0.387086	-0.921927	-0.014669	0.889414	0.369145	0.269582
29125	9.439435	-0.130922	2.621111	-0.000192	0.003742	0.006428	-0.243130	-0.117403	0.962862	0.387102	-0.921920	-0.014665	0.889404	0.369161	0.269594
29126	9.394944	-0.124943	2.652468	0.000901	0.002402	0.007027	-0.243125	-0.117410	0.962863	0.387130	-0.921908	-0.014665	0.889393	0.369188	0.269592
29127	9.446379	-0.155792	2.656014	-0.005238	0.002850	0.005650	-0.243130	-0.117403	0.962863	0.387099	-0.921922	-0.014666	0.889406	0.369157	0.269594
29128	9.406295	-0.128659	2.631641	-0.003260	0.003965	0.005739	-0.243144	-0.117404	0.962859	0.387086	-0.921927	-0.014665	0.889407	0.369144	0.269606
29129	9.370590	-0.149386	2.642955	-0.002029	0.003865	0.007522	-0.243150	-0.117421	0.962855	0.387090	-0.921925	-0.014678	0.889404	0.369143	0.269619
29130	9.414881	-0.156691	2.612257	-0.003260	0.003965	0.005739	-0.243164	-0.117422	0.962852	0.387078	-0.921930	-0.014676	0.889405	0.369130	0.269631
29131	9.394452	-0.128260	2.654053	0.000902	0.002401	0.007027	-0.243158	-0.117429	0.962852	0.387107	-0.921918	-0.014677	0.889394	0.369158	0.269630
29132	9.405905	-0.131255	2.632908	-0.003398	0.002726	0.004555	-0.243166	-0.117414	0.962852	0.387091	-0.921925	-0.014665	0.889399	0.369145	0.269630
29133	9.403124	-0.156074	2.634356	0.001994	0.001060	0.007625	-0.243143	-0.117418	0.962857	0.387127	-0.921910	-0.014666	0.889390	0.369182	0.269612
29134	9.417250	-0.135003	2.612116	-0.004071	0.007783	0.007507	-0.243184	-0.117449	0.962843	0.387112	-0.921916	-0.014684	0.889385	0.369157	0.269661
29135	9.394081	-0.130784	2.655243	0.000624	-0.000078	0.004659	-0.243166	-0.117425	0.962851	0.387132	-0.921908	-0.014662	0.889381	0.369185	0.269636
29136	9.384237	-0.132047	2.622216	-0.005982	0.001633	0.007340	-0.243153	-0.117431	0.962853	0.387099	-0.921921	-0.014684	0.889399	0.369150	0.269625
29137	9.426848	-0.136358	2.645891	-0.000188	0.003739	0.006427	-0.243161	-0.117437	0.962851	0.387116	-0.921914	-0.014681	0.889389	0.369165	0.269636
29138	9.405408	-0.135273	2.634480	-0.004004	0.002748	0.007430	-0.243157	-0.117449	0.962850	0.387102	-0.921920	-0.014698	0.889397	0.369147	0.269636
29139	9.405328	-0.135934	2.634732	-0.003397	0.002725	0.004554	-0.243167	-0.117437	0.962849	0.387088	-0.921926	-0.014687	0.889400	0.369136	0.269640
29140	9.412312	-0.160170	2.669393	0.001044	0.003637	0.008209	-0.243168	-0.117459	0.962846	0.387120	-0.921912	-0.014698	0.889386	0.369163	0.269650
29141	9.405155	-0.137294	2.635278	-0.007212	0.001734	0.005557	-0.243163	-0.117452	0.962848	0.387075	-0.921931	-0.014707	0.889407	0.369118	0.269642
29142	9.405055	-0.138084	2.635593	-0.001885	0.005100	0.008703	-0.243175	-0.117484	0.962841	0.387082	-0.921928	-0.014731	0.889401	0.369117	0.269666
29143	9.404977	-0.138872	2.635829	0.000018	-0.000058	0.007534	-0.243145	-0.117488	0.962849	0.387105	-0.921918	-0.014739	0.889399	0.369140	0.269639
29144	9.413763	-0.166085	2.615706	0.000625	-0.000080	0.004658	-0.243126	-0.117464	0.962856	0.387125	-0.921910	-0.014717	0.889395	0.369167	0.269614
29145	9.393396	-0.137553	2.657323	-0.002164	0.002623	0.006336	-0.243129	-0.117464	0.962855	0.387124	-0.921910	-0.014717	0.889395	0.369166	0.269617
29146	9.383527	-0.138767	2.624409	-0.002304	0.001384	0.005152	-0.243122	-0.117450	0.962859	0.387119	-0.921913	-0.014708	0.889399	0.369165	0.269605
29147	9.430571	-0.121884	2.592467	-0.002974	0.006440	0.008103	-0.243150	-0.117485	0.962848	0.387119	-0.921912	-0.014730	0.889392	0.369154	0.269643
29148	9.406373	-0.144994	2.582375	-0.002303	0.001384	0.005152	-0.243143	-0.117471	0.962851	0.387113	-0.921915	-0.014721	0.889396	0.369153	0.269631
29149	9.404597	-0.142580	2.636986	-0.004141	0.001508	0.006245	-0.243134	-0.117466	0.962854	0.387094	-0.921922	-0.014726	0.889406	0.369135	0.269621
29150	9.404505	-0.143211	2.637284	0.001794	0.004851	0.006516	-0.243152	-0.117477	0.962848	0.387129	-0.921908	-0.014719	0.889386	0.369168	0.269643
29151	9.404399	-0.143677	2.637634	-0.001556	0.002600	0.003460	-0.243163	-0.117449	0.962849	0.387124	-0.921911	-0.014688	0.889385	0.369170	0.269642
29152	9.407091	-0.120051	2.636559	-0.002909	0.001405	0.008027	-0.243145	-0.117461	0.962852	0.387121	-0.921912	-0.014708	0.889392	0.369164	0.269630
29153	9.404243	-0.144983	2.638121	-0.001274	0.005076	0.005826	-0.243169	-0.117466	0.962845	0.387127	-0.921909	-0.014702	0.889383	0.369168	0.269654
29154	9.406886	-0.121450	2.637226	-0.003999	0.002745	0.007427	-0.243165	-0.117478	0.962845	0.387112	-0.921915	-0.014720	0.889390	0.369150	0.269655
29155	9.415604	-0.148842	2.617292	-0.001071	0.001280	0.006933	-0.243150	-0.117477	0.962849	0.387120	-0.921912	-0.014722	0.889391	0.369158	0.269640
29156	9.396985	-0.123332	2.604429	-0.000465	0.001259	0.004058	-0.243146	-0.117452	0.962853	0.387129	-0.921909	-0.014697	0.889388	0.369174	0.269627
29157	9.425283	-0.149431	2.650756	-0.003857	0.003983	0.008610	-0.243148	-0.117479	0.962849	0.387119	-0.921912	-0.014725	0.889392	0.369156	0.269640
29158	9.418187	-0.126475	2.616578	0.000626	-0.000082	0.004657	-0.243130	-0.117455	0.962856	0.387139	-0.921904	-0.014703	0.889388	0.369184	0.269614
29159	9.382438	-0.147064	2.627848	-0.004058	0.007778	0.007502	-0.243169	-0.117487	0.962842	0.387125	-0.921910	-0.014723	0.889383	0.369160	0.269663
29160	9.417968	-0.127853	2.617299	0.000020	-0.000061	0.007532	-0.243140	-0.117489	0.962849	0.387146	-0.921901	-0.014730	0.889382	0.369182	0.269637
29161	9.403587	-0.150220	2.640163	0.000566	0.004951	0.004733	-0.243165	-0.117486	0.962844	0.387167	-0.921892	-0.014710	0.889366	0.369204	0.269659
29162	9.391937	-0.148267	2.661898	-0.003391	0.002723	0.004551	-0.243172	-0.117471	0.962844	0.387151	-0.921899	-0.014698	0.889371	0.369191	0.269659
29163	9.393625	-0.151887	2.607603	-0.001069	0.001279	0.006932	-0.243157	-0.117471	0.962847	0.387160	-0.921895	-0.014702	0.889371	0.369201	0.269646
29164	9.406128	-0.127735	2.639633	-0.002159	0.002620	0.006333	-0.243157	-0.117472	0.962847	0.387159	-0.921896	-0.014703	0.889372	0.369200	0.269645
29165	9.424559	-0.154541	2.653038	-0.002965	0.006436	0.008100	-0.243184	-0.117504	0.962837	0.387156	-0.921897	-0.014724	0.889366	0.369188	0.269683
29166	9.379055	-0.175757	2.631014	-0.000263	-0.002538	0.005165	-0.243142	-0.117475	0.962851	0.387169	-0.921891	-0.014709	0.889372	0.369210	0.269633
29167	9.414663	-0.156345	2.620241	-0.004338	0.005302	0.005134	-0.243173	-0.117480	0.962842	0.387150	-0.921899	-0.014707	0.889371	0.369189	0.269663
29168	9.384471	-0.128349	2.628939	-0.000463	0.001258	0.004058	-0.243169	-0.117455	0.962846	0.387159	-0.921896	-0.014682	0.889369	0.369204	0.269650
29169	9.407500	-0.133803	2.586374	-0.003995	0.002743	0.007424	-0.243301	-0.117492	0.962809	0.387193	-0.921882	-0.014654	0.889318	0.369228	0.269787
29170	9.381551	-0.153963	2.630618	-0.000926	0.002515	0.008115	-0.243292	-0.117509	0.962809	0.387208	-0.921876	-0.014670	0.889314	0.369238	0.269786
29171	9.415392	-0.131522	2.674384	-0.001695	0.001361	0.002275	-0.243293	-0.117466	0.962814	0.387199	-0.921880	-0.014630	0.889317	0.369241	0.269770
29172	9.392993	-0.157458	2.609550	-0.002904	0.001401	0.008023	-0.243276	-0.117478	0.962817	0.387195	-0.921881	-0.014650	0.889324	0.369234	0.269758
29173	9.384157	-0.131381	2.629912	0.000427	0.003711	0.003549	-0.243295	-0.117459	0.962814	0.387213	-0.921874	-0.014620	0.889311	0.369257	0.269769
29174	9.416943	-0.136147	2.620567	-0.002157	0.002618	0.006332	-0.243294	-0.117461	0.962814	0.387212	-0.921875	-0.014621	0.889311	0.369256	0.269769
29175	9.383955	-0.132626	2.630567	-0.001872	0.005092	0.008698	-0.243304	-0.117496	0.962807	0.387223	-0.921870	-0.014648	0.889304	0.369257	0.269792
29176	9.395440	-0.135797	2.609380	-0.003189	-0.001073	0.005656	-0.243273	-0.117478	0.962817	0.387211	-0.921875	-0.014646	0.889317	0.369251	0.269756
29177	9.383882	-0.133945	2.630763	-0.002299	0.001381	0.005148	-0.243263	-0.117464	0.962821	0.387207	-0.921877	-0.014638	0.889322	0.369250	0.269742
29178	9.407960	-0.112122	2.641378	-0.002298	0.001381	0.005148	-0.243256	-0.117450	0.962825	0.387202	-0.921879	-0.014629	0.889326	0.369249	0.269730
29179	9.405107	-0.136942	2.642809	-0.002156	0.002617	0.006331	-0.243256	-0.117449	0.962825	0.387200	-0.921880	-0.014629	0.889327	0.369247	0.269729
29180	9.383703	-0.135661	2.631312	-0.000319	0.002493	0.005240	-0.243259	-0.117439	0.962826	0.387212	-0.921875	-0.014615	0.889321	0.369263	0.269728
29181	9.446599	-0.169055	2.613460	-0.001066	0.001276	0.006930	-0.243245	-0.117443	0.962829	0.387225	-0.921869	-0.014620	0.889319	0.369275	0.269717
29182	9.383620	-0.136942	2.631544	0.000023	-0.000066	0.007529	-0.243216	-0.117445	0.962836	0.387246	-0.921860	-0.014627	0.889318	0.369297	0.269691
29183	9.404936	-0.139519	2.643282	-0.003045	0.000163	0.006838	-0.243193	-0.117445	0.962842	0.387242	-0.921862	-0.014637	0.889326	0.369293	0.269670
29184	9.404872	-0.140193	2.643472	-0.003243	0.003958	0.005731	-0.243207	-0.117445	0.962838	0.387230	-0.921867	-0.014636	0.889328	0.369280	0.269682
29185	9.394980	-0.141461	2.610736	-0.005079	0.004082	0.006822	-0.243219	-0.117454	0.962834	0.387203	-0.921878	-0.014648	0.889336	0.369249	0.269697
29186	9.416209	-0.144041	2.622782	-0.002154	0.002616	0.006330	-0.243218	-0.117455	0.962834	0.387202	-0.921879	-0.014649	0.889337	0.369248	0.269697
29187	9.394806	-0.142892	2.611284	-0.000921	0.002511	0.008112	-0.243208	-0.117472	0.962834	0.387216	-0.921873	-0.014665	0.889333	0.369258	0.269694
29188	9.418845	-0.121248	2.622082	-0.003242	0.003958	0.005731	-0.243222	-0.117472	0.962831	0.387204	-0.921878	-0.014663	0.889335	0.369245	0.269707
29189	9.383088	-0.141662	2.633189	0.002607	0.001025	0.004747	-0.243209	-0.117452	0.962837	0.387241	-0.921862	-0.014638	0.889322	0.369290	0.269688
29190	9.415907	-0.146485	2.623729	-0.002153	0.002616	0.006330	-0.243209	-0.117453	0.962837	0.387240	-0.921863	-0.014639	0.889323	0.369288	0.269688
29191	9.425567	-0.146550	2.657207	-0.004329	0.005299	0.005131	-0.243236	-0.117453	0.962830	0.387217	-0.921872	-0.014636	0.889325	0.369264	0.269712
29192	9.382857	-0.143404	2.633920	-0.003187	-0.001075	0.005654	-0.243205	-0.117434	0.962840	0.387206	-0.921877	-0.014633	0.889339	0.369258	0.269676
29193	9.418521	-0.124055	2.623116	-0.000316	0.002491	0.005239	-0.243208	-0.117422	0.962841	0.387216	-0.921873	-0.014617	0.889333	0.369273	0.269675
29194	9.415647	-0.148866	2.624531	-0.001063	0.001273	0.006929	-0.243193	-0.117424	0.962844	0.387227	-0.921869	-0.014622	0.889333	0.369283	0.269662
29195	9.394246	-0.147637	2.613032	-0.003240	0.003957	0.005730	-0.243210	-0.117427	0.962839	0.387218	-0.921872	-0.014621	0.889332	0.369273	0.269679
29196	9.382630	-0.145872	2.634590	-0.003043	0.000161	0.006836	-0.243186	-0.117424	0.962846	0.387210	-0.921875	-0.014630	0.889342	0.369266	0.269655
29197	9.418263	-0.126647	2.623916	-0.003239	0.003957	0.005730	-0.243197	-0.117422	0.962843	0.387196	-0.921881	-0.014628	0.889345	0.369252	0.269664
29198	9.406616	-0.124849	2.645591	-0.002151	0.002614	0.006329	-0.243197	-0.117423	0.962843	0.387196	-0.921882	-0.014629	0.889345	0.369251	0.269664
29199	9.403714	-0.149720	2.647068	-0.002150	0.002614	0.006329	-0.243197	-0.117424	0.962843	0.387195	-0.921882	-0.014630	0.889345	0.369250	0.269665
29200	9.417999	-0.128645	2.624767	-0.002006	0.003850	0.007511	-0.243203	-0.117441	0.962840	0.387198	-0.921880	-0.014642	0.889342	0.369249	0.269677
29201	9.393723	-0.151717	2.614678	-0.003094	0.005192	0.006912	-0.243222	-0.117455	0.962833	0.387190	-0.921884	-0.014652	0.889341	0.369236	0.269700
29202	9.406223	-0.127516	2.646858	-0.000459	0.001254	0.004055	-0.243218	-0.117430	0.962837	0.387199	-0.921880	-0.014627	0.889338	0.369252	0.269687
29203	9.414908	-0.154709	2.626841	-0.001062	0.001271	0.006928	-0.243201	-0.117433	0.962841	0.387210	-0.921876	-0.014632	0.889338	0.369263	0.269672
29204	9.406120	-0.128727	2.647166	-0.005217	0.002844	0.005636	-0.243205	-0.117428	0.962841	0.387180	-0.921888	-0.014636	0.889350	0.369233	0.269674
29205	9.414780	-0.156057	2.627219	-0.001061	0.001271	0.006927	-0.243191	-0.117429	0.962844	0.387189	-0.921884	-0.014638	0.889349	0.369243	0.269661
29206	9.405968	-0.129888	2.647651	-0.000654	0.005049	0.002949	-0.243225	-0.117408	0.962838	0.387194	-0.921883	-0.014603	0.889338	0.369253	0.269685
29207	9.403026	-0.154571	2.649231	0.000919	0.002382	0.007020	-0.243220	-0.117416	0.962838	0.387224	-0.921870	-0.014605	0.889327	0.369282	0.269683
29208	9.417361	-0.133459	2.626815	-0.004128	0.001502	0.006235	-0.243210	-0.117412	0.962841	0.387205	-0.921878	-0.014611	0.889338	0.369264	0.269672
29209	9.384424	-0.129790	2.636622	-0.002148	0.002613	0.006327	-0.243209	-0.117411	0.962842	0.387203	-0.921879	-0.014611	0.889339	0.369262	0.269671
29210	9.405663	-0.132345	2.648614	-0.002148	0.002612	0.006327	-0.243208	-0.117412	0.962842	0.387202	-0.921879	-0.014612	0.889339	0.369261	0.269671
29211	9.414316	-0.159676	2.628665	-0.004128	0.001501	0.006234	-0.243198	-0.117407	0.962845	0.387183	-0.921887	-0.014617	0.889350	0.369242	0.269659
29212	9.414240	-0.160185	2.628907	0.000435	0.003706	0.003548	-0.243218	-0.117387	0.962842	0.387198	-0.921881	-0.014585	0.889338	0.369264	0.269670
29213	9.384134	-0.132128	2.637537	-0.004127	0.001501	0.006234	-0.243208	-0.117379	0.962846	0.387177	-0.921890	-0.014588	0.889350	0.369244	0.269658
29214	9.441073	-0.114817	2.638763	-0.004321	0.005297	0.005128	-0.243236	-0.117379	0.962839	0.387154	-0.921900	-0.014584	0.889353	0.369220	0.269683
29215	9.413981	-0.162143	2.629714	-0.003642	0.000175	0.009705	-0.243201	-0.117404	0.962845	0.387150	-0.921901	-0.014623	0.889364	0.369209	0.269660
29216	9.413934	-0.162898	2.629836	-0.000312	0.002487	0.005237	-0.243204	-0.117394	0.962845	0.387162	-0.921896	-0.014609	0.889358	0.369225	0.269659
29217	9.380985	-0.159042	2.639681	-0.000311	0.002487	0.005237	-0.243207	-0.117385	0.962845	0.387176	-0.921890	-0.014594	0.889351	0.369241	0.269659
29218	9.437966	-0.141691	2.640775	-0.001059	0.001268	0.006926	-0.243193	-0.117386	0.962849	0.387186	-0.921886	-0.014598	0.889351	0.369251	0.269646
29219	9.437923	-0.142305	2.640897	-0.002291	0.001376	0.005144	-0.243187	-0.117372	0.962852	0.387181	-0.921888	-0.014588	0.889354	0.369251	0.269635
29220	9.376767	-0.112839	2.604655	-0.001398	0.003829	0.004637	-0.243204	-0.117362	0.962849	0.387183	-0.921888	-0.014571	0.889349	0.369255	0.269647
29221	9.427989	-0.144022	2.608378	-0.000767	0.003737	0.009291	-0.243201	-0.117394	0.962846	0.387202	-0.921879	-0.014597	0.889341	0.369266	0.269657
29222	9.396032	-0.113215	2.671657	-0.001251	0.005064	0.005820	-0.243224	-0.117399	0.962839	0.387208	-0.921877	-0.014592	0.889332	0.369270	0.269681
29223	9.392055	-0.165109	2.619853	0.000630	-0.000092	0.004653	-0.243205	-0.117377	0.962847	0.387230	-0.921868	-0.014571	0.889328	0.369299	0.269655
29224	9.428806	-0.118719	2.662353	-0.005959	0.001625	0.007321	-0.243192	-0.117383	0.962849	0.387197	-0.921881	-0.014592	0.889346	0.369264	0.269645
29225	9.404568	-0.141757	2.652011	-0.002144	0.002610	0.006325	-0.243194	-0.117389	0.962848	0.387201	-0.921880	-0.014596	0.889344	0.369266	0.269649
29226	9.424756	-0.171437	2.610745	-0.000310	0.002485	0.005236	-0.243197	-0.117379	0.962849	0.387213	-0.921875	-0.014582	0.889337	0.369282	0.269648
29227	9.394687	-0.143513	2.619310	-0.002892	0.001391	0.008014	-0.243177	-0.117390	0.962852	0.387210	-0.921876	-0.014602	0.889345	0.369275	0.269633
29228	9.415955	-0.145981	2.631185	0.001379	0.001126	0.002964	-0.243176	-0.117355	0.962857	0.387232	-0.921867	-0.014561	0.889335	0.369308	0.269619
29229	9.392716	-0.141630	2.674261	-0.002937	0.006422	0.008090	-0.243202	-0.117387	0.962846	0.387229	-0.921868	-0.014582	0.889329	0.369296	0.269656
29230	9.415753	-0.147160	2.631844	-0.002436	0.000141	0.003960	-0.243189	-0.117357	0.962853	0.387220	-0.921872	-0.014561	0.889337	0.369295	0.269632
29231	9.387531	-0.122206	2.585873	-0.002744	0.002625	0.009195	-0.243181	-0.117386	0.962852	0.387223	-0.921871	-0.014592	0.889338	0.369290	0.269636
29232	9.415643	-0.148588	2.632155	-0.002289	0.001375	0.005142	-0.243174	-0.117372	0.962855	0.387218	-0.921873	-0.014582	0.889342	0.369289	0.269624
29233	9.394280	-0.147096	2.620570	0.001526	0.002359	0.004147	-0.243178	-0.117352	0.962857	0.387245	-0.921862	-0.014553	0.889329	0.369322	0.269620
29234	9.415497	-0.149590	2.632622	-0.001995	0.003843	0.007507	-0.243184	-0.117368	0.962853	0.387248	-0.921861	-0.014566	0.889326	0.369321	0.269632
29235	9.394110	-0.148375	2.621107	-0.004123	0.001499	0.006230	-0.243173	-0.117361	0.962857	0.387227	-0.921869	-0.014570	0.889338	0.369301	0.269619
29236	9.382513	-0.146492	2.642539	-0.002435	0.000140	0.003959	-0.243159	-0.117331	0.962864	0.387218	-0.921873	-0.014549	0.889346	0.369300	0.269595
29237	9.415324	-0.151557	2.633130	-0.003828	0.003967	0.008595	-0.243163	-0.117358	0.962860	0.387208	-0.921877	-0.014576	0.889349	0.369282	0.269608
29238	9.385171	-0.123658	2.642049	-0.000351	0.007513	0.005313	-0.243210	-0.117367	0.962847	0.387220	-0.921872	-0.014563	0.889331	0.369292	0.269656
29239	9.447930	-0.157130	2.624422	0.000632	-0.000094	0.004652	-0.243191	-0.117345	0.962854	0.387242	-0.921863	-0.014542	0.889326	0.369321	0.269630
29240	9.396612	-0.127196	2.621099	-0.002889	0.001389	0.008011	-0.243173	-0.117357	0.962857	0.387239	-0.921864	-0.014562	0.889333	0.369315	0.269618
29241	9.403393	-0.151725	2.655623	-0.003974	0.002732	0.007412	-0.243170	-0.117368	0.962857	0.387225	-0.921870	-0.014578	0.889340	0.369297	0.269619
29242	9.372294	-0.151008	2.610919	-0.001054	0.001264	0.006923	-0.243155	-0.117370	0.962860	0.387235	-0.921866	-0.014583	0.889339	0.369307	0.269606
29243	9.439050	-0.133271	2.645124	-0.002287	0.001373	0.005141	-0.243149	-0.117355	0.962863	0.387230	-0.921868	-0.014573	0.889343	0.369307	0.269595
29244	9.405068	-0.156401	2.601626	0.000295	0.002467	0.002365	-0.243163	-0.117319	0.962864	0.387242	-0.921864	-0.014529	0.889334	0.369328	0.269594
29245	9.406093	-0.129879	2.654965	-0.005617	-0.000940	0.009604	-0.243114	-0.117338	0.962874	0.387219	-0.921873	-0.014573	0.889358	0.369300	0.269556
29246	9.429173	-0.135589	2.612430	0.001823	0.004824	0.006511	-0.243133	-0.117349	0.962868	0.387253	-0.921858	-0.014566	0.889338	0.369333	0.269578
29247	9.396231	-0.131670	2.622245	0.000632	-0.000096	0.004652	-0.243115	-0.117323	0.962876	0.387273	-0.921851	-0.014543	0.889334	0.369360	0.269551
29248	9.407760	-0.134733	2.601010	-0.003972	0.002732	0.007411	-0.243111	-0.117335	0.962876	0.387258	-0.921856	-0.014560	0.889341	0.369342	0.269552
29249	9.435793	-0.161199	2.647415	-0.001991	0.003840	0.007505	-0.243116	-0.117348	0.962873	0.387259	-0.921856	-0.014570	0.889339	0.369339	0.269562
29250	9.374698	-0.131797	2.611204	-0.002138	0.002606	0.006322	-0.243116	-0.117349	0.962873	0.387259	-0.921856	-0.014571	0.889340	0.369338	0.269562
29251	9.395904	-0.134399	2.623276	-0.003223	0.003950	0.005723	-0.243130	-0.117353	0.962869	0.387250	-0.921859	-0.014572	0.889340	0.369328	0.269577
29252	9.414219	-0.161237	2.636503	-0.004119	0.001497	0.006228	-0.243120	-0.117349	0.962872	0.387232	-0.921867	-0.014578	0.889350	0.369310	0.269566
29253	9.395743	-0.135857	2.623779	-0.003822	0.003964	0.008592	-0.243122	-0.117378	0.962868	0.387223	-0.921870	-0.014607	0.889354	0.369293	0.269578
29254	9.428561	-0.140797	2.614363	0.004299	-0.000347	0.002476	-0.243110	-0.117333	0.962876	0.387270	-0.921851	-0.014554	0.889336	0.369355	0.269551
29255	9.374318	-0.134897	2.612411	-0.004907	0.005308	0.007992	-0.243130	-0.117360	0.962868	0.387250	-0.921859	-0.014578	0.889340	0.369326	0.269579
29256	9.438065	-0.141619	2.648203	-0.000007	0.004946	0.007598	-0.243145	-0.117381	0.962861	0.387272	-0.921850	-0.014586	0.889326	0.369342	0.269602
29257	9.416676	-0.140341	2.636723	-0.001052	0.001261	0.006921	-0.243129	-0.117386	0.962865	0.387285	-0.921845	-0.014593	0.889325	0.369355	0.269589
29258	9.374023	-0.137049	2.613357	-0.002136	0.002605	0.006321	-0.243129	-0.117386	0.962865	0.387284	-0.921845	-0.014594	0.889325	0.369354	0.269589
29259	9.416555	-0.141672	2.637082	-0.001051	0.001261	0.006921	-0.243112	-0.117389	0.962869	0.387296	-0.921840	-0.014600	0.889325	0.369366	0.269575
29260	9.395179	-0.140417	2.625556	-0.005053	0.004074	0.006809	-0.243122	-0.117400	0.962865	0.387270	-0.921850	-0.014614	0.889333	0.369336	0.269588
29261	9.416397	-0.142983	2.637576	-0.000451	0.001246	0.004051	-0.243115	-0.117373	0.962870	0.387278	-0.921848	-0.014589	0.889332	0.369351	0.269571
29262	9.413421	-0.167571	2.638956	-0.001535	0.002591	0.003452	-0.243125	-0.117348	0.962871	0.387275	-0.921849	-0.014561	0.889330	0.369356	0.269571
29263	9.414401	-0.141087	2.692478	-0.002734	0.002618	0.009190	-0.243113	-0.117378	0.962870	0.387279	-0.921847	-0.014594	0.889332	0.369351	0.269571
29264	9.406502	-0.145237	2.604991	-0.001199	0.000027	0.005738	-0.243091	-0.117364	0.962877	0.387285	-0.921845	-0.014587	0.889335	0.369362	0.269546
29265	9.383302	-0.140933	2.647818	-0.002134	0.002604	0.006320	-0.243090	-0.117369	0.962877	0.387288	-0.921843	-0.014592	0.889334	0.369363	0.269546
29266	9.404502	-0.143485	2.659893	-0.001386	0.003823	0.004633	-0.243106	-0.117359	0.962874	0.387289	-0.921843	-0.014575	0.889329	0.369368	0.269558
29267	9.397641	-0.120318	2.625802	-0.001050	0.001259	0.006920	-0.243092	-0.117361	0.962877	0.387301	-0.921838	-0.014579	0.889328	0.369379	0.269546
29268	9.406250	-0.147662	2.605766	-0.001049	0.001259	0.006920	-0.243077	-0.117363	0.962881	0.387311	-0.921834	-0.014584	0.889327	0.369390	0.269533
29269	9.406141	-0.148277	2.606123	-0.002320	0.006400	0.005215	-0.243114	-0.117369	0.962871	0.387308	-0.921835	-0.014576	0.889319	0.369384	0.269569
29270	9.371272	-0.141500	2.670598	-0.002133	0.002603	0.006320	-0.243113	-0.117370	0.962871	0.387307	-0.921835	-0.014578	0.889319	0.369383	0.269569
29271	9.430158	-0.127469	2.617377	-0.005798	0.002853	0.008493	-0.243108	-0.117389	0.962870	0.387277	-0.921848	-0.014607	0.889334	0.369346	0.269570
29272	9.397225	-0.123750	2.627133	0.000784	0.001133	0.005832	-0.243096	-0.117380	0.962874	0.387301	-0.921838	-0.014596	0.889327	0.369374	0.269556
29273	9.394230	-0.148545	2.628503	-0.002132	0.002603	0.006319	-0.243094	-0.117380	0.962874	0.387300	-0.921838	-0.014597	0.889328	0.369373	0.269555
29274	9.418399	-0.126938	2.639272	-0.002282	0.001370	0.005137	-0.243087	-0.117365	0.962878	0.387295	-0.921840	-0.014587	0.889332	0.369372	0.269542
29275	9.394092	-0.149724	2.628932	-0.003216	0.003947	0.005719	-0.243101	-0.117370	0.962874	0.387287	-0.921844	-0.014589	0.889332	0.369362	0.269557
29276	9.418195	-0.128124	2.639940	-0.001233	0.005054	0.005814	-0.243124	-0.117375	0.962868	0.387293	-0.921841	-0.014583	0.889323	0.369367	0.269580
29277	9.396781	-0.126717	2.628578	-0.003215	0.003947	0.005719	-0.243137	-0.117376	0.962864	0.387282	-0.921846	-0.014581	0.889324	0.369355	0.269593
29278	9.382192	-0.149127	2.651299	0.000036	-0.000088	0.007518	-0.243108	-0.117378	0.962871	0.387304	-0.921837	-0.014589	0.889322	0.369377	0.269567
29279	9.372477	-0.150289	2.618168	-0.003030	0.000150	0.006823	-0.243085	-0.117376	0.962877	0.387298	-0.921839	-0.014598	0.889331	0.369372	0.269544
29280	9.429510	-0.133144	2.619430	0.000600	0.004928	0.004727	-0.243111	-0.117371	0.962871	0.387318	-0.921831	-0.014576	0.889316	0.369393	0.269567
29281	9.414869	-0.155428	2.642324	-0.002130	0.002601	0.006318	-0.243112	-0.117368	0.962871	0.387315	-0.921832	-0.014574	0.889317	0.369391	0.269567
29282	9.396455	-0.129858	2.629590	-0.002130	0.002601	0.006318	-0.243111	-0.117369	0.962871	0.387314	-0.921833	-0.014576	0.889317	0.369390	0.269567
29283	9.429253	-0.134912	2.620264	-0.000298	0.002476	0.005232	-0.243115	-0.117357	0.962872	0.387325	-0.921828	-0.014559	0.889311	0.369405	0.269566
29284	9.381748	-0.152735	2.652664	-0.003213	0.003946	0.005718	-0.243129	-0.117357	0.962868	0.387313	-0.921833	-0.014557	0.889313	0.369392	0.269578
29285	9.407831	-0.134142	2.608905	-0.001946	-0.001196	0.007422	-0.243091	-0.117353	0.962879	0.387316	-0.921832	-0.014568	0.889322	0.369397	0.269542
29286	9.396182	-0.132349	2.630440	-0.004295	0.005291	0.005118	-0.243119	-0.117353	0.962872	0.387293	-0.921842	-0.014563	0.889324	0.369373	0.269567
29287	9.417358	-0.134987	2.642585	0.000936	0.002361	0.007013	-0.243115	-0.117358	0.962872	0.387320	-0.921830	-0.014561	0.889313	0.369400	0.269566
29288	9.414340	-0.159781	2.643947	-0.002279	0.001369	0.005136	-0.243108	-0.117343	0.962875	0.387316	-0.921832	-0.014551	0.889317	0.369399	0.269554
29289	9.395942	-0.134126	2.631209	-0.000146	0.003706	0.006413	-0.243115	-0.117345	0.962873	0.387330	-0.921826	-0.014546	0.889309	0.369413	0.269561
29290	9.431700	-0.115064	2.620706	-0.004111	0.001494	0.006221	-0.243105	-0.117341	0.962877	0.387311	-0.921834	-0.014552	0.889320	0.369395	0.269550
29291	9.359934	-0.155121	2.642497	-0.001228	0.005051	0.005813	-0.243127	-0.117348	0.962870	0.387319	-0.921831	-0.014548	0.889311	0.369401	0.269573
29292	9.398630	-0.111746	2.630921	-0.000296	0.002474	0.005231	-0.243129	-0.117339	0.962871	0.387332	-0.921826	-0.014534	0.889304	0.369417	0.269572
29293	9.392605	-0.160715	2.633591	-0.003210	0.003945	0.005717	-0.243140	-0.117338	0.962868	0.387320	-0.921831	-0.014532	0.889306	0.369405	0.269582
29294	9.419728	-0.114976	2.643317	-0.002127	0.002599	0.006316	-0.243140	-0.117339	0.962868	0.387319	-0.921831	-0.014534	0.889307	0.369404	0.269581
29295	9.392396	-0.162106	2.634250	-0.001825	0.005061	0.008680	-0.243155	-0.117371	0.962860	0.387327	-0.921827	-0.014555	0.889299	0.369403	0.269608
29296	9.416565	-0.140740	2.645110	-0.006092	0.000388	0.006124	-0.243136	-0.117362	0.962866	0.387291	-0.921842	-0.014566	0.889320	0.369368	0.269586
29297	9.409806	-0.117583	2.610921	-0.000295	0.002473	0.005230	-0.243135	-0.117353	0.962867	0.387305	-0.921837	-0.014553	0.889314	0.369385	0.269582
29298	9.392189	-0.164097	2.634865	-0.002126	0.002598	0.006316	-0.243135	-0.117354	0.962867	0.387304	-0.921837	-0.014554	0.889315	0.369384	0.269582
29299	9.406664	-0.143064	2.612639	-0.001975	0.003829	0.007497	-0.243142	-0.117368	0.962864	0.387307	-0.921836	-0.014565	0.889312	0.369382	0.269594
29300	9.430828	-0.121466	2.623553	-0.001528	0.002587	0.003449	-0.243152	-0.117343	0.962864	0.387304	-0.921837	-0.014537	0.889310	0.369387	0.269594
29301	9.397831	-0.117554	2.633521	-0.002905	0.006405	0.008079	-0.243178	-0.117374	0.962854	0.387302	-0.921838	-0.014557	0.889304	0.369375	0.269630
29302	9.394720	-0.142507	2.635129	-0.005190	0.002838	0.005619	-0.243183	-0.117370	0.962853	0.387272	-0.921850	-0.014560	0.889316	0.369346	0.269632
29303	9.406267	-0.145668	2.613921	-0.003026	0.000147	0.006819	-0.243158	-0.117364	0.962860	0.387263	-0.921854	-0.014567	0.889326	0.369338	0.269607
29304	9.406239	-0.146367	2.613984	-0.001043	0.001252	0.006915	-0.243143	-0.117365	0.962864	0.387274	-0.921850	-0.014571	0.889326	0.369349	0.269593
29305	9.418845	-0.122412	2.646126	-0.002125	0.002597	0.006315	-0.243144	-0.117367	0.962863	0.387275	-0.921849	-0.014573	0.889325	0.369349	0.269595
29306	9.427392	-0.149823	2.626144	-0.002874	0.001377	0.008000	-0.243126	-0.117379	0.962867	0.387271	-0.921850	-0.014593	0.889332	0.369343	0.269583
29307	9.394440	-0.146092	2.635929	-0.001972	0.003827	0.007496	-0.243133	-0.117392	0.962863	0.387272	-0.921850	-0.014602	0.889329	0.369340	0.269595
29308	9.376065	-0.120393	2.623254	-0.001527	0.002586	0.003448	-0.243143	-0.117367	0.962864	0.387270	-0.921851	-0.014574	0.889327	0.369345	0.269595
29309	9.412536	-0.173540	2.649496	-0.000738	0.003711	0.009277	-0.243141	-0.117400	0.962860	0.387290	-0.921842	-0.014600	0.889319	0.369356	0.269606
29310	9.408751	-0.126326	2.614311	-0.005188	0.002837	0.005618	-0.243145	-0.117395	0.962860	0.387261	-0.921855	-0.014603	0.889331	0.369327	0.269607
29311	9.405679	-0.151042	2.615734	-0.001526	0.002586	0.003448	-0.243158	-0.117370	0.962860	0.387259	-0.921856	-0.014575	0.889328	0.369332	0.269609
29312	9.415294	-0.151155	2.649054	-0.001042	0.001250	0.006914	-0.243143	-0.117372	0.962863	0.387270	-0.921851	-0.014579	0.889328	0.369343	0.269596
29313	9.372689	-0.147623	2.625635	-0.003356	0.002712	0.004533	-0.243150	-0.117355	0.962863	0.387253	-0.921858	-0.014565	0.889333	0.369330	0.269596
29314	9.415138	-0.152389	2.649541	-0.001970	0.003826	0.007495	-0.243155	-0.117371	0.962860	0.387256	-0.921857	-0.014578	0.889330	0.369329	0.269607
29315	9.418044	-0.128893	2.648670	-0.002122	0.002595	0.006314	-0.243152	-0.117371	0.962861	0.387255	-0.921857	-0.014579	0.889332	0.369328	0.269604
29316	9.426544	-0.156344	2.628804	-0.003800	0.003951	0.008580	-0.243155	-0.117397	0.962857	0.387245	-0.921861	-0.014606	0.889335	0.369310	0.269617
29317	9.372351	-0.150566	2.626671	-0.005007	-0.000960	0.006720	-0.243122	-0.117387	0.962867	0.387218	-0.921872	-0.014617	0.889356	0.369286	0.269581
29318	9.396600	-0.129002	2.637378	-0.001525	0.002585	0.003447	-0.243132	-0.117361	0.962867	0.387216	-0.921874	-0.014589	0.889354	0.369290	0.269581
29319	9.414787	-0.155783	2.650590	-0.002121	0.002595	0.006313	-0.243130	-0.117363	0.962867	0.387216	-0.921873	-0.014592	0.889354	0.369290	0.269580
29320	9.396446	-0.130233	2.637865	-0.003951	0.002720	0.007398	-0.243127	-0.117374	0.962867	0.387202	-0.921879	-0.014608	0.889362	0.369272	0.269581
29321	9.407969	-0.133428	2.616772	-0.002121	0.002594	0.006313	-0.243126	-0.117376	0.962867	0.387202	-0.921879	-0.014610	0.889362	0.369272	0.269581
29322	9.384655	-0.129031	2.659810	-0.002452	0.005161	0.004029	-0.243157	-0.117365	0.962860	0.387193	-0.921883	-0.014590	0.889357	0.369265	0.269605
29323	9.393120	-0.156227	2.640051	-0.000137	0.003698	0.006410	-0.243163	-0.117372	0.962858	0.387212	-0.921875	-0.014589	0.889347	0.369282	0.269614
29324	9.417312	-0.134595	2.650988	-0.001524	0.002585	0.003447	-0.243174	-0.117347	0.962858	0.387209	-0.921877	-0.014561	0.889346	0.369287	0.269614
29325	9.395985	-0.133176	2.639359	-0.001635	0.001256	0.009778	-0.243148	-0.117377	0.962861	0.387224	-0.921870	-0.014596	0.889346	0.369294	0.269602
29326	9.414174	-0.160123	2.652508	-0.001523	0.002585	0.003447	-0.243158	-0.117352	0.962862	0.387222	-0.921871	-0.014568	0.889344	0.369299	0.269602
29327	9.417053	-0.136360	2.651819	-0.000313	0.007494	0.005307	-0.243208	-0.117363	0.962848	0.387237	-0.921865	-0.014554	0.889324	0.369310	0.269652
29328	9.374381	-0.132832	2.628667	-0.000885	0.002476	0.008093	-0.243199	-0.117380	0.962848	0.387251	-0.921859	-0.014570	0.889320	0.369321	0.269651
29329	9.449720	-0.142311	2.642946	-0.004103	0.001489	0.006214	-0.243189	-0.117377	0.962851	0.387234	-0.921866	-0.014576	0.889331	0.369304	0.269640
29330	9.320090	-0.127544	2.626865	-0.001215	0.005043	0.005809	-0.243212	-0.117382	0.962844	0.387240	-0.921864	-0.014570	0.889322	0.369309	0.269663
29331	9.482370	-0.148120	2.634149	-0.003199	0.003939	0.005712	-0.243229	-0.117380	0.962840	0.387228	-0.921869	-0.014565	0.889322	0.369296	0.269679
29332	9.331496	-0.131191	2.606189	-0.002272	0.001363	0.005130	-0.243222	-0.117366	0.962844	0.387223	-0.921871	-0.014556	0.889326	0.369295	0.269666
29333	9.428080	-0.142761	2.632342	-0.000730	0.003704	0.009274	-0.243217	-0.117397	0.962841	0.387241	-0.921863	-0.014582	0.889320	0.369305	0.269673
29334	9.403691	-0.165640	2.621991	-0.005181	0.002835	0.005613	-0.243221	-0.117392	0.962841	0.387212	-0.921875	-0.014585	0.889332	0.369276	0.269675
29335	9.322704	-0.106680	2.627025	0.000042	-0.000101	0.007511	-0.243192	-0.117395	0.962848	0.387234	-0.921866	-0.014592	0.889329	0.369299	0.269650
29336	9.460754	-0.149319	2.623422	0.000462	0.003687	0.003544	-0.243212	-0.117375	0.962845	0.387250	-0.921860	-0.014560	0.889317	0.369321	0.269661
29337	9.331136	-0.134418	2.607313	-0.003947	0.002718	0.007394	-0.243210	-0.117388	0.962844	0.387238	-0.921865	-0.014577	0.889323	0.369304	0.269664
29338	9.517768	-0.133043	2.625052	-0.002271	0.001363	0.005129	-0.243203	-0.117373	0.962848	0.387233	-0.921867	-0.014567	0.889327	0.369303	0.269652
29339	9.324953	-0.184223	2.609931	-0.001632	0.001252	0.009775	-0.243179	-0.117399	0.962851	0.387244	-0.921862	-0.014598	0.889329	0.369308	0.269640
29340	9.467653	-0.076541	2.675226	-0.001521	0.002583	0.003446	-0.243190	-0.117374	0.962851	0.387242	-0.921863	-0.014571	0.889327	0.369313	0.269640
29341	9.366238	-0.216764	2.580704	-0.000727	0.003702	0.009273	-0.243189	-0.117409	0.962847	0.387264	-0.921853	-0.014597	0.889318	0.369326	0.269653
29342	9.428032	-0.049425	2.650914	-0.002425	0.000134	0.003948	-0.243176	-0.117379	0.962854	0.387254	-0.921858	-0.014577	0.889325	0.369325	0.269629
29343	9.387352	-0.220181	2.592936	-0.001806	0.005048	0.008672	-0.243188	-0.117412	0.962847	0.387264	-0.921853	-0.014601	0.889318	0.369325	0.269653
29344	9.403599	-0.072898	2.640678	-0.003174	-0.001088	0.005631	-0.243157	-0.117393	0.962857	0.387253	-0.921858	-0.014599	0.889331	0.369319	0.269617
29345	9.393351	-0.173013	2.590876	-0.001520	0.002583	0.003445	-0.243166	-0.117370	0.962857	0.387253	-0.921858	-0.014573	0.889329	0.369326	0.269617
29346	9.405967	-0.149102	2.623114	-0.002710	0.002598	0.009174	-0.243155	-0.117397	0.962857	0.387254	-0.921857	-0.014603	0.889331	0.369319	0.269616
29347	9.408941	-0.125556	2.622202	-0.001519	0.002583	0.003445	-0.243163	-0.117372	0.962858	0.387252	-0.921859	-0.014576	0.889330	0.369324	0.269615
29348	9.423985	-0.176611	2.636686	-0.003038	0.005166	0.006890	-0.243183	-0.117388	0.962851	0.387245	-0.921862	-0.014585	0.889328	0.369312	0.269639
29349	9.400180	-0.100129	2.643043	-0.001035	0.001243	0.006909	-0.243166	-0.117391	0.962855	0.387257	-0.921856	-0.014592	0.889327	0.369324	0.269625
29350	9.358085	-0.168773	2.656181	-0.002114	0.002590	0.006309	-0.243166	-0.117392	0.962855	0.387257	-0.921856	-0.014593	0.889327	0.369324	0.269625
29351	9.421296	-0.103724	2.655304	-0.008835	0.003086	0.007776	-0.243165	-0.117408	0.962853	0.387200	-0.921880	-0.014626	0.889352	0.369261	0.269629
29352	9.392728	-0.177780	2.592810	0.001855	0.004794	0.006505	-0.243183	-0.117419	0.962847	0.387236	-0.921865	-0.014618	0.889332	0.369294	0.269651
29353	9.399823	-0.103043	2.644202	-0.003942	0.002715	0.007391	-0.243180	-0.117431	0.962847	0.387223	-0.921870	-0.014635	0.889338	0.369277	0.269652
29354	9.416871	-0.157064	2.604024	-0.002268	0.001361	0.005128	-0.243173	-0.117416	0.962850	0.387218	-0.921872	-0.014625	0.889342	0.369276	0.269640
29355	9.417894	-0.130702	2.657538	-0.000878	0.002469	0.008090	-0.243163	-0.117434	0.962851	0.387233	-0.921866	-0.014641	0.889338	0.369288	0.269637
29356	9.405116	-0.155894	2.625771	-0.003346	0.002708	0.004527	-0.243170	-0.117418	0.962851	0.387217	-0.921872	-0.014629	0.889343	0.369275	0.269638
29357	9.389939	-0.105960	2.611829	0.002030	0.000995	0.007607	-0.243150	-0.117425	0.962855	0.387257	-0.921856	-0.014631	0.889331	0.369315	0.269623
29358	9.429318	-0.135088	2.636802	-0.005175	0.002834	0.005609	-0.243154	-0.117420	0.962854	0.387227	-0.921868	-0.014633	0.889343	0.369285	0.269625
29359	9.372044	-0.153188	2.635883	-0.005174	0.002834	0.005609	-0.243157	-0.117415	0.962854	0.387198	-0.921881	-0.014636	0.889355	0.369256	0.269625
29360	9.462011	-0.140944	2.627869	-0.001361	0.003809	0.004625	-0.243174	-0.117405	0.962851	0.387200	-0.921880	-0.014619	0.889350	0.369261	0.269636
29361	9.425979	-0.161001	2.638808	-0.000282	0.002462	0.005225	-0.243174	-0.117392	0.962853	0.387211	-0.921876	-0.014604	0.889345	0.369276	0.269632
29362	9.399215	-0.108459	2.646145	-0.002423	0.000132	0.003946	-0.243161	-0.117362	0.962860	0.387202	-0.921880	-0.014583	0.889353	0.369275	0.269607
29363	9.411201	-0.183646	2.661517	-0.000282	0.002461	0.005225	-0.243166	-0.117354	0.962859	0.387217	-0.921874	-0.014569	0.889344	0.369293	0.269610
29364	9.410720	-0.112057	2.625179	-0.003939	0.002713	0.007390	-0.243162	-0.117366	0.962859	0.387203	-0.921879	-0.014586	0.889352	0.369275	0.269611
29365	9.401426	-0.185373	2.628783	-0.001032	0.001239	0.006908	-0.243146	-0.117366	0.962863	0.387213	-0.921875	-0.014589	0.889352	0.369285	0.269596
29366	9.389319	-0.111282	2.613837	-0.004266	0.005282	0.005107	-0.243174	-0.117365	0.962856	0.387190	-0.921885	-0.014585	0.889354	0.369262	0.269621
29367	9.404360	-0.162506	2.628078	-0.003923	-0.002312	0.007310	-0.243125	-0.117359	0.962869	0.387178	-0.921889	-0.014602	0.889372	0.369252	0.269574
29368	9.386165	-0.136861	2.615172	-0.000125	0.003688	0.006406	-0.243134	-0.117365	0.962866	0.387195	-0.921882	-0.014599	0.889363	0.369268	0.269584
29369	9.425471	-0.165963	2.640316	-0.000124	0.003688	0.006406	-0.243217	-0.117447	0.962835	0.387247	-0.921860	-0.014628	0.889317	0.369297	0.269693
29370	9.398697	-0.113583	2.647767	-0.001031	0.001238	0.006907	-0.243202	-0.117449	0.962839	0.387258	-0.921855	-0.014632	0.889317	0.369308	0.269680
29371	9.407176	-0.140780	2.627757	-0.001515	0.002581	0.003444	-0.243212	-0.117423	0.962839	0.387256	-0.921857	-0.014604	0.889315	0.369313	0.269679
29372	9.395478	-0.138800	2.649323	-0.002108	0.002586	0.006306	-0.243211	-0.117424	0.962840	0.387255	-0.921857	-0.014606	0.889315	0.369312	0.269679
29373	9.428320	-0.144143	2.639890	-0.001937	-0.001211	0.007408	-0.243171	-0.117420	0.962850	0.387259	-0.921855	-0.014617	0.889325	0.369318	0.269641
29374	9.403922	-0.166838	2.629372	-0.001201	0.005035	0.005805	-0.243194	-0.117425	0.962844	0.387265	-0.921853	-0.014611	0.889315	0.369323	0.269664
29375	9.419652	-0.118780	2.660499	-0.003015	0.000137	0.006807	-0.243171	-0.117422	0.962850	0.387259	-0.921855	-0.014619	0.889325	0.369317	0.269641
29376	9.397253	-0.144357	2.595502	-0.001950	0.003812	0.007487	-0.243177	-0.117439	0.962846	0.387263	-0.921853	-0.014632	0.889321	0.369317	0.269653
29377	9.439649	-0.149388	2.619466	-0.002107	0.002585	0.006306	-0.243178	-0.117440	0.962846	0.387263	-0.921853	-0.014632	0.889321	0.369316	0.269655
29378	9.406703	-0.145384	2.629197	-0.002107	0.002585	0.006306	-0.243178	-0.117441	0.962846	0.387263	-0.921853	-0.014633	0.889321	0.369316	0.269654
29379	9.373758	-0.141376	2.638927	-0.002107	0.002585	0.006306	-0.243177	-0.117442	0.962846	0.387263	-0.921853	-0.014634	0.889321	0.369316	0.269654
29380	9.416202	-0.146323	2.662715	-0.001186	0.000010	0.005725	-0.243156	-0.117428	0.962853	0.387269	-0.921851	-0.014628	0.889324	0.369326	0.269629
29381	9.418148	-0.149725	2.608415	-0.003183	0.003933	0.005705	-0.243169	-0.117430	0.962849	0.387260	-0.921855	-0.014628	0.889325	0.369316	0.269642
29382	9.430778	-0.125847	2.640736	0.000957	0.002337	0.007005	-0.243163	-0.117437	0.962850	0.387288	-0.921843	-0.014627	0.889314	0.369344	0.269640
29383	9.385112	-0.146338	2.618436	-0.005168	0.002832	0.005605	-0.243167	-0.117433	0.962850	0.387260	-0.921855	-0.014630	0.889325	0.369315	0.269642
29384	9.406245	-0.149058	2.630633	0.000630	0.004906	0.004723	-0.243193	-0.117428	0.962844	0.387280	-0.921846	-0.014609	0.889309	0.369337	0.269664
29385	9.373269	-0.144928	2.640469	-0.002105	0.002584	0.006305	-0.243190	-0.117427	0.962845	0.387279	-0.921847	-0.014610	0.889311	0.369336	0.269661
29386	9.409205	-0.126016	2.629974	-0.001186	0.000009	0.005724	-0.243168	-0.117413	0.962852	0.387285	-0.921844	-0.014604	0.889314	0.369347	0.269636
29387	9.421069	-0.201371	2.645319	-0.002105	0.002584	0.006305	-0.243163	-0.117417	0.962852	0.387287	-0.921843	-0.014609	0.889314	0.369348	0.269633
29388	9.409106	-0.127145	2.630272	-0.000435	0.001231	0.004043	-0.243159	-0.117392	0.962856	0.387296	-0.921840	-0.014584	0.889312	0.369364	0.269620
29389	9.424044	-0.178210	2.644607	-0.003181	0.003932	0.005704	-0.243173	-0.117393	0.962853	0.387285	-0.921845	-0.014582	0.889313	0.369353	0.269632
29390	9.397379	-0.125715	2.651896	-0.000266	-0.002567	0.005143	-0.243131	-0.117364	0.962867	0.387299	-0.921839	-0.014567	0.889318	0.369375	0.269583
29391	9.417477	-0.155428	2.610505	-0.004258	0.005280	0.005104	-0.243159	-0.117364	0.962860	0.387277	-0.921848	-0.014563	0.889320	0.369352	0.269608
29392	9.384495	-0.151445	2.620356	-0.003931	0.002709	0.007385	-0.243155	-0.117376	0.962860	0.387263	-0.921854	-0.014580	0.889327	0.369335	0.269609
29393	9.426909	-0.156558	2.644218	-0.001027	0.001234	0.006904	-0.243138	-0.117379	0.962864	0.387275	-0.921849	-0.014586	0.889327	0.369347	0.269594
29394	9.384356	-0.152894	2.620771	-0.001945	0.003809	0.007484	-0.243143	-0.117395	0.962860	0.387279	-0.921847	-0.014598	0.889323	0.369346	0.269605
29395	9.418246	-0.131245	2.664889	-0.002261	0.001356	0.005123	-0.243137	-0.117381	0.962864	0.387275	-0.921849	-0.014588	0.889327	0.369346	0.269594
29396	9.405455	-0.156395	2.633029	-0.000868	0.002459	0.008084	-0.243128	-0.117398	0.962864	0.387290	-0.921842	-0.014603	0.889323	0.369357	0.269593
29397	9.375651	-0.128257	2.641565	-0.004088	0.001482	0.006204	-0.243115	-0.117394	0.962867	0.387272	-0.921850	-0.014610	0.889334	0.369340	0.269579
29398	9.438193	-0.162500	2.623928	-0.005164	0.002831	0.005603	-0.243119	-0.117389	0.962867	0.387243	-0.921862	-0.014613	0.889346	0.369311	0.269580
29399	9.396778	-0.131813	2.653728	0.000051	-0.000116	0.007504	-0.243090	-0.117392	0.962874	0.387266	-0.921852	-0.014621	0.889344	0.369334	0.269555
29400	9.414843	-0.158801	2.666802	-0.000275	0.002455	0.005223	-0.243092	-0.117383	0.962875	0.387279	-0.921847	-0.014606	0.889338	0.369350	0.269554
29401	9.387063	-0.133205	2.620905	-0.000274	0.002455	0.005222	-0.243097	-0.117374	0.962874	0.387293	-0.921841	-0.014592	0.889330	0.369368	0.269555
29402	9.408224	-0.135913	2.632989	-0.003336	0.002704	0.004522	-0.243105	-0.117359	0.962874	0.387278	-0.921848	-0.014579	0.889335	0.369355	0.269556
29403	9.405029	-0.160694	2.634291	-0.001025	0.001232	0.006903	-0.243089	-0.117361	0.962878	0.387289	-0.921843	-0.014584	0.889334	0.369367	0.269543
29404	9.396438	-0.134714	2.654788	-0.003018	0.005156	0.006883	-0.243109	-0.117376	0.962871	0.387282	-0.921846	-0.014593	0.889331	0.369355	0.269567
29405	9.417611	-0.137516	2.666815	-0.001342	-0.001220	0.004542	-0.243084	-0.117349	0.962881	0.387286	-0.921844	-0.014575	0.889337	0.369367	0.269533
29406	9.398313	-0.138874	2.600799	-0.007587	0.007983	0.009623	-0.243118	-0.117400	0.962866	0.387245	-0.921861	-0.014623	0.889345	0.369310	0.269584
29407	9.398206	-0.139486	2.601154	0.004297	-0.000374	0.002481	-0.243106	-0.117356	0.962874	0.387293	-0.921841	-0.014571	0.889327	0.369373	0.269556
29408	9.399259	-0.112957	2.654682	-0.001940	0.003806	0.007483	-0.243111	-0.117372	0.962871	0.387297	-0.921840	-0.014583	0.889324	0.369372	0.269568
29409	9.374776	-0.135541	2.644307	-0.001349	0.003803	0.004622	-0.243128	-0.117364	0.962868	0.387302	-0.921838	-0.014568	0.889318	0.369378	0.269580
29410	9.428799	-0.143039	2.646921	-0.001024	0.001231	0.006902	-0.243113	-0.117366	0.962871	0.387312	-0.921833	-0.014572	0.889317	0.369389	0.269567
29411	9.392693	-0.163138	2.657798	-0.001189	0.005028	0.005802	-0.243137	-0.117373	0.962865	0.387321	-0.921830	-0.014567	0.889307	0.369396	0.269592
29412	9.428596	-0.144424	2.647570	-0.002690	0.002582	0.009162	-0.243125	-0.117400	0.962864	0.387322	-0.921829	-0.014597	0.889310	0.369390	0.269591
29413	9.395701	-0.140405	2.657098	-0.001342	-0.001220	0.004541	-0.243097	-0.117370	0.962875	0.387324	-0.921829	-0.014579	0.889317	0.369400	0.269554
29414	9.410392	-0.119503	2.634980	-0.007582	0.007982	0.009621	-0.243131	-0.117421	0.962860	0.387283	-0.921845	-0.014627	0.889325	0.369343	0.269605
29415	9.382742	-0.166410	2.625720	0.000644	-0.000122	0.004641	-0.243111	-0.117397	0.962868	0.387303	-0.921837	-0.014605	0.889322	0.369371	0.269577
29416	9.385837	-0.142887	2.624783	-0.003764	0.003931	0.008561	-0.243114	-0.117424	0.962864	0.387294	-0.921840	-0.014633	0.889325	0.369354	0.269589
29417	9.421768	-0.124129	2.614505	-0.000271	0.002452	0.005221	-0.243117	-0.117417	0.962864	0.387309	-0.921834	-0.014620	0.889317	0.369372	0.269590
29418	9.385652	-0.144212	2.625372	-0.001937	0.003804	0.007481	-0.243123	-0.117433	0.962861	0.387313	-0.921832	-0.014632	0.889314	0.369371	0.269602
29419	9.442829	-0.127635	2.626892	-0.002257	0.001354	0.005120	-0.243117	-0.117418	0.962864	0.387309	-0.921834	-0.014622	0.889318	0.369371	0.269591
29420	9.385518	-0.145376	2.625788	-0.000271	0.002452	0.005221	-0.243119	-0.117409	0.962865	0.387322	-0.921829	-0.014608	0.889311	0.369387	0.269589
29421	9.409879	-0.124055	2.636597	-0.004994	-0.000968	0.006699	-0.243087	-0.117400	0.962874	0.387297	-0.921839	-0.014620	0.889331	0.369365	0.269555
29422	9.406616	-0.149021	2.638018	-0.003925	0.007727	0.007460	-0.243127	-0.117430	0.962860	0.387283	-0.921844	-0.014637	0.889326	0.369341	0.269604
29423	9.394898	-0.147168	2.659572	-0.000267	-0.002571	0.005140	-0.243087	-0.117405	0.962873	0.387300	-0.921838	-0.014624	0.889330	0.369366	0.269558
29424	9.406515	-0.150082	2.638319	-0.002580	0.003926	0.002840	-0.243111	-0.117379	0.962870	0.387287	-0.921844	-0.014593	0.889329	0.369359	0.269570
29425	9.421250	-0.128907	2.616138	-0.001021	0.001228	0.006900	-0.243097	-0.117380	0.962874	0.387298	-0.921839	-0.014597	0.889328	0.369371	0.269558
29426	9.418021	-0.153751	2.617422	-0.002095	0.002577	0.006300	-0.243097	-0.117381	0.962874	0.387298	-0.921839	-0.014598	0.889328	0.369370	0.269558
29427	9.388250	-0.125474	2.626012	-0.002095	0.002577	0.006300	-0.243097	-0.117381	0.962874	0.387297	-0.921839	-0.014598	0.889328	0.369369	0.269558
29428	9.427463	-0.154945	2.651008	-0.001610	0.001228	0.009760	-0.243071	-0.117409	0.962877	0.387309	-0.921834	-0.014631	0.889330	0.369375	0.269544
29429	9.373328	-0.148637	2.648730	-0.003491	0.001478	0.003339	-0.243074	-0.117378	0.962880	0.387289	-0.921843	-0.014606	0.889338	0.369363	0.269535
29430	9.409276	-0.129838	2.638472	-0.001772	0.005025	0.008660	-0.243086	-0.117409	0.962873	0.387297	-0.921839	-0.014629	0.889331	0.369362	0.269559
29431	9.417664	-0.157170	2.618503	-0.002416	0.000128	0.003939	-0.243073	-0.117380	0.962880	0.387289	-0.921842	-0.014608	0.889338	0.369362	0.269535
29432	9.391116	-0.104596	2.625875	-0.002094	0.002576	0.006299	-0.243072	-0.117381	0.962880	0.387289	-0.921843	-0.014610	0.889339	0.369362	0.269535
29433	9.414379	-0.182486	2.619911	-0.002255	0.001352	0.005119	-0.243063	-0.117363	0.962884	0.387283	-0.921845	-0.014599	0.889344	0.369360	0.269519
29434	9.376139	-0.127498	2.648773	-0.003006	0.005150	0.006879	-0.243083	-0.117379	0.962877	0.387276	-0.921848	-0.014608	0.889341	0.369348	0.269544
29435	9.438574	-0.161881	2.631330	-0.002093	0.002576	0.006299	-0.243083	-0.117380	0.962877	0.387276	-0.921848	-0.014609	0.889341	0.369348	0.269544
29436	9.375952	-0.128830	2.649371	-0.002093	0.002576	0.006299	-0.243082	-0.117381	0.962877	0.387276	-0.921848	-0.014610	0.889342	0.369347	0.269543
29437	9.420369	-0.136728	2.618912	-0.003167	0.003926	0.005698	-0.243096	-0.117382	0.962874	0.387266	-0.921852	-0.014609	0.889342	0.369336	0.269556
29438	9.395868	-0.159283	2.608451	-0.002092	0.002575	0.006298	-0.243095	-0.117383	0.962874	0.387265	-0.921853	-0.014610	0.889343	0.369336	0.269556
29439	9.408521	-0.135470	2.640880	-0.001179	0.005022	0.005799	-0.243117	-0.117387	0.962868	0.387271	-0.921850	-0.014603	0.889334	0.369341	0.269578
29440	9.438135	-0.165011	2.632713	-0.003166	-0.001096	0.005617	-0.243086	-0.117368	0.962878	0.387259	-0.921855	-0.014601	0.889348	0.369334	0.269542
29441	9.387214	-0.134505	2.629269	-0.003917	0.002701	0.007377	-0.243083	-0.117380	0.962877	0.387247	-0.921860	-0.014617	0.889354	0.369318	0.269544
29442	9.420000	-0.139997	2.620067	-0.002091	0.002574	0.006298	-0.243083	-0.117380	0.962877	0.387246	-0.921860	-0.014618	0.889354	0.369317	0.269543
29443	9.383845	-0.160037	2.630910	-0.003165	0.003925	0.005697	-0.243096	-0.117385	0.962873	0.387239	-0.921863	-0.014619	0.889354	0.369308	0.269557
29444	9.423060	-0.117135	2.619398	-0.001930	-0.001223	0.007397	-0.243057	-0.117382	0.962884	0.387243	-0.921862	-0.014631	0.889363	0.369313	0.269520
29445	9.398604	-0.139720	2.608742	-0.000104	0.003671	0.006399	-0.243065	-0.117390	0.962881	0.387262	-0.921853	-0.014629	0.889352	0.369332	0.269531
29446	9.386904	-0.137717	2.630208	0.003707	-0.000381	0.005342	-0.243042	-0.117371	0.962889	0.387311	-0.921833	-0.014605	0.889337	0.369388	0.269503
29447	9.411251	-0.116309	2.641208	-0.004237	0.005275	0.005096	-0.243070	-0.117369	0.962882	0.387288	-0.921843	-0.014599	0.889339	0.369364	0.269528
29448	9.419618	-0.143650	2.621244	-0.003003	0.000127	0.006796	-0.243046	-0.117365	0.962888	0.387281	-0.921846	-0.014608	0.889349	0.369358	0.269504
29449	9.399477	-0.115215	2.662895	-0.003914	0.002700	0.007375	-0.243041	-0.117374	0.962888	0.387266	-0.921852	-0.014623	0.889357	0.369340	0.269503
29450	9.395087	-0.167044	2.610778	-0.001016	0.001223	0.006897	-0.243026	-0.117376	0.962892	0.387276	-0.921848	-0.014627	0.889357	0.369351	0.269490
29451	9.429013	-0.145579	2.654904	-0.002089	0.002573	0.006297	-0.243024	-0.117372	0.962893	0.387273	-0.921849	-0.014626	0.889359	0.369348	0.269486
29452	9.386543	-0.141625	2.631289	-0.001178	-0.000001	0.005717	-0.243002	-0.117358	0.962900	0.387279	-0.921847	-0.014619	0.889362	0.369359	0.269461
29453	9.404484	-0.168678	2.644428	-0.003162	0.003924	0.005696	-0.243016	-0.117359	0.962897	0.387269	-0.921851	-0.014617	0.889363	0.369348	0.269474
29454	9.398077	-0.145246	2.610339	0.000647	-0.000128	0.004639	-0.242998	-0.117334	0.962904	0.387289	-0.921843	-0.014595	0.889359	0.369375	0.269448
29455	9.431989	-0.123777	2.654532	-0.004823	0.005273	0.007954	-0.243015	-0.117359	0.962897	0.387268	-0.921851	-0.014618	0.889364	0.369347	0.269473
29456	9.376710	-0.144325	2.598952	-0.001177	-0.000002	0.005717	-0.242993	-0.117345	0.962904	0.387274	-0.921849	-0.014611	0.889367	0.369357	0.269448
29457	9.395787	-0.144421	2.665427	-0.003323	0.002700	0.004516	-0.242999	-0.117329	0.962905	0.387258	-0.921856	-0.014598	0.889372	0.369345	0.269447
29458	9.428572	-0.149802	2.656234	-0.002087	0.002572	0.006296	-0.242998	-0.117330	0.962905	0.387258	-0.921856	-0.014600	0.889372	0.369345	0.269446
29459	9.397711	-0.148356	2.611479	-0.000100	0.003668	0.006398	-0.243008	-0.117332	0.962902	0.387273	-0.921849	-0.014594	0.889363	0.369360	0.269456
29460	9.397589	-0.148946	2.611887	-0.001172	0.005019	0.005797	-0.243031	-0.117337	0.962896	0.387280	-0.921847	-0.014587	0.889354	0.369365	0.269480
29461	9.382768	-0.098959	2.598018	-0.001928	-0.001226	0.007394	-0.242989	-0.117334	0.962906	0.387284	-0.921845	-0.014600	0.889363	0.369371	0.269440
29462	9.407023	-0.150058	2.645426	-0.004232	0.005273	0.005095	-0.243017	-0.117334	0.962899	0.387262	-0.921854	-0.014595	0.889365	0.369347	0.269466
29463	9.406913	-0.150670	2.645780	0.000974	0.002316	0.006998	-0.243011	-0.117340	0.962900	0.387290	-0.921842	-0.014594	0.889355	0.369375	0.269462
29464	9.421707	-0.129558	2.623678	-0.001334	0.003795	0.004617	-0.243028	-0.117329	0.962897	0.387293	-0.921842	-0.014577	0.889349	0.369380	0.269474
29465	9.397179	-0.151992	2.613186	-0.002086	0.002571	0.006295	-0.243029	-0.117331	0.962897	0.387293	-0.921841	-0.014578	0.889349	0.369380	0.269476
29466	9.388677	-0.125950	2.633644	-0.002086	0.002571	0.006295	-0.243028	-0.117331	0.962897	0.387293	-0.921842	-0.014579	0.889349	0.369380	0.269475
29467	9.427799	-0.155325	2.658659	-0.002249	0.001348	0.005115	-0.243021	-0.117317	0.962901	0.387289	-0.921843	-0.014569	0.889353	0.369380	0.269463
29468	9.397000	-0.153837	2.613723	-0.001013	0.001219	0.006895	-0.243006	-0.117318	0.962904	0.387299	-0.921839	-0.014573	0.889352	0.369391	0.269449
29469	9.406467	-0.154426	2.647150	-0.006805	0.004176	0.007849	-0.243012	-0.117341	0.962900	0.387263	-0.921854	-0.014604	0.889367	0.369346	0.269463
29470	9.409607	-0.131027	2.646369	0.000975	0.002314	0.006998	-0.243006	-0.117347	0.962901	0.387291	-0.921842	-0.014603	0.889356	0.369374	0.269461
29471	9.406294	-0.155841	2.647679	-0.002084	0.002570	0.006294	-0.243005	-0.117351	0.962901	0.387294	-0.921841	-0.014606	0.889355	0.369376	0.269461
29472	9.409492	-0.132275	2.646717	-0.001176	-0.000004	0.005715	-0.242983	-0.117336	0.962908	0.387300	-0.921838	-0.014599	0.889358	0.369387	0.269436
29473	9.388243	-0.130644	2.634963	-0.003908	0.002697	0.007371	-0.242979	-0.117350	0.962907	0.387289	-0.921843	-0.014617	0.889364	0.369371	0.269437
29474	9.399842	-0.133752	2.613842	-0.000424	0.001220	0.004037	-0.242975	-0.117325	0.962911	0.387297	-0.921839	-0.014592	0.889361	0.369388	0.269424
29475	9.409314	-0.134125	2.647256	-0.001919	0.003792	0.007474	-0.242979	-0.117341	0.962908	0.387302	-0.921837	-0.014605	0.889358	0.369388	0.269434
29476	9.399658	-0.135219	2.614429	-0.002506	0.003789	0.010331	-0.242974	-0.117384	0.962904	0.387308	-0.921834	-0.014646	0.889357	0.369382	0.269445
29477	9.409128	-0.135593	2.647844	0.000164	0.001222	0.001180	-0.242983	-0.117332	0.962908	0.387316	-0.921832	-0.014590	0.889351	0.369404	0.269434
29478	9.396317	-0.160226	2.615792	0.000649	-0.000132	0.004637	-0.242965	-0.117308	0.962916	0.387336	-0.921824	-0.014568	0.889348	0.369432	0.269408
29479	9.405750	-0.160641	2.649328	-0.003897	0.007716	0.007452	-0.243004	-0.117338	0.962902	0.387323	-0.921829	-0.014586	0.889342	0.369409	0.269456
29480	9.405620	-0.161380	2.649744	-0.001010	0.001217	0.006894	-0.242989	-0.117340	0.962906	0.387333	-0.921824	-0.014590	0.889342	0.369420	0.269443
29481	9.412085	-0.113644	2.647709	-0.002246	0.001347	0.005113	-0.242980	-0.117328	0.962910	0.387332	-0.921825	-0.014583	0.889345	0.369422	0.269430
29482	9.420432	-0.140928	2.627666	-0.002082	0.002568	0.006293	-0.242980	-0.117329	0.962910	0.387331	-0.921825	-0.014584	0.889345	0.369422	0.269430
29483	9.387496	-0.136654	2.637319	-0.000258	0.002441	0.005216	-0.242980	-0.117316	0.962911	0.387343	-0.921821	-0.014568	0.889341	0.369437	0.269425
29484	9.405341	-0.163862	2.650581	-0.006799	0.004174	0.007845	-0.242987	-0.117337	0.962907	0.387304	-0.921836	-0.014597	0.889355	0.369391	0.269440
29485	9.398984	-0.140532	2.616573	-0.000422	0.001219	0.004036	-0.242985	-0.117312	0.962910	0.387313	-0.921833	-0.014571	0.889352	0.369408	0.269428
29486	9.398960	-0.140944	2.616634	-0.002410	0.000124	0.003933	-0.242972	-0.117281	0.962917	0.387305	-0.921837	-0.014550	0.889359	0.369407	0.269404
29487	9.408452	-0.141440	2.649940	-0.002668	0.002565	0.009149	-0.242961	-0.117312	0.962916	0.387310	-0.921834	-0.014582	0.889360	0.369404	0.269406
29488	9.395559	-0.166495	2.618124	-0.001328	0.003792	0.004615	-0.242977	-0.117302	0.962913	0.387312	-0.921834	-0.014565	0.889355	0.369409	0.269417
29489	9.419930	-0.145219	2.629234	-0.002080	0.002567	0.006292	-0.242975	-0.117300	0.962914	0.387310	-0.921835	-0.014565	0.889356	0.369407	0.269414
29490	9.398653	-0.143601	2.617592	-0.003903	0.002694	0.007368	-0.242971	-0.117311	0.962914	0.387296	-0.921840	-0.014581	0.889363	0.369390	0.269415
29491	9.419774	-0.146588	2.629716	-0.000256	0.002439	0.005216	-0.242974	-0.117303	0.962914	0.387311	-0.921834	-0.014568	0.889356	0.369408	0.269414
29492	9.375172	-0.139986	2.660654	-0.001430	0.002433	0.010928	-0.242954	-0.117346	0.962914	0.387328	-0.921826	-0.014612	0.889354	0.369413	0.269412
29493	9.416363	-0.172277	2.631193	-0.003481	0.001476	0.003332	-0.242954	-0.117316	0.962918	0.387309	-0.921835	-0.014589	0.889362	0.369402	0.269401
29494	9.411155	-0.121899	2.650646	0.001898	0.004754	0.006498	-0.242972	-0.117327	0.962912	0.387344	-0.921820	-0.014581	0.889342	0.369436	0.269422
29495	9.440637	-0.151400	2.642650	-0.001492	0.002570	0.003435	-0.242981	-0.117298	0.962913	0.387341	-0.921822	-0.014551	0.889341	0.369440	0.269419
29496	9.383228	-0.168932	2.641482	-0.003901	0.002694	0.007367	-0.242977	-0.117309	0.962913	0.387327	-0.921827	-0.014568	0.889348	0.369422	0.269420
29497	9.419286	-0.150355	2.631249	-0.002078	0.002566	0.006291	-0.242977	-0.117310	0.962913	0.387327	-0.921827	-0.014569	0.889348	0.369422	0.269420
29498	9.361875	-0.167878	2.630076	-0.003314	0.002697	0.004511	-0.242984	-0.117295	0.962913	0.387312	-0.921834	-0.014556	0.889353	0.369410	0.269421
29499	9.410727	-0.124875	2.652025	-0.001912	0.003787	0.007470	-0.242990	-0.117313	0.962909	0.387318	-0.921831	-0.014569	0.889349	0.369412	0.269433
29500	9.418988	-0.152165	2.632212	-0.002396	0.005142	0.004014	-0.243021	-0.117302	0.962902	0.387309	-0.921835	-0.014549	0.889344	0.369405	0.269457
29501	9.389285	-0.123782	2.640963	-0.000675	0.003655	0.009250	-0.243017	-0.117332	0.962900	0.387327	-0.921827	-0.014573	0.889337	0.369415	0.269465
29502	9.418802	-0.153491	2.632799	-0.002409	0.000123	0.003931	-0.243004	-0.117301	0.962907	0.387318	-0.921831	-0.014552	0.889345	0.369415	0.269441
29503	9.404075	-0.103414	2.619144	-0.003885	0.007711	0.007448	-0.243044	-0.117330	0.962893	0.387303	-0.921837	-0.014568	0.889340	0.369391	0.269490
29504	9.418545	-0.154903	2.633637	-0.000840	0.002433	0.008070	-0.243035	-0.117347	0.962893	0.387318	-0.921831	-0.014583	0.889336	0.369402	0.269488
29505	9.410052	-0.128897	2.654229	-0.004217	0.005269	0.005088	-0.243064	-0.117347	0.962886	0.387297	-0.921840	-0.014578	0.889337	0.369380	0.269515
29506	9.397133	-0.153776	2.622470	-0.003313	0.002696	0.004510	-0.243072	-0.117332	0.962886	0.387282	-0.921846	-0.014565	0.889342	0.369368	0.269515
29507	9.400346	-0.130261	2.621658	-0.003898	0.002691	0.007365	-0.243066	-0.117341	0.962886	0.387267	-0.921852	-0.014581	0.889350	0.369350	0.269513
29508	9.421474	-0.133431	2.633729	0.000231	0.001079	0.008671	-0.243043	-0.117358	0.962890	0.387293	-0.921841	-0.014599	0.889345	0.369372	0.269499
29509	9.375725	-0.153715	2.611226	-0.003731	0.003912	0.008544	-0.243044	-0.117387	0.962886	0.387286	-0.921844	-0.014628	0.889348	0.369357	0.269510
29510	9.433009	-0.137482	2.612855	-0.002408	0.000123	0.003931	-0.243030	-0.117357	0.962893	0.387277	-0.921848	-0.014607	0.889355	0.369356	0.269486
29511	9.385132	-0.154765	2.644723	-0.002075	0.002563	0.006289	-0.243029	-0.117361	0.962893	0.387279	-0.921847	-0.014611	0.889355	0.369358	0.269486
29512	9.412843	-0.109384	2.654752	-0.003311	0.002696	0.004509	-0.243036	-0.117345	0.962893	0.387264	-0.921853	-0.014598	0.889359	0.369346	0.269487
29513	9.399925	-0.134170	2.622972	0.000667	0.004881	0.004717	-0.243059	-0.117340	0.962888	0.387284	-0.921845	-0.014577	0.889344	0.369368	0.269506
29514	9.409328	-0.134556	2.656512	-0.002074	0.002563	0.006289	-0.243058	-0.117340	0.962888	0.387284	-0.921845	-0.014578	0.889345	0.369368	0.269506
29515	9.417640	-0.161910	2.636451	-0.001004	0.001210	0.006890	-0.243041	-0.117340	0.962893	0.387294	-0.921841	-0.014581	0.889345	0.369378	0.269490
29516	9.366845	-0.131111	2.633052	0.000985	0.002302	0.006994	-0.243035	-0.117346	0.962894	0.387322	-0.921829	-0.014581	0.889334	0.369407	0.269487
29517	9.430375	-0.138798	2.668803	-0.001338	-0.001230	0.004531	-0.243007	-0.117315	0.962904	0.387324	-0.921829	-0.014562	0.889341	0.369417	0.269450
29518	9.372247	-0.110681	2.577739	-0.001154	0.005008	0.005792	-0.243030	-0.117320	0.962898	0.387331	-0.921826	-0.014556	0.889332	0.369422	0.269473
29519	9.420700	-0.140083	2.636152	-0.005132	0.002823	0.005583	-0.243036	-0.117313	0.962897	0.387300	-0.921839	-0.014556	0.889344	0.369393	0.269475
29520	9.407840	-0.165000	2.604131	0.001888	-0.000271	0.006415	-0.243009	-0.117304	0.962905	0.387335	-0.921824	-0.014547	0.889336	0.369432	0.269448
29521	9.406065	-0.090575	2.622369	-0.002073	0.002562	0.006288	-0.243007	-0.117305	0.962906	0.387335	-0.921824	-0.014549	0.889336	0.369432	0.269446
29522	9.402234	-0.187664	2.660007	-0.000250	0.002434	0.005213	-0.243009	-0.117295	0.962906	0.387349	-0.921819	-0.014534	0.889330	0.369448	0.269444
29523	9.412109	-0.115742	2.657082	-0.002072	0.002562	0.006288	-0.243010	-0.117295	0.962906	0.387348	-0.921819	-0.014534	0.889330	0.369448	0.269445
29524	9.410875	-0.143209	2.603953	-0.003141	0.003915	0.005687	-0.243024	-0.117295	0.962903	0.387337	-0.921824	-0.014532	0.889331	0.369436	0.269457
29525	9.390760	-0.114629	2.645719	-0.001003	0.001208	0.006888	-0.243008	-0.117296	0.962906	0.387349	-0.921819	-0.014536	0.889330	0.369448	0.269444
29526	9.399026	-0.141955	2.625781	-0.004209	0.005267	0.005086	-0.243036	-0.117296	0.962899	0.387326	-0.921828	-0.014531	0.889332	0.369425	0.269469
29527	9.402211	-0.118224	2.625201	0.002493	0.004750	0.003642	-0.243067	-0.117279	0.962894	0.387360	-0.921815	-0.014493	0.889309	0.369464	0.269492
29528	9.428353	-0.171909	2.618153	-0.004228	0.000250	0.005003	-0.243050	-0.117259	0.962900	0.387338	-0.921824	-0.014488	0.889323	0.369446	0.269469
29529	9.392600	-0.119401	2.592369	-0.002071	0.002561	0.006287	-0.243046	-0.117262	0.962901	0.387339	-0.921823	-0.014491	0.889324	0.369447	0.269466
29530	9.404867	-0.168032	2.661089	-0.000249	0.002433	0.005213	-0.243048	-0.117252	0.962902	0.387353	-0.921818	-0.014477	0.889317	0.369464	0.269464
29531	9.365747	-0.139692	2.636515	-0.001903	0.003780	0.007466	-0.243055	-0.117268	0.962898	0.387357	-0.921816	-0.014488	0.889313	0.369464	0.269477
29532	9.401809	-0.121200	2.626503	-0.002971	0.005133	0.006865	-0.243075	-0.117284	0.962891	0.387351	-0.921819	-0.014497	0.889311	0.369452	0.269501
29533	9.416236	-0.172479	2.640793	0.002641	0.000951	0.004739	-0.243066	-0.117262	0.962896	0.387387	-0.921804	-0.014469	0.889297	0.369497	0.269485
29534	9.422804	-0.124928	2.639000	-0.008434	0.005516	0.010087	-0.243077	-0.117309	0.962887	0.387340	-0.921823	-0.014523	0.889315	0.369434	0.269512
29535	9.419325	-0.149816	2.640525	0.002495	0.004749	0.003642	-0.243106	-0.117294	0.962882	0.387375	-0.921809	-0.014487	0.889292	0.369474	0.269534
29536	9.398081	-0.147830	2.628838	-0.001169	-0.000013	0.005708	-0.243084	-0.117279	0.962889	0.387381	-0.921806	-0.014480	0.889295	0.369485	0.269509
29537	9.409739	-0.151060	2.607611	-0.002822	0.001334	0.007961	-0.243066	-0.117292	0.962892	0.387380	-0.921806	-0.014500	0.889301	0.369481	0.269497
29538	9.401317	-0.125076	2.628084	-0.000079	0.003651	0.006391	-0.243075	-0.117298	0.962889	0.387398	-0.921799	-0.014497	0.889291	0.369497	0.269507
29539	9.409555	-0.152316	2.608203	-0.004374	0.004047	0.003905	-0.243099	-0.117282	0.962885	0.387372	-0.921810	-0.014480	0.889295	0.369474	0.269523
29540	9.394466	-0.174466	2.630716	-0.001169	-0.000013	0.005708	-0.243077	-0.117268	0.962892	0.387378	-0.921807	-0.014473	0.889298	0.369485	0.269497
29541	9.410577	-0.126615	2.662008	-0.003136	0.003912	0.005684	-0.243093	-0.117270	0.962888	0.387369	-0.921811	-0.014471	0.889298	0.369475	0.269512
29542	9.418828	-0.153803	2.642068	-0.001484	0.002566	0.003432	-0.243103	-0.117244	0.962889	0.387367	-0.921813	-0.014443	0.889296	0.369480	0.269512
29543	9.400996	-0.127650	2.629109	-0.000269	-0.002586	0.005129	-0.243057	-0.117214	0.962904	0.387379	-0.921808	-0.014429	0.889304	0.369502	0.269458
29544	9.409278	-0.155007	2.609042	-0.002798	0.006350	0.008042	-0.243083	-0.117245	0.962894	0.387377	-0.921808	-0.014449	0.889297	0.369491	0.269493
29545	9.367954	-0.124014	2.639063	-0.000246	0.002430	0.005211	-0.243087	-0.117235	0.962894	0.387391	-0.921802	-0.014434	0.889290	0.369508	0.269494
29546	9.439714	-0.158534	2.654864	-0.003135	0.003912	0.005684	-0.243100	-0.117235	0.962891	0.387380	-0.921807	-0.014432	0.889291	0.369496	0.269506
29547	9.388941	-0.127622	2.651575	-0.002067	0.002558	0.006285	-0.243101	-0.117237	0.962890	0.387381	-0.921807	-0.014433	0.889291	0.369497	0.269507
29548	9.421705	-0.133291	2.642515	-0.004955	0.004040	0.006757	-0.243112	-0.117247	0.962886	0.387356	-0.921817	-0.014446	0.889299	0.369468	0.269521
29549	9.387593	-0.155820	2.598793	-0.000076	0.003648	0.006390	-0.243119	-0.117256	0.962883	0.387377	-0.921808	-0.014445	0.889288	0.369487	0.269531
29550	9.403692	-0.108013	2.630208	-0.002066	0.002558	0.006284	-0.243118	-0.117257	0.962883	0.387377	-0.921808	-0.014446	0.889288	0.369487	0.269531
29551	9.403052	-0.181065	2.666642	-0.002989	0.000113	0.006780	-0.243092	-0.117252	0.962891	0.387369	-0.921811	-0.014454	0.889298	0.369481	0.269504
29552	9.388507	-0.130946	2.652950	-0.002210	0.006355	0.005188	-0.243129	-0.117256	0.962881	0.387365	-0.921813	-0.014445	0.889290	0.369474	0.269540
29553	9.420098	-0.163317	2.590558	-0.002066	0.002557	0.006284	-0.243128	-0.117259	0.962881	0.387367	-0.921813	-0.014447	0.889290	0.369475	0.269540
29554	9.399997	-0.134658	2.632327	-0.003302	0.002692	0.004504	-0.243135	-0.117243	0.962881	0.387351	-0.921819	-0.014434	0.889294	0.369464	0.269541
29555	9.390432	-0.135323	2.599432	-0.003132	0.003911	0.005683	-0.243146	-0.117245	0.962878	0.387342	-0.921823	-0.014434	0.889295	0.369453	0.269551
29556	9.420992	-0.138237	2.644799	-0.002235	0.001338	0.005105	-0.243139	-0.117230	0.962881	0.387337	-0.921825	-0.014424	0.889299	0.369453	0.269539
29557	9.390281	-0.136476	2.599917	-0.003132	0.003910	0.005682	-0.243150	-0.117233	0.962878	0.387328	-0.921829	-0.014425	0.889300	0.369443	0.269550
29558	9.399689	-0.137043	2.633304	-0.002988	0.000112	0.006779	-0.243125	-0.117229	0.962885	0.387321	-0.921832	-0.014433	0.889310	0.369437	0.269526
29559	9.399648	-0.137716	2.633416	0.000993	0.002292	0.006990	-0.243119	-0.117236	0.962886	0.387352	-0.921819	-0.014434	0.889298	0.369466	0.269524
29560	9.399573	-0.138428	2.633648	-0.003884	0.002684	0.007356	-0.243115	-0.117247	0.962885	0.387338	-0.921825	-0.014450	0.889306	0.369449	0.269524
29561	9.378317	-0.136747	2.622013	0.001164	0.003509	0.008169	-0.243115	-0.117267	0.962883	0.387370	-0.921811	-0.014460	0.889292	0.369477	0.269532
29562	9.432229	-0.144935	2.624935	-0.004951	0.004038	0.006754	-0.243125	-0.117278	0.962879	0.387346	-0.921821	-0.014473	0.889299	0.369448	0.269545
29563	9.389827	-0.140756	2.601327	-0.000996	0.001201	0.006884	-0.243108	-0.117277	0.962883	0.387356	-0.921817	-0.014476	0.889300	0.369459	0.269529
29564	9.416984	-0.167829	2.647781	-0.002376	0.005135	0.004008	-0.243139	-0.117266	0.962877	0.387347	-0.921821	-0.014456	0.889295	0.369453	0.269553
29565	9.393058	-0.117744	2.600774	-0.001920	-0.001243	0.007379	-0.243098	-0.117264	0.962888	0.387352	-0.921818	-0.014468	0.889304	0.369459	0.269514
29566	9.431905	-0.147582	2.625955	-0.003855	0.007698	0.007438	-0.243138	-0.117294	0.962874	0.387339	-0.921824	-0.014485	0.889299	0.369436	0.269563
29567	9.401206	-0.145858	2.581061	-0.000270	-0.002589	0.005127	-0.243095	-0.117263	0.962888	0.387351	-0.921819	-0.014469	0.889305	0.369458	0.269512
29568	9.387228	-0.141225	2.656943	-0.004195	0.005263	0.005080	-0.243123	-0.117263	0.962881	0.387329	-0.921828	-0.014464	0.889307	0.369435	0.269537
29569	9.410501	-0.146906	2.614804	-0.000071	0.003644	0.006388	-0.243156	-0.117381	0.962859	0.387305	-0.921837	-0.014572	0.889309	0.369376	0.269613
29570	9.402098	-0.120830	2.635345	-0.002062	0.002554	0.006282	-0.243155	-0.117382	0.962859	0.387304	-0.921837	-0.014573	0.889309	0.369376	0.269612
29571	9.385754	-0.169975	2.604541	-0.001720	0.004989	0.008639	-0.243167	-0.117412	0.962852	0.387312	-0.921833	-0.014595	0.889303	0.369375	0.269634
29572	9.398524	-0.146382	2.636959	-0.002403	0.000119	0.003924	-0.243154	-0.117381	0.962859	0.387303	-0.921837	-0.014574	0.889310	0.369375	0.269610
29573	9.410131	-0.149557	2.615984	-0.002785	0.006343	0.008038	-0.243182	-0.117413	0.962848	0.387302	-0.921837	-0.014593	0.889303	0.369364	0.269649
29574	9.413466	-0.126061	2.615135	-0.000270	-0.002590	0.005126	-0.243140	-0.117384	0.962862	0.387315	-0.921832	-0.014578	0.889309	0.369386	0.269599
29575	9.409996	-0.150862	2.616395	-0.003850	0.007697	0.007436	-0.243181	-0.117411	0.962849	0.387299	-0.921838	-0.014593	0.889304	0.369362	0.269646
29576	9.401580	-0.124912	2.637000	0.000072	-0.000156	0.007483	-0.243151	-0.117413	0.962856	0.387321	-0.921829	-0.014599	0.889303	0.369385	0.269620
29577	9.401523	-0.125571	2.637175	-0.003126	0.003908	0.005680	-0.243164	-0.117416	0.962852	0.387313	-0.921833	-0.014599	0.889303	0.369375	0.269634
29578	9.385164	-0.174563	2.606361	-0.000069	0.003641	0.006388	-0.243173	-0.117421	0.962850	0.387331	-0.921825	-0.014596	0.889293	0.369392	0.269644
29579	9.416429	-0.105271	2.615528	-0.003879	0.002681	0.007352	-0.243172	-0.117433	0.962848	0.387318	-0.921830	-0.014611	0.889299	0.369375	0.269647
29580	9.388410	-0.151769	2.605818	-0.002231	0.001336	0.005102	-0.243165	-0.117418	0.962852	0.387313	-0.921833	-0.014601	0.889303	0.369375	0.269635
29581	9.410636	-0.128188	2.671447	-0.000650	0.003631	0.009239	-0.243162	-0.117452	0.962848	0.387335	-0.921823	-0.014628	0.889294	0.369388	0.269646
29582	9.409428	-0.155617	2.618158	-0.002402	0.000119	0.003923	-0.243149	-0.117422	0.962856	0.387326	-0.921827	-0.014607	0.889302	0.369387	0.269622
29583	9.364754	-0.148656	2.649130	-0.003846	0.007695	0.007435	-0.243191	-0.117454	0.962841	0.387315	-0.921831	-0.014625	0.889295	0.369366	0.269673
29584	9.445455	-0.137923	2.608588	-0.002812	0.001325	0.007953	-0.243173	-0.117466	0.962844	0.387312	-0.921832	-0.014644	0.889301	0.369360	0.269660
29585	9.397404	-0.155208	2.640443	-0.000067	0.003640	0.006387	-0.243181	-0.117470	0.962842	0.387330	-0.921825	-0.014640	0.889291	0.369377	0.269670
29586	9.412419	-0.134207	2.618498	-0.000066	0.003640	0.006387	-0.243189	-0.117476	0.962839	0.387347	-0.921818	-0.014636	0.889281	0.369394	0.269680
29587	9.385481	-0.153937	2.662403	-0.001885	0.003768	0.007458	-0.243195	-0.117494	0.962835	0.387354	-0.921815	-0.014649	0.889277	0.369395	0.269692
29588	9.400496	-0.133152	2.640462	-0.000648	0.003629	0.009238	-0.243192	-0.117526	0.962832	0.387373	-0.921806	-0.014675	0.889269	0.369406	0.269702
29589	9.412129	-0.136348	2.619429	-0.003466	0.001473	0.003321	-0.243197	-0.117495	0.962835	0.387354	-0.921815	-0.014650	0.889276	0.369395	0.269694
29590	9.390888	-0.134485	2.607788	-0.001712	0.004983	0.008636	-0.243208	-0.117527	0.962828	0.387363	-0.921811	-0.014673	0.889269	0.369395	0.269717
29591	9.414590	-0.185899	2.655079	-0.000271	-0.002592	0.005125	-0.243164	-0.117496	0.962843	0.387375	-0.921806	-0.014658	0.889276	0.369417	0.269665
29592	9.391942	-0.108913	2.661542	-0.002195	0.006349	0.005183	-0.243201	-0.117500	0.962833	0.387371	-0.921808	-0.014648	0.889268	0.369411	0.269701
29593	9.408390	-0.162916	2.621444	-0.002056	0.002550	0.006279	-0.243197	-0.117500	0.962834	0.387371	-0.921808	-0.014650	0.889269	0.369411	0.269697
29594	9.421156	-0.139342	2.653944	-0.003121	0.003905	0.005677	-0.243210	-0.117501	0.962830	0.387360	-0.921812	-0.014648	0.889270	0.369399	0.269709
29595	9.408201	-0.164176	2.622042	-0.002056	0.002550	0.006278	-0.243208	-0.117497	0.962832	0.387357	-0.921814	-0.014647	0.889272	0.369397	0.269705
29596	9.378683	-0.135452	2.630646	0.000518	0.003648	0.003535	-0.243227	-0.117476	0.962829	0.387373	-0.921807	-0.014614	0.889260	0.369419	0.269716
29597	9.409120	-0.138478	2.676272	-0.002774	0.006337	0.008033	-0.243251	-0.117504	0.962820	0.387368	-0.921809	-0.014632	0.889255	0.369406	0.269749
29598	9.404443	-0.190154	2.624108	-0.002982	0.000107	0.006772	-0.243227	-0.117500	0.962826	0.387361	-0.921812	-0.014640	0.889265	0.369400	0.269724
29599	9.402982	-0.115829	2.642470	-0.002055	0.002549	0.006278	-0.243226	-0.117505	0.962826	0.387365	-0.921810	-0.014644	0.889263	0.369403	0.269726
29600	9.411189	-0.143104	2.622443	-0.000236	0.002421	0.005207	-0.243228	-0.117495	0.962826	0.387378	-0.921805	-0.014630	0.889257	0.369420	0.269724
29601	9.378272	-0.138564	2.631948	-0.005283	0.001602	0.004390	-0.243226	-0.117476	0.962829	0.387346	-0.921818	-0.014623	0.889271	0.369392	0.269714
29602	9.432210	-0.146737	2.634766	-0.002054	0.002549	0.006278	-0.243225	-0.117477	0.962829	0.387346	-0.921818	-0.014624	0.889272	0.369392	0.269714
29603	9.389849	-0.142358	2.611107	-0.002054	0.002549	0.006277	-0.243224	-0.117476	0.962830	0.387345	-0.921819	-0.014624	0.889273	0.369391	0.269712
29604	9.399166	-0.143067	2.644673	-0.001707	0.004980	0.008634	-0.243235	-0.117507	0.962823	0.387354	-0.921815	-0.014646	0.889266	0.369391	0.269735
29605	9.425948	-0.124793	2.601424	-0.000989	0.001193	0.006879	-0.243221	-0.117502	0.962827	0.387360	-0.921812	-0.014645	0.889267	0.369399	0.269720
29606	9.377869	-0.142120	2.633195	-0.005690	0.002805	0.008418	-0.243214	-0.117524	0.962827	0.387333	-0.921823	-0.014677	0.889281	0.369365	0.269721
29607	9.420071	-0.147945	2.657330	0.001003	0.002279	0.006986	-0.243207	-0.117531	0.962828	0.387364	-0.921810	-0.014678	0.889269	0.369395	0.269718
29608	9.392885	-0.121807	2.611387	-0.001471	0.002559	0.003427	-0.243217	-0.117506	0.962828	0.387362	-0.921811	-0.014650	0.889267	0.369400	0.269717
29609	9.404772	-0.170559	2.680011	-0.004044	0.001461	0.006169	-0.243206	-0.117502	0.962831	0.387345	-0.921818	-0.014656	0.889278	0.369383	0.269705
29610	9.404484	-0.125550	2.590492	-0.002052	0.002547	0.006277	-0.243205	-0.117503	0.962832	0.387345	-0.921818	-0.014657	0.889278	0.369383	0.269705
29611	9.410381	-0.150236	2.624943	-0.000233	0.002419	0.005206	-0.243207	-0.117494	0.962832	0.387360	-0.921812	-0.014643	0.889271	0.369401	0.269704
29612	9.398653	-0.148387	2.646203	-0.002671	-0.002478	0.009043	-0.243151	-0.117502	0.962845	0.387361	-0.921811	-0.014672	0.889286	0.369401	0.269655
29613	9.413796	-0.127566	2.624000	-0.003115	0.003903	0.005675	-0.243167	-0.117501	0.962841	0.387350	-0.921816	-0.014668	0.889286	0.369389	0.269670
29614	9.410247	-0.152343	2.625300	-0.002051	0.002547	0.006276	-0.243167	-0.117501	0.962841	0.387349	-0.921816	-0.014669	0.889286	0.369389	0.269669
29615	9.401879	-0.126247	2.645917	-0.001122	0.004989	0.005783	-0.243187	-0.117505	0.962836	0.387356	-0.921814	-0.014663	0.889278	0.369394	0.269689
29616	9.388927	-0.151063	2.613935	-0.002979	0.000104	0.006769	-0.243162	-0.117502	0.962842	0.387349	-0.921816	-0.014671	0.889288	0.369388	0.269665
29617	9.401745	-0.127550	2.646328	-0.000058	0.003633	0.006384	-0.243173	-0.117506	0.962839	0.387366	-0.921809	-0.014666	0.889277	0.369405	0.269677
29618	9.388792	-0.152363	2.614344	-0.004042	0.001460	0.006167	-0.243163	-0.117501	0.962842	0.387348	-0.921817	-0.014671	0.889288	0.369388	0.269665
29619	9.401609	-0.128859	2.646749	-0.002050	0.002546	0.006275	-0.243160	-0.117501	0.962843	0.387348	-0.921817	-0.014672	0.889289	0.369387	0.269663
29620	9.392137	-0.129537	2.613704	-0.000986	0.001190	0.006877	-0.243145	-0.117502	0.962847	0.387358	-0.921812	-0.014676	0.889288	0.369399	0.269649
29621	9.409729	-0.156868	2.626892	-0.003112	0.003902	0.005674	-0.243156	-0.117501	0.962844	0.387347	-0.921817	-0.014674	0.889291	0.369386	0.269659
29622	9.437706	-0.111750	2.637157	-0.002049	0.002546	0.006275	-0.243155	-0.117501	0.962844	0.387347	-0.921817	-0.014675	0.889291	0.369386	0.269658
29623	9.355575	-0.150344	2.624767	0.001587	0.002288	0.004136	-0.243162	-0.117478	0.962845	0.387372	-0.921807	-0.014642	0.889278	0.369419	0.269656
29624	9.401224	-0.131836	2.647970	-0.001874	0.003760	0.007453	-0.243167	-0.117494	0.962842	0.387376	-0.921805	-0.014654	0.889275	0.369419	0.269667
29625	9.403445	-0.135110	2.593782	-0.002048	0.002545	0.006275	-0.243162	-0.117491	0.962844	0.387374	-0.921806	-0.014654	0.889277	0.369417	0.269661
29626	9.412795	-0.135687	2.627181	-0.002223	0.001331	0.005097	-0.243155	-0.117477	0.962847	0.387370	-0.921808	-0.014644	0.889281	0.369417	0.269649
29627	9.391606	-0.133727	2.615402	-0.002048	0.002545	0.006275	-0.243154	-0.117475	0.962848	0.387368	-0.921809	-0.014643	0.889282	0.369416	0.269648
29628	9.425536	-0.112597	2.659868	0.003580	0.003372	0.004244	-0.243169	-0.117460	0.962846	0.387413	-0.921790	-0.014609	0.889258	0.369467	0.269656
29629	9.397346	-0.158794	2.650237	-0.003110	0.003901	0.005673	-0.243185	-0.117460	0.962842	0.387403	-0.921795	-0.014606	0.889258	0.369456	0.269671
29630	9.379637	-0.132754	2.637456	0.000078	-0.000168	0.007477	-0.243155	-0.117462	0.962849	0.387425	-0.921786	-0.014613	0.889257	0.369478	0.269644
29631	9.420725	-0.165290	2.607884	-0.002977	0.000103	0.006767	-0.243131	-0.117458	0.962855	0.387419	-0.921788	-0.014621	0.889266	0.369473	0.269621
29632	9.383035	-0.110100	2.636694	-0.001696	0.004973	0.008630	-0.243143	-0.117490	0.962849	0.387427	-0.921784	-0.014644	0.889259	0.369473	0.269644
29633	9.421699	-0.140111	2.661960	-0.002046	0.002544	0.006274	-0.243146	-0.117492	0.962848	0.387429	-0.921783	-0.014644	0.889258	0.369475	0.269647
29634	9.391092	-0.138200	2.617013	-0.002046	0.002544	0.006274	-0.243145	-0.117492	0.962848	0.387429	-0.921783	-0.014645	0.889258	0.369474	0.269647
29635	9.388692	-0.136273	2.671730	-0.002046	0.002544	0.006273	-0.243142	-0.117493	0.962849	0.387430	-0.921783	-0.014647	0.889258	0.369475	0.269644
29636	9.408559	-0.166320	2.630499	-0.003687	0.003887	0.008520	-0.243144	-0.117520	0.962845	0.387421	-0.921786	-0.014674	0.889262	0.369458	0.269657
29637	9.382643	-0.113722	2.637937	-0.001914	-0.001255	0.007367	-0.243107	-0.117517	0.962855	0.387425	-0.921784	-0.014685	0.889270	0.369464	0.269621
29638	9.433103	-0.146261	2.641651	-0.002045	0.002543	0.006273	-0.243106	-0.117517	0.962855	0.387425	-0.921784	-0.014686	0.889270	0.369464	0.269620
29639	9.403638	-0.117591	2.650311	-0.001114	0.004985	0.005780	-0.243127	-0.117522	0.962849	0.387433	-0.921781	-0.014680	0.889261	0.369470	0.269642
29640	9.390668	-0.142374	2.618311	-0.002975	0.000101	0.006765	-0.243102	-0.117518	0.962855	0.387426	-0.921784	-0.014688	0.889271	0.369464	0.269617
29641	9.421143	-0.145704	2.663625	-0.003861	0.002672	0.007342	-0.243096	-0.117525	0.962856	0.387409	-0.921791	-0.014702	0.889280	0.369445	0.269614
29642	9.390561	-0.143857	2.618614	-0.000982	0.001186	0.006874	-0.243081	-0.117526	0.962860	0.387420	-0.921786	-0.014706	0.889279	0.369457	0.269601
29643	9.403381	-0.120440	2.651094	-0.004923	0.004028	0.006740	-0.243088	-0.117537	0.962857	0.387396	-0.921796	-0.014720	0.889288	0.369429	0.269611
29644	9.426763	-0.126154	2.608821	-0.000403	0.001199	0.004026	-0.243084	-0.117512	0.962861	0.387405	-0.921792	-0.014695	0.889285	0.369445	0.269597
29645	9.396187	-0.169908	2.653655	-0.002753	0.006326	0.008026	-0.243109	-0.117540	0.962851	0.387402	-0.921794	-0.014713	0.889279	0.369433	0.269632
29646	9.393713	-0.122243	2.618763	-0.002396	0.000115	0.003916	-0.243096	-0.117510	0.962858	0.387393	-0.921798	-0.014692	0.889287	0.369433	0.269608
29647	9.411249	-0.149616	2.631960	-0.004745	0.005241	0.007917	-0.243112	-0.117538	0.962851	0.387375	-0.921805	-0.014718	0.889290	0.369406	0.269633
29648	9.414649	-0.126158	2.631336	-0.000226	0.002412	0.005203	-0.243114	-0.117528	0.962851	0.387388	-0.921799	-0.014704	0.889284	0.369423	0.269631
29649	9.378212	-0.145713	2.641835	-0.002042	0.002541	0.006272	-0.243112	-0.117526	0.962852	0.387387	-0.921800	-0.014703	0.889285	0.369422	0.269629
29650	9.417997	-0.103218	2.630888	-0.003104	0.003898	0.005670	-0.243126	-0.117526	0.962849	0.387377	-0.921804	-0.014701	0.889286	0.369411	0.269641
29651	9.428500	-0.178871	2.646033	-0.000981	0.001184	0.006873	-0.243108	-0.117525	0.962853	0.387386	-0.921800	-0.014704	0.889287	0.369421	0.269625
