// General information: 
//  MT Manager version: 2019.2.0 
//  XDA version: 2019.2.0 build 3853 rev 94535 built on 2019-09-09
// Device information: 
//  DeviceId: 00B44112
//  ProductCode: MTW2-3A7G6
//  Firmware Version: 4.3.5
//  Hardware Version: 1.1.0
// Device settings: 
//  Filter Profile: human(46.1)
//  Option Flags: Orientation Smoother Disabled, AHS Disabled, ICC Disabled
// Coordinate system: ENU
PacketCounter	Acc_X	Acc_Y	Acc_Z	Gyr_X	Gyr_Y	Gyr_Z	Mat[1][1]	Mat[2][1]	Mat[3][1]	Mat[1][2]	Mat[2][2]	Mat[3][2]	Mat[1][3]	Mat[2][3]	Mat[3][3]
28840	9.334863	0.035207	3.126793	-0.001124	0.001359	0.002922	0.282717	0.147955	0.947724	-0.470550	0.882369	0.002619	-0.835855	-0.446692	0.319081
28841	9.360415	0.016773	3.141453	-0.001579	0.001244	0.004389	0.282720	0.147961	0.947722	-0.470541	0.882374	0.002611	-0.835859	-0.446680	0.319086
28842	9.341261	0.010903	3.127406	-0.002566	0.001177	0.002453	0.282730	0.147950	0.947721	-0.470520	0.882385	0.002618	-0.835868	-0.446662	0.319090
28843	9.379457	0.021486	3.155840	-0.001579	0.001244	0.004389	0.282729	0.147955	0.947720	-0.470515	0.882388	0.002611	-0.835871	-0.446654	0.319092
28844	9.346537	0.012081	3.161764	-0.000352	0.003014	0.004845	0.282743	0.147973	0.947713	-0.470519	0.882386	0.002603	-0.835864	-0.446653	0.319113
28845	9.366733	-0.008532	3.142293	-0.003047	-0.002228	0.005412	0.282711	0.147973	0.947723	-0.470500	0.882396	0.002580	-0.835885	-0.446632	0.319084
28846	9.367517	0.041545	3.121699	0.000103	0.003129	0.003378	0.282733	0.147978	0.947715	-0.470504	0.882394	0.002587	-0.835876	-0.446635	0.319106
28847	9.346439	0.010856	3.162058	-0.000669	0.001474	0.001455	0.282750	0.147959	0.947713	-0.470492	0.882400	0.002609	-0.835876	-0.446629	0.319112
28848	9.360153	0.014160	3.142246	0.000987	0.000067	0.001936	0.282753	0.147938	0.947716	-0.470500	0.882396	0.002633	-0.835871	-0.446644	0.319105
28849	9.353668	0.037392	3.141923	-0.003021	0.001063	0.003920	0.282756	0.147939	0.947715	-0.470477	0.882408	0.002625	-0.835883	-0.446620	0.319108
28850	9.379263	0.018953	3.156434	0.000746	-0.001636	0.003415	0.282738	0.147924	0.947723	-0.470487	0.882403	0.002634	-0.835884	-0.446636	0.319085
28851	9.328102	0.054698	3.127341	-0.001579	0.001245	0.004389	0.282739	0.147929	0.947721	-0.470483	0.882405	0.002628	-0.835885	-0.446630	0.319089
28852	9.360112	0.012561	3.142374	-0.000592	0.001312	0.006325	0.282732	0.147952	0.947720	-0.470490	0.882402	0.002605	-0.835884	-0.446629	0.319093
28853	9.346334	0.008645	3.162374	-0.002566	0.001178	0.002453	0.282742	0.147940	0.947718	-0.470471	0.882412	0.002614	-0.835891	-0.446613	0.319097
28854	9.347328	-0.017153	3.128976	-0.001097	0.004650	0.001430	0.282786	0.147935	0.947706	-0.470459	0.882418	0.002637	-0.835883	-0.446603	0.319133
28855	9.358849	0.037113	3.176579	0.001732	-0.001569	0.005351	0.282758	0.147937	0.947714	-0.470484	0.882405	0.002631	-0.835878	-0.446628	0.319109
28856	9.359936	0.011026	3.142904	0.000849	0.001493	0.006794	0.282751	0.147965	0.947712	-0.470504	0.882394	0.002608	-0.835870	-0.446640	0.319116
28857	9.353455	0.034111	3.142596	0.000532	-0.000048	0.003403	0.282747	0.147957	0.947715	-0.470512	0.882390	0.002617	-0.835867	-0.446651	0.319108
28858	9.359896	0.010189	3.143028	-0.001579	0.001245	0.004388	0.282748	0.147963	0.947713	-0.470505	0.882394	0.002610	-0.835870	-0.446641	0.319112
28859	9.353422	0.033349	3.142700	-0.000910	-0.000229	0.002934	0.282744	0.147949	0.947717	-0.470502	0.882395	0.002619	-0.835873	-0.446643	0.319102
28860	9.353433	0.033045	3.142671	-0.002352	-0.000410	0.002465	0.282741	0.147930	0.947721	-0.470483	0.882405	0.002628	-0.835885	-0.446629	0.319091
28861	9.359906	0.008972	3.143000	-0.002275	-0.000572	0.007335	0.282714	0.147954	0.947725	-0.470476	0.882409	0.002590	-0.835898	-0.446614	0.319078
28862	9.359837	0.008511	3.143208	0.001787	0.005012	0.002368	0.282757	0.147959	0.947711	-0.470491	0.882401	0.002612	-0.835875	-0.446628	0.319118
28863	9.353303	0.031669	3.143071	0.002505	0.000086	0.007275	0.282734	0.147985	0.947714	-0.470529	0.882381	0.002591	-0.835861	-0.446659	0.319110
28864	9.367026	0.034664	3.123257	-0.001124	0.001360	0.002921	0.282744	0.147978	0.947712	-0.470521	0.882385	0.002599	-0.835862	-0.446654	0.319116
28865	9.359693	0.007212	3.143639	-0.000593	0.001312	0.006324	0.282736	0.148002	0.947711	-0.470527	0.882382	0.002576	-0.835862	-0.446651	0.319120
28866	9.378746	0.012213	3.158004	-0.001338	0.002948	0.002909	0.282759	0.148002	0.947704	-0.470517	0.882387	0.002583	-0.835859	-0.446642	0.319140
28867	9.339394	0.026384	3.163461	-0.001821	-0.000457	0.005868	0.282740	0.148014	0.947708	-0.470514	0.882389	0.002562	-0.835867	-0.446634	0.319129
28868	9.359548	0.005753	3.144075	-0.000351	0.003015	0.004845	0.282754	0.148031	0.947701	-0.470519	0.882386	0.002554	-0.835860	-0.446633	0.319150
28869	9.351977	0.054699	3.177519	0.000455	0.000114	-0.001467	0.282774	0.147980	0.947703	-0.470514	0.882389	0.002609	-0.835856	-0.446645	0.319143
28870	9.340362	-0.000170	3.130108	-0.002490	0.001017	0.007322	0.282759	0.148011	0.947702	-0.470507	0.882392	0.002571	-0.835865	-0.446628	0.319145
28871	9.353020	0.028303	3.143946	0.000531	-0.000048	0.003403	0.282754	0.148002	0.947706	-0.470512	0.882390	0.002578	-0.835864	-0.446636	0.319136
28872	9.373167	0.007897	3.124576	-0.001337	0.002948	0.002909	0.282776	0.148003	0.947699	-0.470503	0.882395	0.002585	-0.835862	-0.446626	0.319156
28873	9.352886	0.027605	3.144352	-0.001793	0.002834	0.004376	0.282791	0.148015	0.947692	-0.470497	0.882398	0.002579	-0.835860	-0.446615	0.319175
28874	9.346397	0.050768	3.144117	0.001973	0.000133	0.003872	0.282786	0.148012	0.947694	-0.470518	0.882387	0.002588	-0.835850	-0.446639	0.319169
28875	9.373029	0.006746	3.124993	0.001518	0.000019	0.005339	0.282771	0.148021	0.947697	-0.470538	0.882376	0.002580	-0.835843	-0.446657	0.319160
28876	9.346400	0.050091	3.144118	-0.000455	-0.000114	0.001467	0.282775	0.147995	0.947700	-0.470532	0.882379	0.002604	-0.835846	-0.446660	0.319151
28877	9.359214	0.002612	3.145073	-0.001019	0.004489	0.006299	0.282795	0.148032	0.947688	-0.470533	0.882379	0.002579	-0.835838	-0.446648	0.319186
28878	9.360015	0.052687	3.124652	0.000531	-0.000047	0.003403	0.282790	0.148024	0.947691	-0.470541	0.882375	0.002587	-0.835836	-0.446659	0.319178
28879	9.352741	0.025171	3.144803	-0.002063	-0.002158	0.007346	0.282749	0.148041	0.947701	-0.470535	0.882378	0.002549	-0.835853	-0.446647	0.319150
28880	9.347359	0.022628	3.110793	-0.001337	0.002949	0.002909	0.282772	0.148041	0.947694	-0.470525	0.882383	0.002556	-0.835850	-0.446637	0.319170
28881	9.371808	0.029780	3.159136	-0.000911	-0.000228	0.002934	0.282767	0.148027	0.947697	-0.470516	0.882388	0.002563	-0.835857	-0.446632	0.319160
28882	9.333576	0.018576	3.130778	-0.000911	-0.000228	0.002934	0.282763	0.148014	0.947701	-0.470511	0.882391	0.002572	-0.835862	-0.446631	0.319150
28883	9.365414	0.052648	3.158649	0.000289	-0.001750	0.004882	0.282737	0.148010	0.947709	-0.470520	0.882386	0.002565	-0.835865	-0.446641	0.319125
28884	9.333613	0.017975	3.130670	-0.001655	0.001408	-0.000482	0.282763	0.147974	0.947707	-0.470498	0.882397	0.002604	-0.835869	-0.446631	0.319130
28885	9.371837	0.028491	3.159063	0.000607	-0.000209	0.008272	0.282734	0.148008	0.947710	-0.470522	0.882385	0.002567	-0.835865	-0.446644	0.319121
28886	9.352721	0.022515	3.144882	0.000531	-0.000047	0.003403	0.282729	0.147999	0.947713	-0.470530	0.882380	0.002576	-0.835862	-0.446655	0.319113
28887	9.372831	0.002171	3.125593	-0.001094	0.004651	0.001430	0.282774	0.147994	0.947701	-0.470518	0.882386	0.002598	-0.835854	-0.446645	0.319150
28888	9.357981	0.023826	3.179262	-0.002064	-0.002158	0.007346	0.282733	0.148011	0.947710	-0.470515	0.882388	0.002561	-0.835869	-0.446636	0.319121
28889	9.366373	0.024729	3.125308	0.000318	0.001541	0.003390	0.282742	0.148010	0.947708	-0.470521	0.882385	0.002569	-0.835863	-0.446642	0.319129
28890	9.338853	0.017471	3.165120	-0.001366	-0.000342	0.004400	0.282730	0.148008	0.947712	-0.470515	0.882388	0.002562	-0.835870	-0.446637	0.319118
28891	9.366340	0.023966	3.125412	-0.001124	0.001361	0.002921	0.282739	0.148002	0.947710	-0.470508	0.882392	0.002570	-0.835871	-0.446632	0.319123
28892	9.378093	0.002036	3.159963	-0.000137	0.001427	0.004857	0.282740	0.148013	0.947708	-0.470514	0.882389	0.002562	-0.835867	-0.446635	0.319128
28893	9.327008	0.037875	3.130852	-0.002140	-0.001996	0.002477	0.282723	0.147987	0.947717	-0.470497	0.882398	0.002571	-0.835883	-0.446625	0.319102
28894	9.378135	0.001355	3.159841	0.000531	-0.000047	0.003403	0.282718	0.147979	0.947720	-0.470505	0.882394	0.002579	-0.835880	-0.446636	0.319093
28895	9.346117	0.042709	3.145070	0.000105	0.003129	0.003378	0.282740	0.147984	0.947713	-0.470511	0.882390	0.002588	-0.835869	-0.446641	0.319115
28896	9.366245	0.022287	3.125710	0.000531	-0.000047	0.003403	0.282735	0.147975	0.947715	-0.470519	0.882386	0.002597	-0.835867	-0.446652	0.319107
28897	9.371622	0.023911	3.159739	-0.001366	-0.000341	0.004400	0.282719	0.147974	0.947720	-0.470513	0.882389	0.002587	-0.835876	-0.446646	0.319092
28898	9.366214	0.021448	3.125809	-0.001792	0.002835	0.004375	0.282734	0.147987	0.947714	-0.470504	0.882394	0.002579	-0.835876	-0.446632	0.319111
28899	9.346002	0.041030	3.145434	-0.000380	-0.000275	0.006336	0.282714	0.148003	0.947717	-0.470511	0.882390	0.002557	-0.835878	-0.446634	0.319101
28900	9.372604	-0.003170	3.126272	-0.001366	-0.000341	0.004400	0.282702	0.148002	0.947721	-0.470506	0.882393	0.002550	-0.835885	-0.446629	0.319090
28901	9.365099	0.045475	3.159694	-0.001791	0.002836	0.004375	0.282716	0.148015	0.947715	-0.470494	0.882400	0.002540	-0.835887	-0.446612	0.319109
28902	9.352350	0.016105	3.146024	0.000531	-0.000047	0.003403	0.282711	0.148007	0.947718	-0.470502	0.882396	0.002549	-0.835884	-0.446623	0.319100
28903	9.359646	0.042633	3.125910	-0.000805	0.002902	0.006311	0.282715	0.148036	0.947712	-0.470508	0.882392	0.002526	-0.835879	-0.446620	0.319118
28904	9.352243	0.015184	3.146349	-0.002565	0.001181	0.002452	0.282725	0.148025	0.947710	-0.470487	0.882403	0.002534	-0.835888	-0.446602	0.319122
28905	9.366015	0.018160	3.126425	-0.003051	-0.002223	0.005410	0.282693	0.148024	0.947720	-0.470477	0.882409	0.002514	-0.835905	-0.446591	0.319092
28906	9.357636	0.016270	3.180326	0.001760	0.001721	0.003860	0.282701	0.148027	0.947717	-0.470496	0.882399	0.002522	-0.835891	-0.446610	0.319101
28907	9.352222	0.013891	3.146416	-0.001579	0.001248	0.004388	0.282701	0.148033	0.947716	-0.470488	0.882403	0.002514	-0.835896	-0.446600	0.319104
28908	9.345771	0.036986	3.146171	-0.000137	0.001427	0.004857	0.282702	0.148044	0.947715	-0.470494	0.882400	0.002507	-0.835892	-0.446603	0.319109
28909	9.377723	-0.005076	3.161058	-0.002141	-0.001995	0.002476	0.282686	0.148019	0.947723	-0.470476	0.882409	0.002516	-0.835907	-0.446593	0.319084
28910	9.345759	0.036304	3.146215	0.002990	0.003489	0.004317	0.282706	0.148034	0.947715	-0.470507	0.882392	0.002523	-0.835883	-0.446620	0.319109
28911	9.352123	0.012290	3.146718	-0.003264	-0.000634	0.005397	0.282688	0.148041	0.947719	-0.470485	0.882404	0.002499	-0.835902	-0.446594	0.319096
28912	9.371231	0.017332	3.160940	0.000774	0.001655	0.001924	0.282704	0.148027	0.947716	-0.470491	0.882401	0.002523	-0.835893	-0.446605	0.319104
28913	9.352089	0.011528	3.146822	-0.001822	-0.000454	0.005866	0.282682	0.148037	0.947721	-0.470486	0.882404	0.002500	-0.835903	-0.446596	0.319089
28914	9.364817	0.040052	3.160603	0.000531	-0.000048	0.003403	0.282678	0.148029	0.947724	-0.470493	0.882400	0.002508	-0.835900	-0.446607	0.319081
28915	9.332930	0.005344	3.132752	-0.002777	0.002770	0.002439	0.282702	0.148025	0.947717	-0.470473	0.882411	0.002517	-0.835904	-0.446587	0.319101
28916	9.345608	0.033939	3.146687	0.001517	0.000018	0.005339	0.282689	0.148034	0.947720	-0.470494	0.882399	0.002510	-0.835896	-0.446606	0.319093
28917	9.365776	0.013356	3.127167	-0.001367	-0.000340	0.004400	0.282676	0.148032	0.947724	-0.470488	0.882403	0.002502	-0.835904	-0.446600	0.319081
28918	9.352023	0.009551	3.147024	0.000531	-0.000048	0.003403	0.282671	0.148023	0.947727	-0.470496	0.882399	0.002511	-0.835901	-0.446611	0.319073
28919	9.364750	0.038225	3.160824	0.000531	-0.000047	0.003403	0.282669	0.148015	0.947729	-0.470504	0.882395	0.002521	-0.835898	-0.446622	0.319067
28920	9.365765	0.012219	3.127204	-0.000593	0.001314	0.006323	0.282662	0.148038	0.947727	-0.470510	0.882391	0.002498	-0.835896	-0.446621	0.319072
28921	9.364720	0.037311	3.160926	-0.002353	-0.000406	0.002464	0.282658	0.148020	0.947731	-0.470490	0.882402	0.002505	-0.835909	-0.446606	0.319060
28922	9.359344	0.034937	3.126909	-0.003021	0.001069	0.003918	0.282661	0.148021	0.947730	-0.470469	0.882413	0.002498	-0.835920	-0.446584	0.319063
28923	9.390195	0.018397	3.175616	-0.001123	0.001362	0.002921	0.282671	0.148015	0.947728	-0.470464	0.882416	0.002507	-0.835919	-0.446580	0.319070
28924	9.345532	0.030746	3.146946	-0.001367	-0.000340	0.004400	0.282660	0.148014	0.947732	-0.470459	0.882419	0.002500	-0.835926	-0.446575	0.319059
28925	9.372064	-0.013328	3.127864	0.000319	0.001541	0.003390	0.282667	0.148012	0.947730	-0.470460	0.882418	0.002506	-0.835923	-0.446578	0.319064
28926	9.364648	0.035399	3.161160	-0.001155	-0.001929	0.004412	0.282642	0.148004	0.947739	-0.470457	0.882419	0.002500	-0.835933	-0.446577	0.319038
28927	9.346540	0.003908	3.113332	-0.003688	0.002544	0.005372	0.282651	0.148025	0.947733	-0.470437	0.882430	0.002478	-0.835941	-0.446549	0.319056
28928	9.378386	0.037906	3.141364	0.001198	-0.001523	0.001948	0.282641	0.147997	0.947740	-0.470446	0.882425	0.002502	-0.835939	-0.446568	0.319034
28929	9.351892	0.005212	3.147424	-0.000137	0.001428	0.004857	0.282639	0.148007	0.947739	-0.470451	0.882422	0.002493	-0.835937	-0.446570	0.319037
28930	9.364587	0.033721	3.161359	-0.001579	0.001249	0.004387	0.282641	0.148013	0.947737	-0.470444	0.882426	0.002486	-0.835941	-0.446560	0.319041
28931	9.338072	0.000949	3.167470	-0.000911	-0.000227	0.002933	0.282635	0.147999	0.947742	-0.470438	0.882429	0.002494	-0.835946	-0.446559	0.319029
28932	9.377305	-0.014167	3.162271	-0.000348	0.003016	0.004845	0.282649	0.148016	0.947735	-0.470443	0.882427	0.002486	-0.835939	-0.446558	0.319050
28933	9.352683	0.054068	3.127412	0.001093	0.003195	0.005314	0.282661	0.148039	0.947727	-0.470464	0.882416	0.002479	-0.835922	-0.446573	0.319071
28934	9.377161	-0.015016	3.162693	-0.002353	-0.000406	0.002463	0.282657	0.148021	0.947731	-0.470445	0.882426	0.002488	-0.835934	-0.446559	0.319060
28935	9.345295	0.026327	3.147690	0.001728	-0.001571	0.005350	0.282630	0.148022	0.947739	-0.470468	0.882413	0.002481	-0.835931	-0.446583	0.319036
28936	9.351713	0.002315	3.147959	-0.002809	-0.000519	0.003930	0.282619	0.148016	0.947744	-0.470450	0.882423	0.002474	-0.835945	-0.446565	0.319023
28937	9.390948	0.063281	3.155764	0.001761	0.001720	0.003860	0.282627	0.148020	0.947741	-0.470468	0.882413	0.002482	-0.835932	-0.446583	0.319032
28938	9.365413	0.005045	3.128278	-0.002565	0.001183	0.002451	0.282637	0.148009	0.947739	-0.470447	0.882425	0.002490	-0.835940	-0.446565	0.319036
28939	9.350590	0.026786	3.181956	-0.000137	0.001428	0.004857	0.282638	0.148019	0.947737	-0.470453	0.882421	0.002482	-0.835936	-0.446568	0.319042
28940	9.370687	0.006335	3.162595	0.000775	0.001654	0.001924	0.282654	0.148005	0.947735	-0.470459	0.882418	0.002505	-0.835928	-0.446578	0.319050
28941	9.338750	0.047829	3.147833	0.000319	0.001541	0.003390	0.282662	0.148003	0.947733	-0.470465	0.882415	0.002513	-0.835922	-0.446585	0.319055
28942	9.332391	-0.005224	3.134359	-0.002068	-0.002154	0.007344	0.282621	0.148020	0.947742	-0.470462	0.882417	0.002476	-0.835937	-0.446576	0.319027
28943	9.352495	0.050107	3.128040	-0.002001	0.004427	0.004363	0.282650	0.148040	0.947730	-0.470447	0.882425	0.002467	-0.835935	-0.446555	0.319063
28944	9.370547	0.004571	3.163011	-0.002353	-0.000405	0.002463	0.282647	0.148022	0.947734	-0.470428	0.882435	0.002475	-0.835947	-0.446541	0.319051
28945	9.358793	0.025925	3.128646	-0.000667	0.001476	0.001454	0.282664	0.148003	0.947732	-0.470419	0.882440	0.002497	-0.835947	-0.446537	0.319057
28946	9.345007	0.022203	3.148578	0.000074	-0.000161	0.004869	0.282651	0.148007	0.947735	-0.470427	0.882436	0.002490	-0.835947	-0.446544	0.319048
28947	9.370466	0.003649	3.163254	-0.001334	0.002951	0.002909	0.282673	0.148008	0.947729	-0.470419	0.882440	0.002497	-0.835944	-0.446536	0.319067
28948	9.358692	0.024927	3.128958	-0.002354	-0.000405	0.002463	0.282669	0.147989	0.947733	-0.470400	0.882450	0.002506	-0.835956	-0.446522	0.319056
28949	9.358675	0.024621	3.129011	0.000319	0.001541	0.003390	0.282677	0.147988	0.947731	-0.470407	0.882446	0.002513	-0.835949	-0.446530	0.319061
28950	9.338491	0.044238	3.148653	0.000393	0.001380	0.008259	0.282661	0.148028	0.947729	-0.470427	0.882435	0.002475	-0.835943	-0.446537	0.319066
28951	9.358587	0.023629	3.129281	-0.000667	0.001476	0.001454	0.282677	0.148009	0.947727	-0.470419	0.882440	0.002498	-0.835943	-0.446535	0.319072
28952	9.358567	0.023324	3.129343	0.000074	-0.000161	0.004869	0.282664	0.148013	0.947730	-0.470427	0.882435	0.002491	-0.835942	-0.446542	0.319062
28953	9.364945	-0.000621	3.129681	-0.002354	-0.000405	0.002463	0.282659	0.147994	0.947735	-0.470407	0.882446	0.002499	-0.835955	-0.446528	0.319049
28954	9.370337	0.001053	3.163636	0.000741	-0.001636	0.003414	0.282641	0.147978	0.947743	-0.470417	0.882441	0.002508	-0.835956	-0.446543	0.319026
28955	9.357612	0.047806	3.162882	-0.003020	0.001071	0.003917	0.282644	0.147979	0.947742	-0.470401	0.882449	0.002503	-0.835964	-0.446526	0.319028
28956	9.370355	0.000294	3.163584	0.000741	-0.001636	0.003414	0.282626	0.147963	0.947750	-0.470410	0.882444	0.002512	-0.835965	-0.446541	0.319005
28957	9.357660	0.046900	3.162754	-0.002280	-0.000565	0.007332	0.282598	0.147987	0.947754	-0.470401	0.882449	0.002473	-0.835979	-0.446524	0.318992
28958	9.370349	-0.000770	3.163601	0.000109	0.003130	0.003378	0.282620	0.147992	0.947747	-0.470406	0.882447	0.002480	-0.835969	-0.446526	0.319014
28959	9.350174	0.019077	3.183235	-0.002354	-0.000404	0.002463	0.282618	0.147974	0.947750	-0.470386	0.882457	0.002489	-0.835981	-0.446512	0.319004
28960	9.358538	0.020209	3.129450	0.001550	0.003308	0.003848	0.282640	0.147985	0.947742	-0.470404	0.882448	0.002496	-0.835964	-0.446527	0.319027
28961	9.377568	0.025279	3.143934	0.000109	0.003130	0.003378	0.282660	0.147990	0.947735	-0.470405	0.882447	0.002502	-0.835956	-0.446527	0.319048
28962	9.364753	-0.004055	3.130254	0.000074	-0.000161	0.004869	0.282648	0.147994	0.947738	-0.470413	0.882443	0.002496	-0.835955	-0.446534	0.319039
28963	9.377529	0.024516	3.144055	-0.000912	-0.000226	0.002933	0.282643	0.147980	0.947742	-0.470405	0.882447	0.002502	-0.835962	-0.446530	0.319028
28964	9.363766	0.020803	3.163903	-0.000912	-0.000226	0.002933	0.282639	0.147967	0.947745	-0.470399	0.882450	0.002511	-0.835966	-0.446528	0.319018
28965	9.358387	0.018527	3.129913	0.000319	0.001541	0.003390	0.282646	0.147965	0.947743	-0.470406	0.882446	0.002519	-0.835960	-0.446536	0.319024
28966	9.363682	0.020034	3.164156	-0.003687	0.002548	0.005371	0.282654	0.147985	0.947738	-0.470384	0.882458	0.002495	-0.835970	-0.446506	0.319041
28967	9.339150	0.012229	3.116055	0.003413	0.000308	0.004341	0.282647	0.147986	0.947740	-0.470420	0.882439	0.002505	-0.835952	-0.446544	0.319035
28968	9.371032	0.046172	3.144131	-0.001579	0.001250	0.004387	0.282649	0.147992	0.947738	-0.470413	0.882443	0.002497	-0.835955	-0.446535	0.319039
28969	9.358191	0.016764	3.130511	-0.000347	0.003017	0.004844	0.282662	0.148010	0.947732	-0.470417	0.882441	0.002489	-0.835949	-0.446533	0.319059
28970	9.383629	-0.001891	3.145192	0.000074	-0.000160	0.004868	0.282649	0.148014	0.947735	-0.470425	0.882436	0.002482	-0.835948	-0.446540	0.319049
28971	9.343381	0.038061	3.184191	0.000530	-0.000048	0.003402	0.282664	0.148041	0.947726	-0.470554	0.882367	0.002514	-0.835871	-0.446667	0.319075
28972	9.344385	0.012294	3.150478	-0.003340	-0.000469	0.000527	0.282669	0.148005	0.947730	-0.470522	0.882385	0.002537	-0.835887	-0.446645	0.319063
28973	9.351821	0.038967	3.130211	-0.001368	-0.000338	0.004399	0.282658	0.148004	0.947734	-0.470520	0.882386	0.002532	-0.835892	-0.446643	0.319052
28974	9.363539	0.016832	3.164597	-0.000383	-0.000273	0.006335	0.282637	0.148020	0.947737	-0.470528	0.882381	0.002510	-0.835894	-0.446646	0.319042
28975	9.377316	0.019935	3.144725	0.001442	0.000178	0.000470	0.282648	0.147986	0.947740	-0.470534	0.882378	0.002549	-0.835887	-0.446664	0.319035
28976	9.363519	0.016301	3.164659	-0.001578	0.001251	0.004387	0.282649	0.147992	0.947738	-0.470527	0.882382	0.002541	-0.835891	-0.446655	0.319039
28977	9.351772	0.037448	3.130379	0.001305	0.001606	0.005326	0.282652	0.148008	0.947735	-0.470551	0.882369	0.002537	-0.835877	-0.446674	0.319049
28978	9.370860	0.042358	3.144697	-0.001578	0.001251	0.004387	0.282653	0.148014	0.947734	-0.470544	0.882373	0.002529	-0.835880	-0.446665	0.319053
28979	9.377167	0.018325	3.145177	-0.001579	0.001251	0.004387	0.282655	0.148020	0.947732	-0.470539	0.882376	0.002523	-0.835882	-0.446658	0.319057
28980	9.337898	0.032822	3.150550	-0.000456	-0.000113	0.001466	0.282658	0.147994	0.947735	-0.470533	0.882379	0.002547	-0.835884	-0.446661	0.319048
28981	9.377156	0.017564	3.145216	0.000603	-0.000208	0.008270	0.282628	0.148027	0.947739	-0.470555	0.882367	0.002509	-0.835882	-0.446672	0.319036
28982	9.337911	0.031843	3.150523	0.000530	-0.000048	0.003402	0.282623	0.148018	0.947742	-0.470563	0.882363	0.002518	-0.835880	-0.446683	0.319028
28983	9.351615	0.034859	3.130877	0.000885	0.004784	0.005302	0.282650	0.148047	0.947729	-0.470579	0.882354	0.002510	-0.835862	-0.446691	0.319065
28984	9.376991	0.016260	3.145714	-0.001122	0.001364	0.002920	0.282659	0.148041	0.947728	-0.470572	0.882358	0.002518	-0.835863	-0.446686	0.319070
28985	9.390727	0.019350	3.125976	-0.001122	0.001364	0.002920	0.282668	0.148034	0.947726	-0.470567	0.882361	0.002527	-0.835862	-0.446683	0.319075
28986	9.312187	0.048593	3.136740	-0.000137	0.001429	0.004856	0.282669	0.148045	0.947724	-0.470573	0.882357	0.002520	-0.835858	-0.446686	0.319081
28987	9.376886	0.015109	3.146032	0.000073	-0.000160	0.004868	0.282656	0.148048	0.947727	-0.470584	0.882352	0.002514	-0.835857	-0.446696	0.319071
28988	9.370554	0.038306	3.145660	0.000529	-0.000048	0.003402	0.282651	0.148039	0.947730	-0.470592	0.882347	0.002523	-0.835854	-0.446707	0.319063
28989	9.324852	0.000237	3.137496	-0.001369	-0.000337	0.004398	0.282641	0.148039	0.947733	-0.470587	0.882350	0.002517	-0.835860	-0.446703	0.319054
28990	9.356785	0.034153	3.165506	0.003413	0.000307	0.004342	0.282635	0.148040	0.947735	-0.470622	0.882331	0.002526	-0.835842	-0.446739	0.319049
28991	9.370521	0.037090	3.145775	-0.003686	0.002551	0.005371	0.282645	0.148061	0.947729	-0.470599	0.882344	0.002503	-0.835852	-0.446708	0.319068
28992	9.343900	0.004378	3.151938	0.000986	0.000065	0.001936	0.282648	0.148040	0.947731	-0.470606	0.882340	0.002527	-0.835847	-0.446723	0.319060
28993	9.376813	0.012903	3.146261	0.000529	-0.000047	0.003402	0.282643	0.148031	0.947734	-0.470613	0.882336	0.002535	-0.835845	-0.446733	0.319051
28994	9.343906	0.003775	3.151920	-0.001369	-0.000337	0.004398	0.282631	0.148030	0.947738	-0.470608	0.882339	0.002528	-0.835852	-0.446727	0.319040
28995	9.403386	0.044468	3.140260	0.000320	0.001542	0.003390	0.282641	0.148029	0.947735	-0.470613	0.882336	0.002536	-0.835845	-0.446733	0.319048
28996	9.357641	0.006484	3.132190	0.001971	0.000130	0.003872	0.282635	0.148025	0.947737	-0.470634	0.882325	0.002544	-0.835835	-0.446757	0.319042
28997	9.384208	0.038502	3.126212	-0.002564	0.001187	0.002450	0.282644	0.148014	0.947736	-0.470612	0.882337	0.002551	-0.835845	-0.446737	0.319044
28998	9.351277	0.029451	3.131942	0.000529	-0.000047	0.003402	0.282639	0.148005	0.947739	-0.470620	0.882333	0.002560	-0.835842	-0.446748	0.319036
28999	9.362877	0.007600	3.166590	0.001799	0.005009	0.002370	0.282681	0.148009	0.947726	-0.470635	0.882324	0.002582	-0.835819	-0.446763	0.319074
29000	9.370311	0.034265	3.146432	-0.000950	-0.003515	0.004422	0.282642	0.147994	0.947740	-0.470634	0.882325	0.002577	-0.835833	-0.446767	0.319033
29001	9.363886	-0.018616	3.132794	-0.000913	-0.000225	0.002932	0.282638	0.147981	0.947743	-0.470628	0.882328	0.002585	-0.835838	-0.446766	0.319024
29002	9.369384	0.059046	3.179997	-0.001578	0.001252	0.004386	0.282640	0.147987	0.947742	-0.470621	0.882331	0.002578	-0.835841	-0.446756	0.319028
29003	9.370368	0.033053	3.146275	-0.001160	-0.001926	0.004410	0.282616	0.147979	0.947750	-0.470619	0.882333	0.002573	-0.835850	-0.446757	0.319003
29004	9.362887	0.005704	3.166566	0.001552	0.003308	0.003848	0.282638	0.147989	0.947742	-0.470637	0.882323	0.002580	-0.835833	-0.446772	0.319027
29005	9.351118	0.026937	3.132438	-0.001788	0.002841	0.004374	0.282652	0.148002	0.947736	-0.470629	0.882327	0.002573	-0.835832	-0.446760	0.319046
29006	9.383993	0.035289	3.126895	0.000529	-0.000047	0.003402	0.282647	0.147993	0.947739	-0.470637	0.882323	0.002582	-0.835830	-0.446771	0.319037
29007	9.357396	0.002672	3.132927	0.000529	-0.000047	0.003402	0.282641	0.147985	0.947742	-0.470642	0.882321	0.002588	-0.835829	-0.446779	0.319028
29008	9.358555	0.052690	3.112310	-0.002282	-0.000561	0.007330	0.282614	0.148008	0.947746	-0.470637	0.882323	0.002551	-0.835841	-0.446766	0.319015
29009	9.337293	0.021802	3.152438	-0.001122	0.001365	0.002920	0.282623	0.148002	0.947744	-0.470628	0.882328	0.002558	-0.835843	-0.446758	0.319020
29010	9.371159	0.004616	3.113129	0.000073	-0.000160	0.004868	0.282611	0.148006	0.947748	-0.470637	0.882323	0.002551	-0.835842	-0.446766	0.319011
29011	9.356397	0.026307	3.166728	-0.003020	0.001076	0.003916	0.282612	0.148006	0.947747	-0.470616	0.882334	0.002544	-0.835853	-0.446744	0.319012
29012	9.364818	0.027358	3.112851	-0.000913	-0.000224	0.002932	0.282608	0.147993	0.947750	-0.470611	0.882337	0.002552	-0.835858	-0.446743	0.319002
29013	9.350031	0.049121	3.166530	-0.001787	0.002842	0.004374	0.282622	0.148005	0.947744	-0.470603	0.882342	0.002545	-0.835858	-0.446730	0.319021
29014	9.368948	-0.022079	3.167672	0.001724	-0.001572	0.005350	0.282596	0.148007	0.947752	-0.470626	0.882329	0.002539	-0.835853	-0.446754	0.318998
29015	9.382972	0.056862	3.160814	-0.003268	-0.000625	0.005394	0.282576	0.148013	0.947757	-0.470607	0.882339	0.002516	-0.835871	-0.446732	0.318984
29016	9.331836	0.016809	3.118721	0.000111	0.003131	0.003378	0.282598	0.148019	0.947749	-0.470611	0.882337	0.002523	-0.835861	-0.446734	0.319006
29017	9.349968	0.047296	3.166744	0.000073	-0.000160	0.004868	0.282586	0.148023	0.947752	-0.470621	0.882332	0.002517	-0.835860	-0.446743	0.318998
29018	9.376380	0.003137	3.147576	-0.002355	-0.000401	0.002462	0.282583	0.148004	0.947756	-0.470602	0.882342	0.002526	-0.835871	-0.446729	0.318986
29019	9.356294	0.023032	3.167058	0.000529	-0.000047	0.003402	0.282578	0.147996	0.947759	-0.470609	0.882338	0.002534	-0.835869	-0.446740	0.318977
29020	9.377540	0.053001	3.127037	-0.000136	0.001430	0.004856	0.282578	0.148007	0.947757	-0.470615	0.882335	0.002526	-0.835865	-0.446743	0.318983
29021	9.348801	-0.004694	3.187319	-0.002146	-0.001990	0.002474	0.282562	0.147981	0.947766	-0.470595	0.882346	0.002533	-0.835883	-0.446729	0.318956
29022	9.370022	0.025423	3.147375	0.001801	0.005009	0.002370	0.282604	0.147986	0.947753	-0.470610	0.882338	0.002556	-0.835860	-0.446744	0.318996
29023	9.363671	0.048699	3.147160	-0.001161	-0.001925	0.004410	0.282580	0.147978	0.947761	-0.470609	0.882338	0.002551	-0.835868	-0.446746	0.318970
29024	9.350822	0.019328	3.133379	-0.000345	0.003019	0.004844	0.282594	0.147996	0.947754	-0.470614	0.882336	0.002543	-0.835861	-0.446745	0.318991
29025	9.369913	0.024275	3.147710	0.000529	-0.000047	0.003402	0.282589	0.147987	0.947757	-0.470621	0.882332	0.002552	-0.835859	-0.446755	0.318983
29026	9.336965	0.015260	3.153449	0.000320	0.001542	0.003390	0.282598	0.147985	0.947755	-0.470627	0.882329	0.002560	-0.835852	-0.446762	0.318990
29027	9.369842	0.023587	3.147927	0.001306	0.001606	0.005326	0.282598	0.148001	0.947752	-0.470645	0.882319	0.002552	-0.835842	-0.446776	0.318998
29028	9.364478	0.021182	3.113924	-0.002812	-0.000512	0.003928	0.282587	0.147995	0.947756	-0.470626	0.882329	0.002545	-0.835856	-0.446758	0.318985
29029	9.348482	-0.007752	3.188248	-0.001010	0.004496	0.006298	0.282606	0.148032	0.947745	-0.470630	0.882327	0.002522	-0.835847	-0.446750	0.319019
29030	9.388832	0.027454	3.162568	0.000529	-0.000047	0.003402	0.282601	0.148024	0.947748	-0.470638	0.882323	0.002530	-0.835845	-0.446761	0.319011
29031	9.345193	0.014477	3.100182	-0.001578	0.001254	0.004386	0.282603	0.148030	0.947746	-0.470629	0.882327	0.002522	-0.835849	-0.446750	0.319015
29032	9.357968	0.043001	3.114222	0.000112	0.003131	0.003378	0.282624	0.148035	0.947739	-0.470634	0.882325	0.002530	-0.835839	-0.446753	0.319037
29033	9.331264	0.010329	3.120461	-0.000136	0.001430	0.004856	0.282625	0.148046	0.947737	-0.470636	0.882324	0.002520	-0.835838	-0.446751	0.319043
29034	9.350384	0.015196	3.134707	-0.001370	-0.000335	0.004398	0.282613	0.148045	0.947741	-0.470631	0.882327	0.002514	-0.835845	-0.446746	0.319032
29035	9.377009	0.047023	3.128726	-0.001578	0.001254	0.004386	0.282613	0.148051	0.947740	-0.470624	0.882330	0.002506	-0.835849	-0.446737	0.319034
29036	9.336540	0.010753	3.154725	-0.001050	0.001207	0.007787	0.282598	0.148086	0.947739	-0.470631	0.882327	0.002468	-0.835850	-0.446733	0.319038
29037	9.363115	0.042573	3.148902	-0.000873	0.003067	0.001442	0.282628	0.148075	0.947732	-0.470618	0.882334	0.002488	-0.835847	-0.446723	0.319059
29038	9.343960	0.036799	3.134765	0.000809	-0.001796	0.008281	0.282586	0.148101	0.947740	-0.470642	0.882321	0.002452	-0.835848	-0.446739	0.319034
29039	9.374714	0.019938	3.183422	-0.002772	0.002779	0.002438	0.282608	0.148097	0.947734	-0.470617	0.882334	0.002458	-0.835854	-0.446714	0.319051
29040	9.369325	0.017688	3.149503	0.001970	0.000129	0.003872	0.282602	0.148093	0.947736	-0.470638	0.882323	0.002466	-0.835844	-0.446738	0.319045
29041	9.337338	-0.016909	3.121460	-0.001370	-0.000335	0.004397	0.282589	0.148092	0.947741	-0.470629	0.882328	0.002457	-0.835854	-0.446729	0.319033
29042	9.363029	0.040441	3.149186	-0.000136	0.001430	0.004856	0.282590	0.148103	0.947739	-0.470635	0.882324	0.002450	-0.835850	-0.446732	0.319038
29043	9.355499	0.013099	3.169460	-0.000913	-0.000223	0.002932	0.282587	0.148090	0.947741	-0.470628	0.882328	0.002458	-0.835855	-0.446728	0.319030
29044	9.369300	0.016017	3.149586	0.001057	-0.000095	0.006803	0.282566	0.148111	0.947744	-0.470650	0.882317	0.002436	-0.835850	-0.446744	0.319021
29045	9.349258	0.035784	3.168989	-0.002147	-0.001988	0.002473	0.282549	0.148086	0.947753	-0.470630	0.882327	0.002443	-0.835867	-0.446731	0.318994
29046	9.356483	-0.013563	3.135627	-0.000665	0.001478	0.001454	0.282566	0.148067	0.947751	-0.470622	0.882332	0.002467	-0.835866	-0.446730	0.319001
29047	9.376781	0.042064	3.129480	0.002997	0.003483	0.004318	0.282587	0.148082	0.947743	-0.470650	0.882317	0.002473	-0.835843	-0.446754	0.319026
29048	9.375517	-0.008791	3.150134	-0.000706	-0.001812	0.002943	0.282570	0.148062	0.947751	-0.470646	0.882319	0.002482	-0.835851	-0.446757	0.319001
29049	9.343847	0.032932	3.135143	0.001442	0.000176	0.000470	0.282580	0.148028	0.947753	-0.470654	0.882314	0.002522	-0.835843	-0.446776	0.318994
29050	9.361725	-0.012614	3.169978	-0.002035	0.001143	0.005851	0.282573	0.148047	0.947752	-0.470647	0.882318	0.002499	-0.835849	-0.446763	0.318997
29051	9.349129	0.034033	3.169389	0.001306	0.001606	0.005326	0.282574	0.148062	0.947750	-0.470669	0.882306	0.002493	-0.835836	-0.446781	0.319005
29052	9.363836	0.011566	3.115904	-0.000457	-0.000111	0.001466	0.282578	0.148036	0.947753	-0.470663	0.882309	0.002517	-0.835838	-0.446784	0.318996
29053	9.369140	0.013045	3.150077	-0.002699	0.002621	0.007305	0.282578	0.148074	0.947747	-0.470658	0.882312	0.002480	-0.835841	-0.446765	0.319014
29054	9.343663	0.030869	3.135713	-0.000665	0.001478	0.001454	0.282595	0.148055	0.947745	-0.470650	0.882316	0.002503	-0.835840	-0.446764	0.319020
29055	9.388137	0.017653	3.164700	0.002997	0.003483	0.004318	0.282615	0.148070	0.947736	-0.470684	0.882298	0.002512	-0.835814	-0.446795	0.319045
29056	9.329742	0.026888	3.155940	-0.002813	-0.000510	0.003927	0.282604	0.148064	0.947741	-0.470666	0.882308	0.002505	-0.835828	-0.446777	0.319032
29057	9.389007	-0.008720	3.131186	-0.000136	0.001431	0.004855	0.282605	0.148075	0.947738	-0.470671	0.882305	0.002497	-0.835825	-0.446779	0.319039
29058	9.309642	0.046279	3.175539	-0.000914	-0.000223	0.002931	0.282601	0.148061	0.947742	-0.470665	0.882308	0.002506	-0.835829	-0.446777	0.319029
29059	9.382698	0.014185	3.130946	0.000321	0.001542	0.003390	0.282609	0.148060	0.947739	-0.470670	0.882306	0.002513	-0.835824	-0.446783	0.319035
29060	9.375431	0.062921	3.164499	-0.000344	0.003020	0.004844	0.282623	0.148078	0.947732	-0.470675	0.882303	0.002505	-0.835816	-0.446782	0.319056
29061	9.303862	-0.032954	3.128670	-0.003062	-0.002210	0.005405	0.282590	0.148077	0.947743	-0.470658	0.882312	0.002483	-0.835837	-0.446764	0.319026
29062	9.395437	0.041925	3.145197	0.005602	0.005581	0.000379	0.282647	0.148067	0.947727	-0.470700	0.882290	0.002536	-0.835795	-0.446812	0.319071
29063	9.390022	0.039755	3.111373	-0.003270	-0.000621	0.005393	0.282628	0.148074	0.947732	-0.470678	0.882301	0.002513	-0.835813	-0.446787	0.319058
29064	9.349576	0.003763	3.137152	0.002634	-0.001350	0.002418	0.282617	0.148050	0.947739	-0.470701	0.882289	0.002537	-0.835804	-0.446819	0.319037
29065	9.343294	0.026976	3.136849	-0.003684	0.002558	0.005369	0.282624	0.148071	0.947733	-0.470678	0.882301	0.002513	-0.835814	-0.446788	0.319054
29066	9.355808	-0.020670	3.137602	-0.000707	-0.001812	0.002943	0.282607	0.148051	0.947742	-0.470674	0.882303	0.002522	-0.835822	-0.446790	0.319029
29067	9.356172	0.055031	3.150702	-0.001578	0.001256	0.004385	0.282608	0.148056	0.947740	-0.470667	0.882308	0.002515	-0.835826	-0.446780	0.319032
29068	9.355795	-0.021278	3.137634	0.000000	0.000000	0.000000	0.282608	0.148056	0.947740	-0.470667	0.882308	0.002515	-0.835826	-0.446780	0.319032
29069	9.400655	0.041408	3.179644	-0.002699	0.002623	0.007305	0.282608	0.148094	0.947735	-0.470658	0.882312	0.002476	-0.835831	-0.446759	0.319050
29070	9.348508	0.026998	3.171290	-0.000664	0.001478	0.001454	0.282625	0.148075	0.947732	-0.470651	0.882316	0.002499	-0.835829	-0.446757	0.319057
29071	9.343128	0.024758	3.137361	-0.001578	0.001256	0.004385	0.282629	0.148081	0.947730	-0.470645	0.882319	0.002493	-0.835831	-0.446749	0.319062
29072	9.356913	0.027662	3.117565	0.001513	0.000017	0.005337	0.282615	0.148090	0.947733	-0.470667	0.882308	0.002487	-0.835824	-0.446769	0.319055
29073	9.368482	0.005542	3.152056	0.001306	0.001606	0.005325	0.282615	0.148105	0.947731	-0.470688	0.882296	0.002480	-0.835812	-0.446786	0.319062
29074	9.350586	0.050422	3.117430	0.000321	0.001542	0.003390	0.282624	0.148104	0.947728	-0.470694	0.882293	0.002488	-0.835806	-0.446793	0.319069
29075	9.355883	0.051894	3.151613	-0.002035	0.001145	0.005851	0.282619	0.148123	0.947727	-0.470686	0.882297	0.002466	-0.835812	-0.446779	0.319073
29076	9.382179	0.007448	3.132524	0.001056	-0.000094	0.006803	0.282598	0.148144	0.947730	-0.470708	0.882286	0.002444	-0.835806	-0.446795	0.319064
29077	9.335375	-0.004932	3.158185	0.002013	0.003418	0.002382	0.282626	0.148142	0.947722	-0.470722	0.882278	0.002465	-0.835789	-0.446810	0.319088
29078	9.369584	0.054027	3.132089	-0.005240	-0.000747	0.001520	0.282624	0.148114	0.947727	-0.470677	0.882302	0.002473	-0.835815	-0.446772	0.319073
29079	9.341569	-0.029145	3.158707	0.001306	0.001606	0.005325	0.282622	0.148129	0.947725	-0.470697	0.882291	0.002466	-0.835804	-0.446788	0.319079
29080	9.375752	0.029585	3.132705	-0.000343	0.003021	0.004843	0.282636	0.148147	0.947718	-0.470702	0.882289	0.002458	-0.835797	-0.446787	0.319100
29081	9.342762	0.020413	3.138483	-0.000386	-0.000269	0.006333	0.282615	0.148163	0.947722	-0.470710	0.882285	0.002435	-0.835800	-0.446790	0.319088
29082	9.375719	0.028595	3.132811	-0.000914	-0.000222	0.002931	0.282611	0.148149	0.947725	-0.470704	0.882288	0.002444	-0.835804	-0.446789	0.319078
29083	9.342755	0.019579	3.138509	-0.001578	0.001257	0.004385	0.282611	0.148155	0.947724	-0.470696	0.882292	0.002435	-0.835809	-0.446778	0.319081
29084	9.342713	0.019271	3.138637	-0.000664	0.001479	0.001454	0.282628	0.148136	0.947722	-0.470688	0.882296	0.002459	-0.835807	-0.446777	0.319088
29085	9.361805	0.024169	3.152989	0.002291	0.001670	0.007261	0.282619	0.148169	0.947720	-0.470719	0.882280	0.002435	-0.835793	-0.446798	0.319095
29086	9.342669	0.018362	3.138772	-0.001165	-0.001922	0.004408	0.282594	0.148161	0.947728	-0.470716	0.882282	0.002428	-0.835804	-0.446797	0.319069
29087	9.361843	0.023265	3.152885	0.000528	-0.000047	0.003401	0.282589	0.148153	0.947731	-0.470722	0.882278	0.002436	-0.835802	-0.446807	0.319061
29088	9.341775	0.043134	3.172437	-0.001578	0.001257	0.004385	0.282590	0.148159	0.947730	-0.470715	0.882282	0.002429	-0.835805	-0.446797	0.319065
29089	9.361784	0.022500	3.153064	-0.001121	0.001368	0.002919	0.282599	0.148152	0.947728	-0.470708	0.882286	0.002437	-0.835806	-0.446792	0.319069
29090	9.355502	0.045717	3.152838	-0.000136	0.001432	0.004855	0.282599	0.148163	0.947726	-0.470715	0.882282	0.002429	-0.835802	-0.446795	0.319075
29091	9.347913	0.018385	3.173105	-0.000914	-0.000222	0.002931	0.282596	0.148149	0.947730	-0.470711	0.882284	0.002439	-0.835805	-0.446796	0.319065
29092	9.370158	0.022851	3.099470	-0.001327	0.002957	0.002907	0.282618	0.148149	0.947723	-0.470702	0.882289	0.002446	-0.835803	-0.446786	0.319085
29093	9.366941	0.023039	3.187650	0.000321	0.001542	0.003390	0.282625	0.148147	0.947721	-0.470709	0.882285	0.002454	-0.835797	-0.446794	0.319090
29094	9.356256	0.018887	3.119603	0.000528	-0.000047	0.003401	0.282620	0.148139	0.947724	-0.470716	0.882281	0.002463	-0.835794	-0.446805	0.319082
29095	9.374506	0.049229	3.167480	-0.003271	-0.000618	0.005392	0.282603	0.148145	0.947728	-0.470701	0.882289	0.002442	-0.835809	-0.446787	0.319069
29096	9.348670	-0.008972	3.139840	0.003205	0.001891	0.004330	0.282610	0.148153	0.947725	-0.470734	0.882272	0.002451	-0.835788	-0.446819	0.319079
29097	9.355293	0.043197	3.153493	0.000321	0.001543	0.003389	0.282619	0.148152	0.947722	-0.470739	0.882269	0.002459	-0.835782	-0.446824	0.319087
29098	9.380626	0.024555	3.168186	-0.002563	0.001194	0.002449	0.282630	0.148140	0.947721	-0.470718	0.882280	0.002467	-0.835790	-0.446806	0.319091
29099	9.356137	0.016982	3.119969	0.000070	-0.000158	0.004867	0.282618	0.148144	0.947724	-0.470727	0.882276	0.002461	-0.835789	-0.446814	0.319083
29100	9.375277	0.021949	3.134188	0.003869	0.000412	0.002877	0.282620	0.148133	0.947725	-0.470761	0.882257	0.002485	-0.835769	-0.446854	0.319079
29101	9.356159	0.016458	3.119907	-0.002150	-0.001986	0.002472	0.282604	0.148108	0.947734	-0.470743	0.882267	0.002494	-0.835785	-0.446844	0.319053
29102	9.355294	0.041683	3.153513	0.000527	-0.000047	0.003401	0.282599	0.148099	0.947736	-0.470751	0.882263	0.002502	-0.835782	-0.446855	0.319045
29103	9.341413	0.037953	3.173570	-0.001990	0.004437	0.004361	0.282626	0.148119	0.947725	-0.470742	0.882267	0.002494	-0.835778	-0.446839	0.319078
29104	9.367613	-0.006373	3.154633	0.000070	-0.000158	0.004867	0.282614	0.148122	0.947728	-0.470750	0.882263	0.002488	-0.835777	-0.446846	0.319068
29105	9.368961	0.043721	3.134112	-0.003020	0.001083	0.003914	0.282615	0.148123	0.947728	-0.470726	0.882276	0.002478	-0.835790	-0.446821	0.319070
29106	9.361359	0.016316	3.154363	0.000070	-0.000158	0.004867	0.282603	0.148127	0.947731	-0.470735	0.882271	0.002472	-0.835790	-0.446828	0.319061
29107	9.355144	0.039467	3.153984	-0.001372	-0.000332	0.004396	0.282593	0.148126	0.947734	-0.470730	0.882274	0.002466	-0.835796	-0.446823	0.319052
29108	9.361351	0.015405	3.154392	-0.000136	0.001432	0.004855	0.282594	0.148137	0.947732	-0.470736	0.882271	0.002458	-0.835792	-0.446826	0.319058
29109	9.380473	0.020210	3.168668	0.001512	0.000016	0.005337	0.282581	0.148146	0.947735	-0.470755	0.882260	0.002451	-0.835785	-0.446844	0.319051
29110	9.356056	0.012659	3.120235	-0.001945	-0.003575	0.002484	0.282551	0.148114	0.947748	-0.470740	0.882269	0.002460	-0.835804	-0.446838	0.319009
29111	9.369033	0.041227	3.133933	0.003411	0.000301	0.004342	0.282544	0.148115	0.947750	-0.470775	0.882250	0.002469	-0.835787	-0.446875	0.319004
29112	9.380590	0.019160	3.168330	-0.004256	-0.000680	0.003456	0.282534	0.148104	0.947755	-0.470743	0.882267	0.002462	-0.835808	-0.446845	0.318990
29113	9.361427	0.013597	3.154176	0.002221	0.001827	0.002394	0.282551	0.148095	0.947751	-0.470763	0.882256	0.002487	-0.835791	-0.446869	0.319000
29114	9.336021	0.031563	3.139743	-0.003477	0.000974	0.005379	0.282546	0.148109	0.947751	-0.470743	0.882267	0.002464	-0.835804	-0.446843	0.319002
29115	9.394304	0.021271	3.148787	0.001306	0.001606	0.005325	0.282545	0.148124	0.947749	-0.470762	0.882257	0.002456	-0.835794	-0.446858	0.319009
29116	9.335963	0.030575	3.139923	-0.001372	-0.000331	0.004396	0.282534	0.148123	0.947752	-0.470757	0.882260	0.002450	-0.835801	-0.446853	0.318998
29117	9.348373	-0.017020	3.140691	0.000322	0.001543	0.003389	0.282543	0.148121	0.947750	-0.470762	0.882257	0.002458	-0.835795	-0.446859	0.319005
29118	9.362652	0.062009	3.134115	-0.001578	0.001258	0.004384	0.282544	0.148127	0.947748	-0.470755	0.882261	0.002450	-0.835798	-0.446849	0.319009
29119	9.367457	-0.012684	3.155078	-0.000388	-0.000268	0.006332	0.282524	0.148143	0.947752	-0.470763	0.882256	0.002428	-0.835801	-0.446852	0.318999
29120	9.348804	0.057761	3.154076	0.000779	0.001653	0.001924	0.282540	0.148129	0.947749	-0.470768	0.882253	0.002452	-0.835792	-0.446863	0.319007
29121	9.342031	0.005062	3.140719	-0.001120	0.001369	0.002919	0.282548	0.148122	0.947748	-0.470759	0.882258	0.002458	-0.835795	-0.446856	0.319010
29122	9.329622	0.051826	3.139985	-0.000182	-0.001858	0.006344	0.282514	0.148132	0.947757	-0.470769	0.882253	0.002437	-0.835800	-0.446863	0.318985
29123	9.380341	0.014501	3.169091	-0.000593	0.001322	0.006320	0.282506	0.148155	0.947755	-0.470776	0.882249	0.002414	-0.835799	-0.446863	0.318989
29124	9.341155	0.028921	3.174424	-0.000388	-0.000268	0.006332	0.282486	0.148171	0.947759	-0.470785	0.882245	0.002392	-0.835801	-0.446866	0.318978
29125	9.380341	0.013359	3.169096	-0.004256	-0.000678	0.003455	0.282475	0.148160	0.947764	-0.470752	0.882263	0.002384	-0.835823	-0.446835	0.318963
29126	9.328235	-0.000841	3.160508	0.003411	0.000300	0.004342	0.282468	0.148161	0.947766	-0.470786	0.882244	0.002393	-0.835806	-0.446871	0.318958
29127	9.387974	0.039467	3.148844	-0.006156	-0.000962	0.004450	0.282451	0.148158	0.947771	-0.470744	0.882267	0.002371	-0.835836	-0.446827	0.318942
29128	9.361219	0.006827	3.154815	0.004853	0.000474	0.004812	0.282444	0.148164	0.947773	-0.470792	0.882241	0.002380	-0.835811	-0.446876	0.318938
29129	9.335821	0.024814	3.140398	-0.003225	0.002675	0.003902	0.282461	0.148173	0.947766	-0.470767	0.882254	0.002371	-0.835819	-0.446847	0.318957
29130	9.361125	0.006061	3.155093	0.001969	0.000126	0.003871	0.282455	0.148169	0.947768	-0.470789	0.882243	0.002380	-0.835809	-0.446871	0.318950
29131	9.341961	0.000439	3.140931	-0.004462	0.000912	0.003443	0.282459	0.148165	0.947768	-0.470755	0.882261	0.002373	-0.835827	-0.446836	0.318952
29132	9.387813	0.037473	3.149348	0.001559	0.003306	0.003848	0.282480	0.148175	0.947760	-0.470772	0.882252	0.002380	-0.835810	-0.446852	0.318975
29133	9.321861	0.019880	3.160675	-0.003067	-0.002204	0.005402	0.282449	0.148174	0.947769	-0.470757	0.882260	0.002360	-0.835829	-0.446835	0.318948
29134	9.374832	0.007707	3.135586	0.000117	0.003133	0.003378	0.282471	0.148180	0.947762	-0.470761	0.882258	0.002367	-0.835819	-0.446838	0.318970
29135	9.348578	0.051294	3.154857	-0.002357	-0.000394	0.002460	0.282465	0.148161	0.947767	-0.470737	0.882270	0.002372	-0.835835	-0.446819	0.318956
29136	9.347972	-0.025238	3.141830	0.000644	0.003086	0.006779	0.282471	0.148197	0.947759	-0.470755	0.882261	0.002349	-0.835823	-0.446827	0.318977
29137	9.367588	0.055608	3.169494	0.001559	0.003306	0.003848	0.282491	0.148206	0.947752	-0.470773	0.882251	0.002357	-0.835806	-0.446842	0.319000
29138	9.341605	-0.002472	3.141989	-0.001578	0.001259	0.004384	0.282493	0.148212	0.947751	-0.470766	0.882255	0.002350	-0.835809	-0.446833	0.319004
29139	9.368344	0.029243	3.136127	-0.000136	0.001433	0.004855	0.282495	0.148223	0.947748	-0.470772	0.882252	0.002343	-0.835805	-0.446836	0.319011
29140	9.368299	0.028708	3.136264	0.000849	0.001496	0.006790	0.282487	0.148251	0.947746	-0.470792	0.882241	0.002320	-0.835796	-0.446847	0.319017
29141	9.335286	0.019693	3.142023	-0.002562	0.001197	0.002448	0.282496	0.148239	0.947745	-0.470773	0.882252	0.002329	-0.835804	-0.446830	0.319020
29142	9.367378	0.053462	3.170152	0.000527	-0.000047	0.003401	0.282491	0.148230	0.947748	-0.470780	0.882247	0.002338	-0.835802	-0.446841	0.319011
29143	9.355252	-0.001130	3.122667	0.002222	0.001826	0.002395	0.282509	0.148221	0.947744	-0.470802	0.882236	0.002363	-0.835784	-0.446867	0.319022
29144	9.368169	0.027406	3.136664	-0.003020	0.001087	0.003913	0.282511	0.148222	0.947744	-0.470781	0.882247	0.002356	-0.835795	-0.446845	0.319024
29145	9.374316	0.003331	3.137136	-0.000136	0.001433	0.004854	0.282511	0.148232	0.947742	-0.470790	0.882242	0.002349	-0.835790	-0.446851	0.319030
29146	9.334248	0.043533	3.176268	0.001764	0.001716	0.003860	0.282519	0.148236	0.947739	-0.470809	0.882232	0.002357	-0.835776	-0.446870	0.319038
29147	9.374222	0.002489	3.137418	-0.002035	0.001150	0.005849	0.282511	0.148253	0.947739	-0.470805	0.882234	0.002335	-0.835781	-0.446860	0.319039
29148	9.328841	0.040714	3.142467	0.000322	0.001543	0.003389	0.282520	0.148252	0.947736	-0.470811	0.882231	0.002344	-0.835775	-0.446867	0.319046
29149	9.360337	-0.001825	3.157436	-0.002289	-0.000550	0.007326	0.282493	0.148275	0.947740	-0.470808	0.882233	0.002308	-0.835785	-0.446856	0.319034
29150	9.381821	0.027903	3.117364	0.000527	-0.000047	0.003401	0.282489	0.148267	0.947743	-0.470816	0.882228	0.002316	-0.835782	-0.446867	0.319026
29151	9.360353	-0.002658	3.157388	-0.002358	-0.000393	0.002460	0.282484	0.148248	0.947747	-0.470796	0.882239	0.002324	-0.835795	-0.446852	0.319013
29152	9.361784	0.047512	3.136960	-0.000340	0.003023	0.004843	0.282498	0.148266	0.947740	-0.470801	0.882237	0.002316	-0.835788	-0.446851	0.319034
29153	9.362545	0.021606	3.103540	0.000118	0.003133	0.003378	0.282520	0.148272	0.947733	-0.470805	0.882234	0.002323	-0.835778	-0.446854	0.319056
29154	9.328644	0.038123	3.143084	-0.000593	0.001323	0.006319	0.282513	0.148295	0.947732	-0.470812	0.882230	0.002301	-0.835776	-0.446853	0.319061
29155	9.379275	0.000869	3.172276	-0.000916	-0.000220	0.002930	0.282509	0.148281	0.947735	-0.470809	0.882232	0.002310	-0.835780	-0.446854	0.319051
29156	9.367735	0.022204	3.138001	0.001102	0.003196	0.005313	0.282522	0.148304	0.947727	-0.470827	0.882223	0.002302	-0.835765	-0.446866	0.319073
29157	9.375325	0.048754	3.118011	-0.002562	0.001198	0.002448	0.282533	0.148293	0.947726	-0.470804	0.882235	0.002309	-0.835774	-0.446846	0.319077
29158	9.367620	0.021586	3.138349	0.002222	0.001826	0.002395	0.282548	0.148284	0.947723	-0.470823	0.882225	0.002333	-0.835758	-0.446869	0.319086
29159	9.342303	0.039687	3.123773	-0.001169	-0.001919	0.004407	0.282521	0.148276	0.947732	-0.470815	0.882229	0.002323	-0.835772	-0.446863	0.319058
29160	9.359945	-0.006109	3.158593	-0.000340	0.003023	0.004843	0.282535	0.148294	0.947725	-0.470819	0.882227	0.002315	-0.835765	-0.446862	0.319079
29161	9.347535	0.040744	3.158100	0.000322	0.001543	0.003389	0.282545	0.148292	0.947722	-0.470826	0.882223	0.002324	-0.835758	-0.446869	0.319088
29162	9.386662	0.025350	3.152899	0.000526	-0.000047	0.003401	0.282540	0.148284	0.947725	-0.470833	0.882219	0.002333	-0.835755	-0.446880	0.319079
29163	9.342178	0.038237	3.124162	-0.002562	0.001198	0.002448	0.282550	0.148272	0.947724	-0.470813	0.882230	0.002341	-0.835763	-0.446862	0.319083
29164	9.387529	-0.000776	3.119141	-0.000507	-0.003400	0.002953	0.282520	0.148244	0.947737	-0.470811	0.882231	0.002350	-0.835775	-0.446869	0.319043
29165	9.352881	0.041431	3.192097	0.000322	0.001543	0.003389	0.282528	0.148243	0.947735	-0.470816	0.882228	0.002358	-0.835769	-0.446875	0.319049
29166	9.354576	-0.009979	3.124677	0.001715	-0.001574	0.005348	0.282501	0.148244	0.947743	-0.470839	0.882216	0.002352	-0.835765	-0.446899	0.319026
29167	9.385847	0.049197	3.186528	-0.002766	0.002788	0.002436	0.282524	0.148240	0.947737	-0.470817	0.882228	0.002359	-0.835770	-0.446877	0.319044
29168	9.342167	0.036495	3.124218	-0.001578	0.001261	0.004383	0.282525	0.148245	0.947736	-0.470810	0.882232	0.002352	-0.835774	-0.446867	0.319048
29169	9.347469	0.038009	3.158329	-0.000916	-0.000219	0.002930	0.282519	0.148232	0.947740	-0.470800	0.882237	0.002358	-0.835781	-0.446862	0.319036
29170	9.342137	0.035734	3.124316	-0.001578	0.001261	0.004383	0.282521	0.148238	0.947738	-0.470793	0.882241	0.002350	-0.835785	-0.446852	0.319041
29171	9.373567	-0.006761	3.139366	-0.000136	0.001434	0.004854	0.282578	0.148148	0.947735	-0.470607	0.882340	0.002391	-0.835870	-0.446686	0.319049
29172	9.341259	0.060564	3.158138	-0.001238	-0.001762	-0.000459	0.282577	0.148098	0.947743	-0.470589	0.882349	0.002430	-0.835881	-0.446684	0.319025
29173	9.334465	0.007739	3.144513	-0.002290	-0.000548	0.007325	0.282552	0.148122	0.947747	-0.470581	0.882354	0.002393	-0.835894	-0.446667	0.319014
29174	9.366620	0.041240	3.172575	0.000526	-0.000047	0.003401	0.282547	0.148113	0.947750	-0.470588	0.882350	0.002402	-0.835891	-0.446678	0.319006
29175	9.348266	0.010215	3.124772	-0.002766	0.002789	0.002436	0.282572	0.148108	0.947743	-0.470565	0.882362	0.002410	-0.835896	-0.446656	0.319025
29176	9.347359	0.035418	3.158686	0.000322	0.001543	0.003389	0.282581	0.148106	0.947741	-0.470571	0.882359	0.002418	-0.835889	-0.446662	0.319032
29177	9.367281	0.014720	3.139401	-0.001781	0.002852	0.004372	0.282595	0.148118	0.947735	-0.470564	0.882363	0.002411	-0.835889	-0.446651	0.319050
29178	9.334228	0.005747	3.145221	-0.000136	0.001434	0.004854	0.282596	0.148129	0.947733	-0.470570	0.882359	0.002404	-0.835885	-0.446654	0.319056
29179	9.347182	0.034187	3.159224	-0.001120	0.001371	0.002918	0.282605	0.148122	0.947731	-0.470561	0.882364	0.002412	-0.835887	-0.446647	0.319061
29180	9.348026	0.008448	3.125496	-0.000254	-0.001700	0.001477	0.282596	0.148089	0.947739	-0.470556	0.882367	0.002436	-0.835893	-0.446653	0.319037
29181	9.367129	0.013414	3.139860	-0.000085	0.004724	0.003366	0.282631	0.148101	0.947727	-0.470557	0.882366	0.002442	-0.835880	-0.446650	0.319074
29182	9.360914	0.036575	3.139703	-0.003274	-0.000610	0.005389	0.282612	0.148108	0.947731	-0.470539	0.882376	0.002420	-0.835897	-0.446628	0.319061
29183	9.367025	0.012341	3.140177	0.002087	0.003258	0.007249	0.282616	0.148148	0.947724	-0.470572	0.882358	0.002398	-0.835877	-0.446650	0.319083
29184	9.360853	0.035435	3.139897	0.000271	-0.001747	0.004877	0.282590	0.148144	0.947732	-0.470582	0.882353	0.002391	-0.835880	-0.446662	0.319059
29185	9.373182	-0.012266	3.140500	-0.001374	-0.000328	0.004395	0.282580	0.148143	0.947735	-0.470576	0.882356	0.002385	-0.835887	-0.446655	0.319048
29186	9.360872	0.034527	3.139852	-0.000136	0.001434	0.004854	0.282580	0.148153	0.947734	-0.470582	0.882353	0.002378	-0.835883	-0.446658	0.319054
29187	9.361663	0.008556	3.106265	-0.001578	0.001262	0.004383	0.282580	0.148159	0.947733	-0.470576	0.882356	0.002370	-0.835887	-0.446650	0.319056
29188	9.346975	0.030381	3.159876	0.000526	-0.000047	0.003401	0.282575	0.148150	0.947736	-0.470584	0.882352	0.002379	-0.835884	-0.446661	0.319048
29189	9.347812	0.004492	3.126144	-0.001374	-0.000328	0.004395	0.282562	0.148148	0.947740	-0.470577	0.882356	0.002372	-0.835892	-0.446655	0.319036
29190	9.346939	0.029621	3.159989	0.000119	0.003134	0.003378	0.282584	0.148154	0.947732	-0.470581	0.882354	0.002379	-0.835882	-0.446657	0.319058
29191	9.366842	0.009065	3.140731	0.002223	0.001824	0.002395	0.282599	0.148145	0.947729	-0.470600	0.882343	0.002402	-0.835867	-0.446680	0.319066
29192	9.341504	0.027195	3.126294	-0.003020	0.001090	0.003912	0.282601	0.148146	0.947728	-0.470579	0.882354	0.002394	-0.835878	-0.446658	0.319069
29193	9.360643	0.031927	3.140562	0.000068	-0.000156	0.004866	0.282586	0.148149	0.947733	-0.470589	0.882349	0.002387	-0.835878	-0.446667	0.319057
29194	9.360652	0.031548	3.140537	-0.002358	-0.000390	0.002459	0.282583	0.148131	0.947736	-0.470569	0.882360	0.002395	-0.835890	-0.446653	0.319045
29195	9.341512	0.025983	3.126279	-0.001374	-0.000328	0.004395	0.282572	0.148130	0.947740	-0.470562	0.882364	0.002388	-0.835898	-0.446645	0.319035
29196	9.372046	0.009037	3.175122	-0.000084	0.004724	0.003366	0.282607	0.148142	0.947727	-0.470564	0.882362	0.002395	-0.835884	-0.446643	0.319072
29197	9.341377	0.025212	3.126690	-0.001375	-0.000328	0.004395	0.282595	0.148142	0.947731	-0.470556	0.882367	0.002386	-0.835893	-0.446634	0.319061
29198	9.372012	0.008198	3.175223	-0.001171	-0.001918	0.004406	0.282570	0.148133	0.947740	-0.470552	0.882369	0.002380	-0.835904	-0.446633	0.319036
29199	9.354423	0.053039	3.140495	-0.003681	0.002572	0.005365	0.282578	0.148154	0.947734	-0.470529	0.882382	0.002356	-0.835914	-0.446602	0.319052
29200	9.380466	0.008622	3.121553	0.001765	0.001715	0.003860	0.282586	0.148157	0.947731	-0.470548	0.882371	0.002364	-0.835901	-0.446621	0.319061
29201	9.326621	0.045746	3.180528	0.000781	0.001653	0.001924	0.282603	0.148142	0.947729	-0.470554	0.882368	0.002389	-0.835892	-0.446633	0.319068
29202	9.380398	0.008008	3.121760	-0.003275	-0.000608	0.005388	0.282584	0.148149	0.947733	-0.470535	0.882378	0.002366	-0.835908	-0.446611	0.319055
29203	9.346589	0.024583	3.161065	0.001968	0.000124	0.003872	0.282576	0.148145	0.947736	-0.470556	0.882367	0.002373	-0.835899	-0.446633	0.319047
29204	9.374278	0.030880	3.121385	-0.000916	-0.000218	0.002930	0.282572	0.148132	0.947739	-0.470550	0.882370	0.002382	-0.835904	-0.446632	0.319037
29205	9.360444	0.027202	3.141198	-0.001375	-0.000328	0.004394	0.282560	0.148131	0.947743	-0.470548	0.882371	0.002376	-0.835909	-0.446630	0.319026
29206	9.333532	-0.005285	3.147287	0.000120	0.003134	0.003378	0.282582	0.148136	0.947736	-0.470553	0.882369	0.002384	-0.835899	-0.446633	0.319048
29207	9.379477	0.031761	3.155788	0.002223	0.001824	0.002395	0.282600	0.148127	0.947732	-0.470571	0.882359	0.002408	-0.835883	-0.446655	0.319059
29208	9.313464	0.014435	3.167065	-0.003275	-0.000608	0.005388	0.282581	0.148134	0.947736	-0.470552	0.882369	0.002385	-0.835900	-0.446633	0.319046
29209	9.365576	0.027547	3.175804	0.001104	0.003196	0.005313	0.282596	0.148157	0.947728	-0.470566	0.882362	0.002376	-0.835887	-0.446640	0.319069
29210	9.327198	0.016815	3.147561	-0.001119	0.001372	0.002918	0.282605	0.148150	0.947727	-0.470558	0.882366	0.002384	-0.835888	-0.446634	0.319074
29211	9.346358	0.021610	3.161772	0.000270	-0.001746	0.004877	0.282579	0.148148	0.947735	-0.470566	0.882362	0.002376	-0.835893	-0.446643	0.319050
29212	9.367985	0.051460	3.121578	-0.002156	-0.001980	0.002470	0.282563	0.148123	0.947744	-0.470548	0.882371	0.002385	-0.835908	-0.446633	0.319024
29213	9.361028	-0.001282	3.108189	0.002802	0.005067	0.004308	0.282597	0.148144	0.947730	-0.470574	0.882357	0.002392	-0.835882	-0.446653	0.319064
29214	9.365450	0.025792	3.176189	-0.002359	-0.000389	0.002459	0.282594	0.148126	0.947734	-0.470555	0.882367	0.002400	-0.835894	-0.446639	0.319053
29215	9.327149	0.015149	3.147712	0.000526	-0.000047	0.003401	0.282586	0.148117	0.947737	-0.470564	0.882363	0.002407	-0.835892	-0.446651	0.319042
29216	9.399278	0.007989	3.136821	-0.001833	-0.000436	0.005859	0.282567	0.148129	0.947741	-0.470558	0.882366	0.002385	-0.835901	-0.446642	0.319030
29217	9.334902	0.041094	3.127464	-0.002817	-0.000498	0.003923	0.282556	0.148123	0.947745	-0.470541	0.882375	0.002379	-0.835914	-0.446625	0.319019
29218	9.385430	0.003780	3.156663	0.000323	0.001543	0.003389	0.282565	0.148121	0.947743	-0.470547	0.882372	0.002387	-0.835908	-0.446632	0.319025
29219	9.373149	0.050738	3.156115	0.000323	0.001543	0.003389	0.282573	0.148119	0.947741	-0.470552	0.882369	0.002394	-0.835903	-0.446638	0.319031
29220	9.347028	-0.007242	3.128481	-0.001578	0.001264	0.004383	0.282574	0.148125	0.947740	-0.470545	0.882373	0.002387	-0.835906	-0.446629	0.319036
29221	9.353910	0.044806	3.142149	0.000323	0.001543	0.003389	0.282583	0.148123	0.947738	-0.470548	0.882371	0.002394	-0.835902	-0.446632	0.319042
29222	9.385249	0.002319	3.157203	-0.001578	0.001264	0.004383	0.282584	0.148129	0.947736	-0.470540	0.882375	0.002387	-0.835905	-0.446623	0.319046
29223	9.339972	0.040825	3.162260	0.002224	0.001823	0.002395	0.282600	0.148119	0.947733	-0.470559	0.882365	0.002410	-0.835890	-0.446646	0.319055
29224	9.359937	0.020105	3.142762	-0.001631	-0.002026	0.005870	0.282567	0.148124	0.947742	-0.470556	0.882367	0.002389	-0.835903	-0.446641	0.319028
29225	9.340820	0.014417	3.128422	-0.001375	-0.000327	0.004394	0.282555	0.148123	0.947746	-0.470552	0.882369	0.002382	-0.835909	-0.446637	0.319017
29226	9.367701	0.046044	3.122515	-0.001577	0.001264	0.004383	0.282557	0.148128	0.947745	-0.470544	0.882373	0.002375	-0.835912	-0.446627	0.319021
29227	9.346101	0.015373	3.162567	-0.002817	-0.000497	0.003923	0.282547	0.148122	0.947748	-0.470526	0.882383	0.002369	-0.835926	-0.446609	0.319010
29228	9.353828	0.041991	3.142434	-0.000661	0.001482	0.001453	0.282564	0.148103	0.947746	-0.470518	0.882387	0.002392	-0.835925	-0.446607	0.319016
29229	9.365995	-0.005511	3.143265	0.000323	0.001543	0.003389	0.282574	0.148101	0.947744	-0.470522	0.882385	0.002401	-0.835919	-0.446613	0.319024
29230	9.345994	0.014452	3.162886	-0.001577	0.001264	0.004383	0.282576	0.148107	0.947742	-0.470515	0.882389	0.002394	-0.835923	-0.446603	0.319028
29231	9.359747	0.017428	3.143345	0.001820	0.005004	0.002373	0.282618	0.148111	0.947729	-0.470532	0.882380	0.002417	-0.835899	-0.446620	0.319068
29232	9.358903	0.042548	3.177197	-0.003074	-0.002196	0.005399	0.282586	0.148110	0.947739	-0.470515	0.882389	0.002395	-0.835919	-0.446602	0.319039
29233	9.340558	0.011362	3.129217	0.001307	0.001605	0.005325	0.282587	0.148125	0.947736	-0.470532	0.882379	0.002388	-0.835909	-0.446615	0.319047
29234	9.359640	0.016206	3.143668	-0.000862	0.003072	0.001442	0.282617	0.148113	0.947729	-0.470523	0.882384	0.002411	-0.835904	-0.446610	0.319068
29235	9.364848	0.017834	3.178017	-0.001321	0.002963	0.002906	0.282640	0.148114	0.947722	-0.470513	0.882390	0.002418	-0.835902	-0.446599	0.319088
29236	9.320343	0.030778	3.149485	-0.000337	0.003025	0.004842	0.282654	0.148131	0.947715	-0.470517	0.882387	0.002411	-0.835895	-0.446598	0.319109
29237	9.354133	0.013182	3.110220	-0.000190	-0.001855	0.006341	0.282620	0.148141	0.947724	-0.470527	0.882382	0.002388	-0.835901	-0.446605	0.319083
29238	9.358669	0.040099	3.177918	0.000525	-0.000047	0.003400	0.282615	0.148132	0.947727	-0.470535	0.882378	0.002397	-0.835898	-0.446616	0.319075
29239	9.378549	0.019512	3.158647	-0.001064	0.004663	0.001430	0.282658	0.148127	0.947715	-0.470521	0.882385	0.002418	-0.835891	-0.446603	0.319110
29240	9.353254	0.037767	3.144194	-0.002158	-0.001978	0.002469	0.282642	0.148101	0.947723	-0.470504	0.882395	0.002427	-0.835907	-0.446593	0.319084
29241	9.353284	0.037468	3.144107	0.001967	0.000123	0.003872	0.282635	0.148098	0.947726	-0.470526	0.882383	0.002435	-0.835896	-0.446618	0.319076
29242	9.320252	0.028733	3.149775	-0.001119	0.001373	0.002918	0.282645	0.148091	0.947724	-0.470518	0.882387	0.002443	-0.835897	-0.446612	0.319082
29243	9.384588	-0.005272	3.159163	0.000525	-0.000047	0.003400	0.282639	0.148082	0.947727	-0.470526	0.882383	0.002452	-0.835895	-0.446624	0.319072
29244	9.347101	0.060116	3.144041	0.001105	0.003196	0.005313	0.282653	0.148105	0.947720	-0.470544	0.882373	0.002445	-0.835880	-0.446635	0.319095
29245	9.365334	-0.011108	3.145221	-0.000459	-0.000109	0.001465	0.282655	0.148079	0.947723	-0.470537	0.882377	0.002467	-0.835884	-0.446636	0.319085
29246	9.353130	0.035865	3.144585	-0.001578	0.001265	0.004382	0.282657	0.148085	0.947722	-0.470529	0.882381	0.002459	-0.835887	-0.446626	0.319089
29247	9.359178	0.011767	3.145064	0.001307	0.001605	0.005325	0.282657	0.148100	0.947719	-0.470550	0.882370	0.002454	-0.835875	-0.446643	0.319097
29248	9.353066	0.035026	3.144784	-0.000917	-0.000217	0.002929	0.282653	0.148087	0.947722	-0.470544	0.882373	0.002462	-0.835880	-0.446641	0.319087
29249	9.365233	-0.012635	3.145515	-0.003020	0.001095	0.003911	0.282657	0.148087	0.947721	-0.470526	0.882383	0.002456	-0.835889	-0.446621	0.319090
29250	9.378283	0.015765	3.159456	0.000525	-0.000047	0.003400	0.282652	0.148079	0.947724	-0.470533	0.882379	0.002465	-0.835887	-0.446632	0.319082
29251	9.353021	0.033958	3.144930	-0.002561	0.001203	0.002446	0.282661	0.148067	0.947723	-0.470513	0.882390	0.002472	-0.835895	-0.446615	0.319085
29252	9.398163	-0.005135	3.140166	0.002224	0.001822	0.002396	0.282677	0.148058	0.947720	-0.470532	0.882379	0.002496	-0.835879	-0.446638	0.319094
29253	9.352928	0.033495	3.145213	-0.002561	0.001203	0.002446	0.282686	0.148046	0.947719	-0.470509	0.882391	0.002502	-0.835889	-0.446618	0.319097
29254	9.358974	0.009319	3.145678	0.000389	0.001388	0.008254	0.282670	0.148087	0.947717	-0.470530	0.882381	0.002465	-0.835882	-0.446626	0.319102
29255	9.352875	0.032428	3.145381	-0.002360	-0.000387	0.002458	0.282666	0.148067	0.947721	-0.470508	0.882392	0.002473	-0.835896	-0.446609	0.319089
29256	9.365074	-0.015230	3.145977	0.001710	-0.001576	0.005347	0.282639	0.148069	0.947729	-0.470531	0.882380	0.002467	-0.835892	-0.446633	0.319066
29257	9.366770	0.034953	3.125450	-0.001119	0.001374	0.002918	0.282648	0.148062	0.947727	-0.470522	0.882385	0.002474	-0.835894	-0.446626	0.319071
29258	9.345118	0.004301	3.165506	-0.000393	-0.000264	0.006329	0.282628	0.148078	0.947731	-0.470530	0.882380	0.002452	-0.835896	-0.446629	0.319061
29259	9.385891	0.039174	3.139807	0.001766	0.001714	0.003860	0.282636	0.148082	0.947728	-0.470548	0.882371	0.002459	-0.835883	-0.446647	0.319070
29260	9.345026	0.003310	3.165777	-0.002696	0.002639	0.007300	0.282636	0.148120	0.947722	-0.470540	0.882375	0.002420	-0.835888	-0.446625	0.319087
29261	9.353541	0.004421	3.112025	0.003343	0.000448	-0.000522	0.282653	0.148078	0.947724	-0.470564	0.882363	0.002477	-0.835869	-0.446664	0.319083
29262	9.371945	0.034754	3.159907	-0.002093	-0.002133	0.007334	0.282612	0.148095	0.947733	-0.470560	0.882364	0.002440	-0.835885	-0.446655	0.319055
29263	9.372736	0.008798	3.126153	-0.000660	0.001482	0.001453	0.282626	0.148076	0.947732	-0.470553	0.882368	0.002462	-0.835884	-0.446654	0.319058
29264	9.365892	0.057638	3.159506	-0.002617	-0.002086	0.003934	0.282602	0.148063	0.947741	-0.470536	0.882377	0.002455	-0.835902	-0.446640	0.319031
29265	9.345032	0.001494	3.165762	0.001307	0.001605	0.005325	0.282600	0.148078	0.947740	-0.470555	0.882367	0.002447	-0.835892	-0.446655	0.319036
29266	9.380497	0.034498	3.106064	-0.001577	0.001266	0.004382	0.282601	0.148084	0.947738	-0.470547	0.882371	0.002440	-0.835896	-0.446645	0.319040
29267	9.350245	0.002356	3.200077	-0.002036	0.001158	0.005846	0.282596	0.148102	0.947737	-0.470541	0.882375	0.002418	-0.835901	-0.446633	0.319044
29268	9.371850	0.032161	3.160215	0.002225	0.001822	0.002396	0.282612	0.148093	0.947734	-0.470560	0.882364	0.002442	-0.835885	-0.446656	0.319053
29269	9.338811	0.023309	3.165865	-0.002294	-0.000541	0.007322	0.282586	0.148116	0.947738	-0.470556	0.882367	0.002405	-0.835896	-0.446643	0.319041
29270	9.352609	0.026118	3.146230	-0.001061	0.004664	0.001430	0.282630	0.148111	0.947725	-0.470545	0.882373	0.002428	-0.835888	-0.446633	0.319078
29271	9.363898	0.003941	3.180862	0.002491	0.000076	0.007272	0.282608	0.148137	0.947728	-0.470582	0.882353	0.002406	-0.835874	-0.446663	0.319070
29272	9.333359	0.020156	3.132271	-0.002561	0.001205	0.002446	0.282618	0.148126	0.947727	-0.470561	0.882364	0.002414	-0.835883	-0.446645	0.319074
29273	9.371662	0.030017	3.160792	-0.001377	-0.000325	0.004393	0.282604	0.148125	0.947731	-0.470553	0.882368	0.002405	-0.835891	-0.446637	0.319062
29274	9.352488	0.024440	3.146605	-0.000135	0.001436	0.004853	0.282605	0.148136	0.947729	-0.470559	0.882365	0.002398	-0.835888	-0.446640	0.319068
29275	9.358506	0.000411	3.147087	0.000324	0.001544	0.003389	0.282612	0.148134	0.947727	-0.470566	0.882361	0.002405	-0.835882	-0.446648	0.319072
29276	9.346328	0.047323	3.146556	0.002749	0.001775	0.005796	0.282611	0.148155	0.947724	-0.470599	0.882344	0.002398	-0.835863	-0.446676	0.319081
29277	9.333207	0.018255	3.132736	-0.000459	-0.000108	0.001464	0.282613	0.148129	0.947728	-0.470592	0.882348	0.002421	-0.835867	-0.446677	0.319071
29278	9.343751	0.021725	3.200998	-0.002761	0.002796	0.002435	0.282637	0.148124	0.947721	-0.470569	0.882360	0.002428	-0.835872	-0.446655	0.319090
29279	9.366176	0.026024	3.127317	-0.001176	-0.001915	0.004404	0.282612	0.148116	0.947730	-0.470562	0.882363	0.002421	-0.835884	-0.446650	0.319064
29280	9.371500	0.027423	3.161296	0.001508	0.000014	0.005336	0.282598	0.148125	0.947733	-0.470584	0.882352	0.002414	-0.835876	-0.446670	0.319056
29281	9.346264	0.045425	3.146775	-0.000594	0.001328	0.006317	0.282592	0.148148	0.947731	-0.470588	0.882350	0.002391	-0.835876	-0.446667	0.319062
29282	9.358339	-0.002406	3.147582	-0.001577	0.001267	0.004382	0.282594	0.148154	0.947730	-0.470581	0.882354	0.002384	-0.835879	-0.446657	0.319066
29283	9.371423	0.025975	3.161538	0.000524	-0.000047	0.003400	0.282591	0.148145	0.947732	-0.470588	0.882350	0.002393	-0.835876	-0.446667	0.319059
29284	9.333107	0.015524	3.133048	-0.000459	-0.000108	0.001464	0.282595	0.148119	0.947735	-0.470582	0.882353	0.002417	-0.835879	-0.446670	0.319051
29285	9.371352	0.025363	3.161753	0.001890	0.004848	0.007237	0.282612	0.148166	0.947722	-0.470610	0.882338	0.002392	-0.835857	-0.446683	0.319088
29286	9.352148	0.019718	3.147648	-0.001177	-0.001915	0.004404	0.282587	0.148158	0.947731	-0.470606	0.882340	0.002386	-0.835868	-0.446682	0.319062
29287	9.319127	0.011044	3.153212	-0.000659	0.001483	0.001453	0.282605	0.148139	0.947728	-0.470597	0.882345	0.002409	-0.835867	-0.446679	0.319069
29288	9.385190	0.027408	3.142027	-0.000194	-0.001854	0.006340	0.282571	0.148148	0.947737	-0.470607	0.882340	0.002388	-0.835872	-0.446686	0.319044
29289	9.358249	-0.005215	3.147847	-0.001836	-0.000432	0.005857	0.282549	0.148159	0.947742	-0.470602	0.882343	0.002364	-0.835883	-0.446677	0.319029
29290	9.346133	0.041630	3.147214	0.000324	0.001544	0.003389	0.282558	0.148158	0.947740	-0.470608	0.882339	0.002373	-0.835876	-0.446684	0.319036
29291	9.366007	0.020856	3.127862	-0.001577	0.001267	0.004382	0.282561	0.148164	0.947738	-0.470599	0.882344	0.002365	-0.835880	-0.446673	0.319042
29292	9.352118	0.017291	3.147750	0.000983	0.000061	0.001936	0.282564	0.148143	0.947740	-0.470606	0.882340	0.002389	-0.835875	-0.446688	0.319034
29293	9.365208	0.045819	3.161725	0.000324	0.001544	0.003389	0.282571	0.148142	0.947738	-0.470612	0.882337	0.002396	-0.835869	-0.446694	0.319040
29294	9.352076	0.016758	3.147879	-0.002360	-0.000385	0.002457	0.282568	0.148123	0.947742	-0.470593	0.882347	0.002404	-0.835881	-0.446680	0.319029
29295	9.365224	0.045137	3.161688	0.001707	-0.001577	0.005347	0.282539	0.148124	0.947750	-0.470616	0.882335	0.002397	-0.835878	-0.446704	0.319004
29296	9.371245	0.021106	3.162103	0.000124	0.003135	0.003377	0.282561	0.148130	0.947743	-0.470620	0.882333	0.002405	-0.835868	-0.446706	0.319026
29297	9.352009	0.015619	3.148082	0.001307	0.001605	0.005324	0.282559	0.148145	0.947741	-0.470640	0.882322	0.002397	-0.835858	-0.446723	0.319031
29298	9.371124	0.020337	3.162465	-0.001118	0.001375	0.002917	0.282568	0.148138	0.947739	-0.470633	0.882326	0.002405	-0.835859	-0.446717	0.319036
29299	9.371132	0.020034	3.162445	-0.000718	-0.001806	0.002940	0.282550	0.148118	0.947748	-0.470629	0.882328	0.002414	-0.835867	-0.446720	0.319010
29300	9.358015	-0.009021	3.148532	0.000324	0.001544	0.003389	0.282559	0.148116	0.947746	-0.470635	0.882325	0.002422	-0.835861	-0.446727	0.319017
29301	9.345882	0.037979	3.148006	0.003209	0.001882	0.004331	0.282569	0.148124	0.947742	-0.470667	0.882308	0.002432	-0.835839	-0.446758	0.319030
29302	9.357966	-0.009705	3.148675	-0.004062	-0.002252	0.003461	0.282546	0.148106	0.947751	-0.470636	0.882324	0.002425	-0.835865	-0.446731	0.319001
29303	9.345897	0.037299	3.147969	0.002226	0.001821	0.002396	0.282560	0.148097	0.947748	-0.470654	0.882314	0.002448	-0.835849	-0.446754	0.319009
29304	9.365761	0.016516	3.128626	-0.002036	0.001160	0.005846	0.282554	0.148115	0.947747	-0.470647	0.882318	0.002426	-0.835855	-0.446740	0.319013
29305	9.364973	0.041554	3.162479	0.000324	0.001544	0.003389	0.282562	0.148114	0.947745	-0.470657	0.882313	0.002434	-0.835847	-0.446751	0.319019
29306	9.384865	0.020771	3.143047	-0.002820	-0.000492	0.003921	0.282551	0.148107	0.947750	-0.470638	0.882323	0.002427	-0.835862	-0.446733	0.319006
29307	9.351813	0.012118	3.148681	0.000783	0.001652	0.001924	0.282567	0.148093	0.947747	-0.470645	0.882319	0.002452	-0.835852	-0.446746	0.319014
29308	9.345757	0.035543	3.148406	-0.000918	-0.000215	0.002928	0.282563	0.148079	0.947750	-0.470640	0.882322	0.002460	-0.835857	-0.446744	0.319004
29309	9.365593	0.014831	3.129135	-0.000075	0.004726	0.003366	0.282597	0.148092	0.947738	-0.470642	0.882321	0.002467	-0.835844	-0.446743	0.319040
29310	9.359518	0.038102	3.128925	-0.001178	-0.001914	0.004404	0.282572	0.148084	0.947747	-0.470638	0.882323	0.002461	-0.835854	-0.446741	0.319014
29311	9.351678	0.010895	3.149087	0.002226	0.001820	0.002396	0.282587	0.148074	0.947744	-0.470657	0.882313	0.002483	-0.835839	-0.446764	0.319022
29312	9.370819	0.015681	3.163395	-0.002820	-0.000491	0.003921	0.282576	0.148068	0.947748	-0.470638	0.882323	0.002476	-0.835853	-0.446746	0.319010
29313	9.346356	0.008368	3.115121	-0.001118	0.001376	0.002917	0.282586	0.148061	0.947746	-0.470631	0.882327	0.002485	-0.835854	-0.446741	0.319015
29314	9.350907	0.035401	3.182906	0.000723	-0.001638	0.003411	0.282568	0.148045	0.947754	-0.470640	0.882322	0.002494	-0.835855	-0.446756	0.318992
29315	9.346389	0.007767	3.115022	-0.000918	-0.000215	0.002928	0.282563	0.148033	0.947757	-0.470633	0.882325	0.002501	-0.835860	-0.446753	0.318982
29316	9.364765	0.038044	3.163140	0.001567	0.003304	0.003849	0.282585	0.148043	0.947750	-0.470651	0.882316	0.002509	-0.835843	-0.446768	0.319006
29317	9.345556	0.032574	3.149033	-0.001378	-0.000323	0.004393	0.282572	0.148041	0.947754	-0.470648	0.882318	0.002503	-0.835849	-0.446766	0.318993
29318	9.351544	0.008533	3.149491	-0.002760	0.002799	0.002434	0.282596	0.148037	0.947747	-0.470625	0.882330	0.002511	-0.835854	-0.446743	0.319012
29319	9.370697	0.013085	3.163770	-0.002097	-0.002129	0.007332	0.282554	0.148054	0.947757	-0.470622	0.882332	0.002472	-0.835870	-0.446734	0.318984
29320	9.357562	-0.016110	3.149850	0.002226	0.001820	0.002396	0.282570	0.148045	0.947754	-0.470641	0.882321	0.002496	-0.835854	-0.446757	0.318993
29321	9.383817	0.041069	3.177739	0.000064	-0.000154	0.004864	0.282557	0.148050	0.947757	-0.470651	0.882316	0.002489	-0.835852	-0.446766	0.318985
29322	9.338329	-0.021955	3.135807	-0.001776	0.002860	0.004370	0.282572	0.148062	0.947750	-0.470642	0.882321	0.002481	-0.835852	-0.446752	0.319004
29323	9.359282	0.033381	3.129686	0.000983	0.000061	0.001936	0.282577	0.148041	0.947752	-0.470649	0.882317	0.002507	-0.835847	-0.446767	0.318998
29324	9.370538	0.011329	3.164247	0.000125	0.003136	0.003377	0.282599	0.148046	0.947745	-0.470653	0.882315	0.002514	-0.835837	-0.446770	0.319020
29325	9.359166	0.032839	3.130039	-0.002560	0.001208	0.002445	0.282608	0.148034	0.947744	-0.470633	0.882325	0.002522	-0.835845	-0.446753	0.319022
29326	9.345274	0.029138	3.149905	-0.000395	-0.000261	0.006328	0.282588	0.148050	0.947747	-0.470641	0.882321	0.002500	-0.835847	-0.446756	0.319012
29327	9.371163	-0.015314	3.130839	0.002226	0.001820	0.002396	0.282606	0.148041	0.947744	-0.470657	0.882312	0.002524	-0.835832	-0.446776	0.319023
29328	9.339239	0.052116	3.149625	-0.002621	-0.002081	0.003932	0.282582	0.148028	0.947753	-0.470640	0.882322	0.002518	-0.835850	-0.446762	0.318996
29329	9.409503	-0.005917	3.159293	-0.000135	0.001437	0.004853	0.282581	0.148039	0.947751	-0.470646	0.882319	0.002510	-0.835847	-0.446764	0.319000
29330	9.281011	0.061546	3.140644	0.000524	-0.000047	0.003400	0.282577	0.148030	0.947754	-0.470653	0.882315	0.002518	-0.835844	-0.446775	0.318992
29331	9.429383	-0.027173	3.139847	-0.003280	-0.000597	0.005385	0.282560	0.148036	0.947758	-0.470630	0.882327	0.002495	-0.835863	-0.446748	0.318981
29332	9.280987	0.060714	3.140731	-0.000857	0.003075	0.001442	0.282591	0.148024	0.947751	-0.470621	0.882332	0.002518	-0.835858	-0.446743	0.319002
29333	9.377092	-0.041260	3.131415	-0.001378	-0.000322	0.004392	0.282582	0.148022	0.947753	-0.470613	0.882336	0.002513	-0.835865	-0.446735	0.318994
29334	9.352352	0.078421	3.163697	0.001705	-0.001577	0.005347	0.282556	0.148024	0.947761	-0.470636	0.882324	0.002507	-0.835862	-0.446758	0.318971
29335	9.332823	-0.028724	3.102354	-0.009049	-0.001268	0.003498	0.282541	0.148011	0.947768	-0.470560	0.882364	0.002482	-0.835909	-0.446683	0.318952
29336	9.416632	0.043728	3.172914	0.009113	0.001114	0.001366	0.282555	0.147990	0.947767	-0.470634	0.882325	0.002537	-0.835863	-0.446768	0.318954
29337	9.273137	0.032082	3.160862	-0.009248	0.000323	0.003487	0.282553	0.147983	0.947768	-0.470559	0.882365	0.002514	-0.835906	-0.446691	0.318949
29338	9.435337	-0.053360	3.140325	0.008195	0.000900	0.004294	0.282552	0.147986	0.947768	-0.470633	0.882326	0.002539	-0.835864	-0.446768	0.318950
29339	9.276087	0.157940	3.153790	-0.008005	0.002082	0.003947	0.282563	0.147991	0.947764	-0.470575	0.882357	0.002518	-0.835893	-0.446705	0.318962
29340	9.453983	-0.150684	3.107869	0.004850	0.000457	0.004815	0.282556	0.147997	0.947765	-0.470622	0.882331	0.002527	-0.835869	-0.446753	0.318959
29341	9.282515	0.235073	3.201153	0.000722	-0.001638	0.003411	0.282537	0.147982	0.947773	-0.470629	0.882328	0.002533	-0.835872	-0.446765	0.318935
29342	9.408484	-0.213971	3.065788	-0.003677	0.002586	0.005362	0.282545	0.148003	0.947768	-0.470607	0.882340	0.002510	-0.835881	-0.446735	0.318952
29343	9.332774	0.197197	3.230607	0.006030	0.002369	0.000411	0.282571	0.147979	0.947764	-0.470653	0.882315	0.002563	-0.835846	-0.446792	0.318964
29344	9.370467	-0.123178	3.084600	-0.010167	0.000110	0.006415	0.282554	0.147997	0.947766	-0.470580	0.882354	0.002509	-0.835893	-0.446709	0.318957
29345	9.364614	0.128680	3.211982	0.009113	0.001113	0.001366	0.282570	0.147976	0.947764	-0.470653	0.882315	0.002565	-0.835847	-0.446793	0.318961
29346	9.351732	-0.027459	3.117339	-0.012853	-0.001816	0.005483	0.282541	0.147978	0.947773	-0.470555	0.882367	0.002512	-0.835912	-0.446688	0.318937
29347	9.378076	0.029614	3.145131	0.009114	0.001112	0.001366	0.282554	0.147957	0.947772	-0.470628	0.882328	0.002566	-0.835866	-0.446773	0.318938
29348	9.352864	0.047983	3.130683	-0.009447	0.001916	0.003475	0.282566	0.147957	0.947769	-0.470553	0.882368	0.002542	-0.835905	-0.446693	0.318949
29349	9.382790	-0.070796	3.132567	0.006094	0.002215	0.005275	0.282574	0.147975	0.947763	-0.470612	0.882336	0.002552	-0.835869	-0.446750	0.318964
29350	9.301025	0.135401	3.169235	-0.005246	-0.000717	0.001513	0.282572	0.147947	0.947768	-0.470566	0.882361	0.002560	-0.835895	-0.446711	0.318950
29351	9.383439	-0.096899	3.099015	0.000126	0.003136	0.003377	0.282596	0.147952	0.947760	-0.470568	0.882360	0.002568	-0.835886	-0.446711	0.318973
29352	9.345300	0.121169	3.198257	0.000262	-0.001745	0.004875	0.282571	0.147949	0.947768	-0.470578	0.882355	0.002562	-0.835889	-0.446722	0.318949
29353	9.363564	-0.077227	3.118462	-0.002361	-0.000382	0.002456	0.282568	0.147931	0.947772	-0.470561	0.882364	0.002571	-0.835900	-0.446711	0.318938
29354	9.385078	0.079627	3.159257	0.001767	0.001712	0.003860	0.282576	0.147934	0.947769	-0.470580	0.882354	0.002579	-0.835886	-0.446730	0.318946
29355	9.337624	-0.033820	3.137800	-0.003019	0.001103	0.003909	0.282579	0.147935	0.947768	-0.470556	0.882366	0.002571	-0.835898	-0.446705	0.318950
29356	9.345947	0.094311	3.164763	0.003669	0.001986	0.002868	0.282594	0.147931	0.947764	-0.470589	0.882349	0.002595	-0.835875	-0.446740	0.318961
29357	9.331546	-0.010845	3.137715	-0.009248	0.000327	0.003486	0.282592	0.147925	0.947766	-0.470522	0.882385	0.002574	-0.835913	-0.446672	0.318957
29358	9.396971	0.030917	3.160224	0.007608	-0.002346	0.002381	0.282573	0.147897	0.947776	-0.470586	0.882350	0.002615	-0.835884	-0.446749	0.318927
29359	9.319595	0.036037	3.136953	-0.005643	0.002467	0.001490	0.282600	0.147882	0.947770	-0.470536	0.882377	0.002623	-0.835902	-0.446702	0.318944
29360	9.389688	-0.022008	3.146931	0.003994	0.003531	0.006256	0.282612	0.147915	0.947761	-0.470581	0.882353	0.002615	-0.835873	-0.446738	0.318969
29361	9.359675	0.095859	3.145464	-0.003019	0.001103	0.003909	0.282612	0.147916	0.947761	-0.470560	0.882364	0.002606	-0.835885	-0.446715	0.318970
29362	9.318211	-0.041238	3.124254	0.000523	-0.000047	0.003400	0.282607	0.147907	0.947764	-0.470568	0.882360	0.002615	-0.835882	-0.446726	0.318962
29363	9.397999	0.105354	3.174016	-0.000460	-0.000107	0.001464	0.282611	0.147881	0.947767	-0.470560	0.882364	0.002639	-0.835885	-0.446727	0.318952
29364	9.335473	-0.087431	3.158953	-0.003740	-0.000702	0.006848	0.282584	0.147900	0.947772	-0.470542	0.882374	0.002601	-0.835904	-0.446702	0.318938
29365	9.367543	0.121386	3.125455	0.002948	0.003624	-0.000543	0.282628	0.147873	0.947763	-0.470558	0.882365	0.002654	-0.835880	-0.446728	0.318964
29366	9.323435	-0.040709	3.158470	-0.004985	-0.002460	0.006387	0.282589	0.147879	0.947774	-0.470528	0.882381	0.002617	-0.835910	-0.446694	0.318933
29367	9.371600	0.046396	3.146322	0.005112	0.002153	0.003340	0.282602	0.147880	0.947770	-0.470574	0.882357	0.002640	-0.835881	-0.446741	0.318944
29368	9.330598	0.010839	3.172162	-0.007806	0.000496	0.003957	0.282599	0.147879	0.947771	-0.470513	0.882389	0.002617	-0.835916	-0.446678	0.318941
29369	9.320028	0.006899	3.104056	0.002885	0.000334	0.000944	0.282609	0.147851	0.947772	-0.470532	0.882379	0.002655	-0.835902	-0.446708	0.318937
29370	9.371526	0.045400	3.146556	-0.002037	0.001164	0.005844	0.282603	0.147870	0.947771	-0.470525	0.882383	0.002632	-0.835908	-0.446694	0.318940
29371	9.350385	-0.010668	3.152923	0.001767	0.001712	0.003860	0.282590	0.148022	0.947751	-0.470566	0.882361	0.002499	-0.835889	-0.446686	0.319001
29372	9.365459	0.068226	3.146495	-0.001577	0.001271	0.004380	0.282592	0.148028	0.947750	-0.470559	0.882365	0.002491	-0.835892	-0.446676	0.319005
29373	9.350348	-0.011429	3.153030	-0.002164	-0.001972	0.002467	0.282576	0.148003	0.947758	-0.470542	0.882374	0.002500	-0.835907	-0.446667	0.318979
29374	9.346334	0.062505	3.132129	0.003408	0.000287	0.004343	0.282569	0.148005	0.947760	-0.470577	0.882356	0.002509	-0.835890	-0.446703	0.318974
29375	9.375448	-0.030741	3.167748	-0.004857	0.004120	0.003415	0.282603	0.148015	0.947749	-0.470538	0.882376	0.002501	-0.835901	-0.446658	0.319008
29376	9.359420	0.090446	3.146381	0.002163	-0.001471	0.003882	0.282584	0.148004	0.947756	-0.470560	0.882364	0.002510	-0.835894	-0.446686	0.318987
29377	9.350941	-0.038437	3.119595	-0.003677	0.002589	0.005361	0.282591	0.148025	0.947750	-0.470537	0.882377	0.002485	-0.835905	-0.446654	0.319003
29378	9.340196	0.084569	3.132317	0.003867	0.000394	0.002879	0.282592	0.148014	0.947752	-0.470571	0.882359	0.002509	-0.835886	-0.446693	0.318999
29379	9.356173	-0.037308	3.153795	-0.004264	-0.000654	0.003448	0.282582	0.148003	0.947757	-0.470536	0.882377	0.002501	-0.835909	-0.446660	0.318985
29380	9.365326	0.065179	3.146957	0.004193	0.001938	0.006268	0.282581	0.148029	0.947753	-0.470582	0.882353	0.002494	-0.835883	-0.446701	0.318995
29381	9.364047	-0.011173	3.133774	-0.003345	-0.000440	0.000520	0.282585	0.147992	0.947757	-0.470549	0.882370	0.002518	-0.835900	-0.446678	0.318983
29382	9.371977	0.015493	3.113601	0.000523	-0.000047	0.003399	0.282581	0.147984	0.947760	-0.470557	0.882366	0.002527	-0.835897	-0.446689	0.318974
29383	9.351459	0.060896	3.166720	-0.002101	-0.002125	0.007330	0.282541	0.148000	0.947769	-0.470554	0.882368	0.002490	-0.835912	-0.446680	0.318948
29384	9.350179	-0.015683	3.153513	0.000128	0.003136	0.003377	0.282563	0.148006	0.947762	-0.470558	0.882365	0.002498	-0.835903	-0.446683	0.318970
29385	9.365269	0.063276	3.147163	-0.001117	0.001378	0.002917	0.282573	0.147999	0.947760	-0.470553	0.882368	0.002507	-0.835902	-0.446680	0.318975
29386	9.383151	-0.008044	3.148220	-0.000920	-0.000213	0.002928	0.282569	0.147986	0.947763	-0.470547	0.882371	0.002515	-0.835907	-0.446678	0.318965
29387	9.320958	0.076201	3.118352	0.000063	-0.000153	0.004863	0.282556	0.147990	0.947766	-0.470555	0.882367	0.002507	-0.835907	-0.446684	0.318956
29388	9.350079	-0.017058	3.153802	-0.004002	0.001045	0.001973	0.282567	0.147974	0.947766	-0.470520	0.882386	0.002515	-0.835922	-0.446654	0.318958
29389	9.357270	0.035011	3.167545	0.006095	0.002211	0.005276	0.282571	0.147992	0.947762	-0.470578	0.882355	0.002523	-0.835889	-0.446709	0.318970
29390	9.338738	0.003968	3.119700	-0.002496	0.001059	0.007308	0.282558	0.148023	0.947761	-0.470572	0.882358	0.002484	-0.835897	-0.446691	0.318972
29391	9.363214	0.010431	3.167940	0.001837	-0.003016	0.000494	0.282539	0.147976	0.947774	-0.470579	0.882354	0.002522	-0.835899	-0.446715	0.318934
29392	9.351960	0.031989	3.133588	-0.003873	0.004182	0.005350	0.282561	0.148003	0.947763	-0.470556	0.882367	0.002498	-0.835905	-0.446681	0.318966
29393	9.377024	0.012806	3.148377	0.001505	0.000013	0.005335	0.282546	0.148012	0.947766	-0.470578	0.882355	0.002491	-0.835897	-0.446701	0.318957
29394	9.312834	0.046349	3.139128	-0.003676	0.002591	0.005361	0.282555	0.148033	0.947760	-0.470556	0.882367	0.002468	-0.835907	-0.446671	0.318974
29395	9.369685	-0.040562	3.135034	0.001965	0.000120	0.003871	0.282551	0.148029	0.947762	-0.470577	0.882355	0.002478	-0.835896	-0.446695	0.318969
29396	9.333926	0.101178	3.133102	-0.001117	0.001379	0.002916	0.282561	0.148022	0.947760	-0.470570	0.882359	0.002485	-0.835897	-0.446689	0.318975
29397	9.350444	-0.046197	3.120981	0.000326	0.001545	0.003388	0.282573	0.148020	0.947757	-0.470579	0.882355	0.002497	-0.835888	-0.446699	0.318984
29398	9.370215	0.060048	3.182310	0.000523	-0.000047	0.003399	0.282568	0.148012	0.947759	-0.470586	0.882350	0.002505	-0.835885	-0.446710	0.318976
29399	9.330618	-0.026338	3.140379	0.000917	-0.003230	0.003421	0.282537	0.147990	0.947772	-0.470596	0.882345	0.002514	-0.835890	-0.446728	0.318939
29400	9.384874	0.037109	3.128518	-0.000134	0.001439	0.004852	0.282538	0.148001	0.947770	-0.470602	0.882342	0.002507	-0.835886	-0.446731	0.318945
29401	9.343823	0.001525	3.154340	-0.003019	0.001106	0.003908	0.282540	0.148002	0.947769	-0.470583	0.882352	0.002499	-0.835896	-0.446710	0.318947
29402	9.331903	0.048496	3.153730	0.001965	0.000119	0.003871	0.282534	0.147999	0.947772	-0.470604	0.882341	0.002507	-0.835887	-0.446734	0.318940
29403	9.370903	0.032672	3.148567	-0.003019	0.001106	0.003908	0.282533	0.148000	0.947772	-0.470583	0.882352	0.002498	-0.835899	-0.446711	0.318940
29404	9.330521	-0.028312	3.140651	0.000326	0.001545	0.003388	0.282542	0.147998	0.947769	-0.470589	0.882349	0.002506	-0.835892	-0.446718	0.318947
29405	9.364918	0.055662	3.148354	0.000719	-0.001638	0.003410	0.282523	0.147983	0.947777	-0.470597	0.882345	0.002514	-0.835894	-0.446732	0.318923
29406	9.357648	0.002915	3.134743	-0.001577	0.001273	0.004380	0.282525	0.147989	0.947776	-0.470590	0.882348	0.002507	-0.835898	-0.446722	0.318928
29407	9.364908	0.054903	3.148395	0.000523	-0.000047	0.003399	0.282520	0.147980	0.947779	-0.470597	0.882345	0.002514	-0.835895	-0.446732	0.318919
29408	9.357612	0.002078	3.134853	-0.002037	0.001166	0.005844	0.282514	0.147999	0.947778	-0.470590	0.882348	0.002492	-0.835901	-0.446719	0.318922
29409	9.351630	0.025221	3.134634	-0.001577	0.001273	0.004380	0.282515	0.148004	0.947776	-0.470582	0.882353	0.002484	-0.835906	-0.446708	0.318926
29410	9.337687	0.021627	3.154579	0.000326	0.001545	0.003388	0.282523	0.148003	0.947774	-0.470588	0.882350	0.002492	-0.835899	-0.446715	0.318933
29411	9.337669	0.021248	3.154637	-0.001380	-0.000319	0.004391	0.282511	0.148001	0.947778	-0.470581	0.882353	0.002485	-0.835907	-0.446709	0.318921
29412	9.390634	0.008627	3.129446	0.002358	-0.003064	0.003893	0.282478	0.147984	0.947790	-0.470606	0.882340	0.002494	-0.835904	-0.446740	0.318884
29413	9.325818	0.067930	3.153891	-0.000067	0.004728	0.003366	0.282516	0.147995	0.947777	-0.470605	0.882341	0.002502	-0.835892	-0.446735	0.318923
29414	9.377332	-0.020750	3.115727	-0.001183	-0.001910	0.004402	0.282491	0.147987	0.947786	-0.470601	0.882343	0.002495	-0.835903	-0.446734	0.318897
29415	9.378644	0.054835	3.129126	0.000915	0.004788	0.005302	0.282520	0.148017	0.947773	-0.470615	0.882335	0.002487	-0.835885	-0.446738	0.318936
29416	9.351446	0.022480	3.135203	-0.004265	-0.000650	0.003447	0.282510	0.148007	0.947778	-0.470582	0.882353	0.002480	-0.835907	-0.446708	0.318922
29417	9.369988	0.052589	3.183109	0.002161	-0.001472	0.003882	0.282491	0.147996	0.947785	-0.470603	0.882341	0.002488	-0.835902	-0.446733	0.318901
29418	9.318388	0.013512	3.140712	-0.003215	0.002699	0.003897	0.282507	0.148004	0.947779	-0.470581	0.882353	0.002480	-0.835909	-0.446707	0.318919
29419	9.362649	-0.000538	3.169626	0.002161	-0.001473	0.003882	0.282487	0.147994	0.947786	-0.470606	0.882340	0.002489	-0.835902	-0.446737	0.318896
29420	9.359392	0.047698	3.115138	-0.001250	0.002818	0.007768	0.282486	0.148037	0.947780	-0.470611	0.882338	0.002451	-0.835899	-0.446728	0.318915
29421	9.357317	-0.003477	3.135731	-0.001380	-0.000318	0.004391	0.282475	0.148036	0.947783	-0.470609	0.882339	0.002445	-0.835904	-0.446726	0.318905
29422	9.372611	0.075391	3.129155	-0.002363	-0.000378	0.002455	0.282472	0.148018	0.947787	-0.470590	0.882349	0.002453	-0.835916	-0.446712	0.318894
29423	9.352063	-0.005955	3.101604	0.000522	-0.000047	0.003399	0.282467	0.148009	0.947790	-0.470598	0.882344	0.002461	-0.835913	-0.446723	0.318886
29424	9.356654	0.020938	3.169487	-0.000134	0.001439	0.004852	0.282467	0.148020	0.947788	-0.470604	0.882341	0.002454	-0.835909	-0.446726	0.318892
29425	9.359319	0.045492	3.115392	-0.002037	0.001168	0.005843	0.282461	0.148039	0.947787	-0.470596	0.882346	0.002430	-0.835916	-0.446711	0.318895
29426	9.356571	0.019870	3.169739	0.001308	0.001604	0.005324	0.282461	0.148055	0.947784	-0.470615	0.882335	0.002423	-0.835905	-0.446726	0.318903
29427	9.326185	0.036304	3.121123	-0.002823	-0.000483	0.003919	0.282448	0.148049	0.947789	-0.470598	0.882344	0.002416	-0.835919	-0.446710	0.318888
29428	9.371169	-0.003159	3.116068	0.001374	-0.003124	0.001957	0.282425	0.148014	0.947802	-0.470609	0.882338	0.002441	-0.835921	-0.446733	0.318851
29429	9.350718	0.042423	3.169209	-0.000594	0.001333	0.006315	0.282418	0.148037	0.947800	-0.470615	0.882336	0.002418	-0.835920	-0.446731	0.318855
29430	9.365234	0.019613	3.115775	-0.001576	0.001274	0.004380	0.282419	0.148043	0.947799	-0.470607	0.882339	0.002410	-0.835923	-0.446722	0.318860
29431	9.375762	0.022817	3.183967	-0.002363	-0.000377	0.002455	0.282415	0.148024	0.947803	-0.470585	0.882352	0.002417	-0.835938	-0.446704	0.318847
29432	9.351303	0.015650	3.135671	-0.001576	0.001274	0.004380	0.282417	0.148030	0.947802	-0.470578	0.882355	0.002409	-0.835941	-0.446695	0.318852
29433	9.383667	0.048930	3.164069	-0.001312	0.002972	0.002905	0.282441	0.148031	0.947794	-0.470566	0.882362	0.002416	-0.835940	-0.446682	0.318873
29434	9.337289	0.011756	3.155810	-0.000920	-0.000212	0.002927	0.282437	0.148017	0.947798	-0.470560	0.882365	0.002425	-0.835944	-0.446680	0.318863
29435	9.370346	0.019642	3.150334	0.001769	0.001710	0.003860	0.282446	0.148021	0.947795	-0.470577	0.882356	0.002433	-0.835932	-0.446697	0.318872
29436	9.376246	-0.004348	3.150718	-0.003805	-0.000542	0.001983	0.282443	0.147997	0.947799	-0.470544	0.882373	0.002441	-0.835951	-0.446671	0.318860
29437	9.364396	0.042714	3.150107	0.000326	0.001545	0.003388	0.282453	0.147995	0.947796	-0.470553	0.882368	0.002450	-0.835943	-0.446680	0.318867
29438	9.351124	0.013585	3.136216	-0.003283	-0.000588	0.005382	0.282434	0.148002	0.947801	-0.470534	0.882378	0.002428	-0.835960	-0.446658	0.318854
29439	9.343167	-0.013824	3.156253	0.001700	-0.001579	0.005345	0.282410	0.148004	0.947808	-0.470550	0.882370	0.002420	-0.835959	-0.446674	0.318833
29440	9.364394	0.041425	3.150129	0.000591	0.003243	0.001914	0.282439	0.147997	0.947800	-0.470554	0.882368	0.002443	-0.835947	-0.446681	0.318856
29441	9.331910	0.007538	3.122069	-0.000920	-0.000212	0.002927	0.282437	0.147982	0.947803	-0.470545	0.882372	0.002452	-0.835953	-0.446677	0.318847
29442	9.390058	-0.003360	3.131184	0.001309	0.001604	0.005324	0.282437	0.147998	0.947801	-0.470565	0.882362	0.002444	-0.835941	-0.446692	0.318854
29443	9.325933	0.030388	3.121939	-0.001576	0.001274	0.004380	0.282439	0.148005	0.947799	-0.470556	0.882367	0.002436	-0.835946	-0.446681	0.318860
29444	9.376066	-0.007476	3.151248	-0.001576	0.001274	0.004380	0.282441	0.148011	0.947797	-0.470549	0.882371	0.002429	-0.835949	-0.446671	0.318864
29445	9.364253	0.039517	3.150574	0.000718	-0.001638	0.003410	0.282425	0.147995	0.947805	-0.470559	0.882365	0.002440	-0.835949	-0.446687	0.318842
29446	9.356897	-0.013063	3.136957	-0.000656	0.001486	0.001453	0.282442	0.147976	0.947802	-0.470552	0.882369	0.002463	-0.835947	-0.446686	0.318849
29447	9.370167	0.015302	3.150891	0.001700	-0.001579	0.005345	0.282418	0.147977	0.947810	-0.470570	0.882359	0.002457	-0.835945	-0.446705	0.318827
29448	9.350947	0.009939	3.136757	-0.002949	0.004399	0.002422	0.282455	0.147980	0.947798	-0.470546	0.882372	0.002464	-0.835946	-0.446679	0.318861
29449	9.331036	0.030120	3.156523	0.001769	0.001710	0.003860	0.282463	0.147983	0.947795	-0.470567	0.882361	0.002473	-0.835931	-0.446700	0.318870
29450	9.377989	0.041026	3.131300	-0.003479	0.001004	0.005371	0.282458	0.147996	0.947795	-0.470547	0.882371	0.002450	-0.835944	-0.446674	0.318872
29451	9.375901	-0.010072	3.151730	0.000257	-0.001744	0.004873	0.282432	0.147993	0.947803	-0.470554	0.882368	0.002443	-0.835949	-0.446682	0.318848
29452	9.358204	0.060385	3.150715	-0.002497	0.001064	0.007306	0.282418	0.148024	0.947802	-0.470548	0.882371	0.002405	-0.835957	-0.446665	0.318850
29453	9.356693	-0.016188	3.137553	0.000327	0.001545	0.003388	0.282427	0.148022	0.947800	-0.470556	0.882367	0.002414	-0.835950	-0.446674	0.318857
29454	9.344877	0.030732	3.136943	-0.003284	-0.000587	0.005381	0.282408	0.148028	0.947804	-0.470537	0.882377	0.002391	-0.835967	-0.446652	0.318843
29455	9.375834	-0.012053	3.151922	0.002229	0.001815	0.002397	0.282425	0.148019	0.947801	-0.470553	0.882369	0.002414	-0.835952	-0.446672	0.318854
29456	9.330931	0.026856	3.156864	-0.004266	-0.000646	0.003446	0.282415	0.148008	0.947806	-0.470521	0.882386	0.002407	-0.835974	-0.446642	0.318840
29457	9.369926	0.010951	3.151626	0.001964	0.000118	0.003871	0.282407	0.148004	0.947808	-0.470543	0.882374	0.002416	-0.835964	-0.446667	0.318831
29458	9.371997	0.061136	3.131304	-0.001771	0.002867	0.004369	0.282423	0.148017	0.947802	-0.470534	0.882378	0.002408	-0.835964	-0.446653	0.318851
29459	9.350654	0.005291	3.137642	0.002425	0.000223	0.002408	0.282427	0.148002	0.947803	-0.470553	0.882368	0.002432	-0.835951	-0.446679	0.318847
29460	9.363906	0.033798	3.151671	0.000787	0.001651	0.001925	0.282443	0.147988	0.947800	-0.470559	0.882365	0.002455	-0.835943	-0.446689	0.318855
29461	9.356419	-0.018786	3.138355	-0.000063	0.004729	0.003366	0.282481	0.148000	0.947787	-0.470559	0.882365	0.002463	-0.835930	-0.446686	0.318894
29462	9.349826	0.030063	3.171980	-0.002363	-0.000375	0.002455	0.282478	0.147981	0.947791	-0.470540	0.882375	0.002471	-0.835941	-0.446672	0.318883
29463	9.350413	0.004285	3.138360	0.000132	0.003137	0.003377	0.282496	0.147986	0.947785	-0.470549	0.882370	0.002479	-0.835930	-0.446679	0.318901
29464	9.364278	0.007090	3.118701	0.001504	0.000012	0.005335	0.282483	0.147995	0.947787	-0.470570	0.882359	0.002472	-0.835923	-0.446699	0.318894
29465	9.343824	0.052609	3.171990	-0.001576	0.001276	0.004379	0.282482	0.148002	0.947787	-0.470565	0.882362	0.002464	-0.835926	-0.446692	0.318896
29466	9.350325	0.003068	3.138625	0.000522	-0.000047	0.003399	0.282478	0.147993	0.947789	-0.470573	0.882358	0.002473	-0.835923	-0.446703	0.318888
29467	9.363614	0.031422	3.152564	0.000522	-0.000047	0.003399	0.282472	0.147984	0.947792	-0.470579	0.882354	0.002480	-0.835922	-0.446712	0.318879
29468	9.356148	-0.021461	3.139145	-0.002887	0.004249	0.007284	0.282485	0.148029	0.947781	-0.470569	0.882360	0.002441	-0.835923	-0.446686	0.318911
29469	9.344354	0.025466	3.138550	0.002814	-0.002961	0.002430	0.282461	0.147999	0.947793	-0.470593	0.882347	0.002466	-0.835917	-0.446722	0.318876
29470	9.349627	0.026865	3.172595	-0.006559	0.002270	0.004415	0.282471	0.148010	0.947789	-0.470545	0.882373	0.002443	-0.835941	-0.446667	0.318890
29471	9.364110	0.003891	3.119211	0.000388	0.001393	0.008250	0.282457	0.148051	0.947786	-0.470564	0.882363	0.002405	-0.835935	-0.446673	0.318897
29472	9.357581	0.052521	3.152706	0.001964	0.000118	0.003871	0.282451	0.148047	0.947789	-0.470585	0.882351	0.002414	-0.835925	-0.446697	0.318890
29473	9.344289	0.023493	3.138759	0.000061	-0.000152	0.004862	0.282440	0.148050	0.947792	-0.470593	0.882347	0.002408	-0.835925	-0.446704	0.318881
29474	9.368755	0.029854	3.187031	0.002159	-0.001474	0.003882	0.282421	0.148040	0.947799	-0.470616	0.882335	0.002417	-0.835918	-0.446732	0.318860
29475	9.350199	-0.000950	3.139000	-0.001576	0.001276	0.004379	0.282423	0.148045	0.947797	-0.470605	0.882341	0.002409	-0.835924	-0.446719	0.318864
29476	9.357577	0.050859	3.152748	0.000848	0.001499	0.006787	0.282415	0.148073	0.947795	-0.470625	0.882330	0.002387	-0.835915	-0.446730	0.318870
29477	9.364078	0.001092	3.119308	-0.000205	-0.001849	0.006336	0.282381	0.148083	0.947804	-0.470637	0.882324	0.002366	-0.835920	-0.446740	0.318845
29478	9.338444	0.044850	3.138356	-0.002364	-0.000374	0.002454	0.282378	0.148064	0.947808	-0.470618	0.882334	0.002374	-0.835932	-0.446725	0.318834
29479	9.364095	0.000410	3.119256	-0.000655	0.001487	0.001452	0.282396	0.148045	0.947805	-0.470610	0.882338	0.002397	-0.835930	-0.446724	0.318840
29480	9.343692	0.046168	3.172479	0.000716	-0.001638	0.003410	0.282378	0.148030	0.947813	-0.470619	0.882333	0.002406	-0.835931	-0.446739	0.318817
29481	9.364099	-0.000119	3.119245	0.000327	0.001546	0.003388	0.282388	0.148028	0.947811	-0.470622	0.882332	0.002414	-0.835926	-0.446742	0.318825
29482	9.351694	0.072357	3.152482	-0.000133	0.001440	0.004851	0.282389	0.148039	0.947809	-0.470628	0.882328	0.002407	-0.835922	-0.446745	0.318831
29483	9.361863	-0.051449	3.139893	-0.002364	-0.000374	0.002454	0.282386	0.148021	0.947812	-0.470608	0.882339	0.002414	-0.835934	-0.446730	0.318820
29484	9.376717	0.052774	3.167184	0.000849	0.001499	0.006787	0.282378	0.148050	0.947810	-0.470628	0.882329	0.002391	-0.835926	-0.446741	0.318827
29485	9.363997	-0.001719	3.119552	-0.000461	-0.000105	0.001463	0.282381	0.148024	0.947813	-0.470624	0.882330	0.002415	-0.835927	-0.446746	0.318817
29486	9.363423	0.023297	3.153200	-0.002109	-0.002117	0.007327	0.282340	0.148041	0.947823	-0.470621	0.882332	0.002378	-0.835943	-0.446737	0.318789
29487	9.368726	0.024540	3.187161	-0.002364	-0.000374	0.002454	0.282341	0.148023	0.947825	-0.470599	0.882344	0.002387	-0.835954	-0.446720	0.318781
29488	9.344265	0.017443	3.138869	0.001309	0.001604	0.005323	0.282341	0.148039	0.947823	-0.470619	0.882333	0.002380	-0.835943	-0.446735	0.318789
29489	9.371452	0.048876	3.133151	-0.001115	0.001382	0.002916	0.282353	0.148032	0.947820	-0.470607	0.882340	0.002388	-0.835946	-0.446725	0.318797
29490	9.363962	-0.003845	3.119654	-0.001576	0.001277	0.004379	0.282355	0.148038	0.947819	-0.470600	0.882344	0.002380	-0.835949	-0.446715	0.318801
29491	9.357475	0.044938	3.153139	0.000521	-0.000046	0.003399	0.282348	0.148030	0.947822	-0.470608	0.882339	0.002388	-0.835947	-0.446727	0.318790
29492	9.344117	0.015840	3.139318	-0.002231	0.002764	0.005831	0.282355	0.148055	0.947816	-0.470600	0.882344	0.002364	-0.835949	-0.446710	0.318809
29493	9.349360	0.017153	3.173448	0.000715	-0.001638	0.003409	0.282340	0.148039	0.947823	-0.470612	0.882337	0.002376	-0.835948	-0.446728	0.318788
29494	9.338211	0.038780	3.139130	0.003019	0.003465	0.004322	0.282360	0.148054	0.947815	-0.470643	0.882321	0.002384	-0.835924	-0.446755	0.318813
29495	9.383007	-0.000733	3.134333	-0.000267	-0.001697	0.001474	0.282350	0.148020	0.947823	-0.470636	0.882324	0.002408	-0.835931	-0.446759	0.318788
29496	9.349314	0.016245	3.173591	-0.002036	0.001172	0.005842	0.282344	0.148039	0.947822	-0.470629	0.882328	0.002385	-0.835937	-0.446746	0.318791
29497	9.363771	-0.006589	3.120224	-0.001770	0.002869	0.004368	0.282358	0.148052	0.947816	-0.470619	0.882333	0.002376	-0.835937	-0.446731	0.318810
29498	9.337491	0.062722	3.173262	0.000521	-0.000046	0.003399	0.282354	0.148044	0.947818	-0.470627	0.882329	0.002384	-0.835935	-0.446742	0.318802
29499	9.382886	-0.002416	3.134696	-0.000133	0.001441	0.004851	0.282354	0.148055	0.947816	-0.470635	0.882325	0.002377	-0.835930	-0.446747	0.318808
29500	9.337477	0.061967	3.173318	0.000715	-0.001638	0.003409	0.282336	0.148040	0.947824	-0.470644	0.882320	0.002386	-0.835931	-0.446762	0.318785
29501	9.364312	-0.033650	3.086629	-0.003479	0.001009	0.005370	0.282330	0.148053	0.947824	-0.470624	0.882331	0.002363	-0.835944	-0.446736	0.318785
29502	9.365347	0.067319	3.133657	0.001697	-0.001580	0.005345	0.282303	0.148055	0.947832	-0.470647	0.882319	0.002357	-0.835940	-0.446759	0.318763
29503	9.330621	-0.017115	3.125880	-0.000654	0.001487	0.001452	0.282323	0.148035	0.947829	-0.470635	0.882325	0.002380	-0.835940	-0.446753	0.318771
29504	9.376420	0.044699	3.168187	-0.000594	0.001336	0.006314	0.282317	0.148058	0.947827	-0.470641	0.882321	0.002358	-0.835939	-0.446752	0.318776
29505	9.351965	0.037471	3.119882	-0.001382	-0.000314	0.004389	0.282305	0.148057	0.947831	-0.470636	0.882324	0.002351	-0.835946	-0.446747	0.318766
29506	9.343874	0.010149	3.140063	-0.000133	0.001441	0.004851	0.282306	0.148068	0.947829	-0.470642	0.882321	0.002344	-0.835942	-0.446750	0.318772
29507	9.371116	0.041488	3.134264	-0.001382	-0.000314	0.004389	0.282296	0.148066	0.947832	-0.470636	0.882324	0.002338	-0.835949	-0.446744	0.318761
29508	9.335739	-0.017556	3.160367	-0.001308	0.002975	0.002905	0.282318	0.148067	0.947825	-0.470627	0.882329	0.002346	-0.835946	-0.446734	0.318782
29509	9.365213	0.064349	3.134118	-0.000207	-0.001848	0.006336	0.282287	0.148075	0.947833	-0.470637	0.882324	0.002326	-0.835951	-0.446742	0.318758
29510	9.343808	0.008326	3.140266	-0.001576	0.001278	0.004379	0.282288	0.148081	0.947832	-0.470630	0.882328	0.002318	-0.835955	-0.446732	0.318762
29511	9.312868	0.050421	3.125549	0.000134	0.003138	0.003377	0.282313	0.148087	0.947824	-0.470635	0.882325	0.002327	-0.835944	-0.446736	0.318787
29512	9.374004	-0.009456	3.189208	-0.001189	-0.001906	0.004400	0.282288	0.148079	0.947832	-0.470631	0.882327	0.002321	-0.835954	-0.446734	0.318761
29513	9.345408	0.083217	3.153745	0.000521	-0.000046	0.003399	0.282283	0.148071	0.947835	-0.470637	0.882324	0.002328	-0.835953	-0.446743	0.318752
29514	9.357659	0.009893	3.120689	-0.002036	0.001174	0.005842	0.282277	0.148089	0.947834	-0.470630	0.882328	0.002305	-0.835959	-0.446730	0.318756
29515	9.368135	0.012953	3.188966	-0.001115	0.001383	0.002915	0.282284	0.148083	0.947833	-0.470628	0.882329	0.002314	-0.835957	-0.446730	0.318760
29516	9.337809	0.029669	3.140425	0.000328	0.001546	0.003388	0.282293	0.148081	0.947830	-0.470634	0.882326	0.002322	-0.835951	-0.446737	0.318766
29517	9.368064	0.012266	3.189177	0.001503	0.000012	0.005334	0.282280	0.148090	0.947833	-0.470653	0.882315	0.002315	-0.835945	-0.446754	0.318759
29518	9.326698	0.050858	3.106079	-0.002364	-0.000372	0.002454	0.282277	0.148071	0.947837	-0.470634	0.882325	0.002323	-0.835956	-0.446740	0.318748
29519	9.362844	0.009753	3.154990	0.001696	-0.001580	0.005345	0.282251	0.148073	0.947844	-0.470654	0.882315	0.002316	-0.835954	-0.446760	0.318725
29520	9.357017	0.033003	3.154645	-0.003018	0.001116	0.003906	0.282253	0.148074	0.947843	-0.470633	0.882326	0.002309	-0.835965	-0.446738	0.318728
29521	9.355315	-0.043407	3.141402	0.003406	0.000279	0.004343	0.282246	0.148075	0.947846	-0.470664	0.882309	0.002316	-0.835950	-0.446771	0.318722
29522	9.345307	0.079654	3.154137	-0.001576	0.001279	0.004378	0.282247	0.148081	0.947844	-0.470657	0.882313	0.002308	-0.835953	-0.446761	0.318726
29523	9.369173	-0.041012	3.121798	-0.001115	0.001383	0.002915	0.282257	0.148074	0.947842	-0.470649	0.882318	0.002316	-0.835955	-0.446755	0.318731
29524	9.339367	0.102666	3.154151	0.000135	0.003138	0.003377	0.282279	0.148080	0.947835	-0.470653	0.882315	0.002323	-0.835945	-0.446757	0.318753
29525	9.363250	-0.017922	3.121741	-0.002171	-0.001964	0.002464	0.282262	0.148054	0.947844	-0.470633	0.882326	0.002331	-0.835962	-0.446745	0.318726
29526	9.370202	0.059637	3.169123	0.002231	0.001813	0.002397	0.282277	0.148045	0.947841	-0.470652	0.882316	0.002355	-0.835946	-0.446768	0.318735
29527	9.357432	0.005103	3.121382	-0.004997	-0.002439	0.006381	0.282240	0.148052	0.947851	-0.470618	0.882334	0.002316	-0.835978	-0.446730	0.318706
29528	9.370794	0.033267	3.135324	0.005117	0.002138	0.003342	0.282253	0.148053	0.947847	-0.470664	0.882309	0.002340	-0.835947	-0.446778	0.318718
29529	9.337634	0.024819	3.140986	-0.004922	0.000850	0.004896	0.282248	0.148062	0.947847	-0.470633	0.882326	0.002317	-0.835967	-0.446742	0.318718
29530	9.356807	0.029196	3.155305	0.001503	0.000012	0.005334	0.282235	0.148070	0.947849	-0.470654	0.882315	0.002311	-0.835960	-0.446761	0.318710
29531	9.356784	0.028817	3.155378	0.000328	0.001546	0.003388	0.282245	0.148069	0.947847	-0.470657	0.882313	0.002318	-0.835954	-0.446765	0.318718
29532	9.362558	0.004879	3.155850	0.000789	0.001650	0.001925	0.282261	0.148055	0.947844	-0.470663	0.882310	0.002341	-0.835945	-0.446776	0.318726
29533	9.356125	0.053664	3.189409	-0.003479	0.001013	0.005369	0.282256	0.148069	0.947844	-0.470640	0.882322	0.002317	-0.835961	-0.446747	0.318728
29534	9.338036	-0.002698	3.107738	0.001310	0.001604	0.005323	0.282256	0.148085	0.947841	-0.470659	0.882312	0.002310	-0.835949	-0.446762	0.318735
29535	9.369969	0.055974	3.169877	-0.000654	0.001488	0.001452	0.282274	0.148066	0.947838	-0.470652	0.882316	0.002334	-0.835948	-0.446761	0.318742
29536	9.343225	-0.001632	3.142012	-0.001844	-0.000417	0.005852	0.282255	0.148077	0.947842	-0.470646	0.882319	0.002311	-0.835957	-0.446751	0.318731
29537	9.364706	0.053462	3.135839	0.002424	0.000220	0.002408	0.282256	0.148061	0.947845	-0.470669	0.882307	0.002336	-0.835944	-0.446781	0.318724
29538	9.342667	0.023151	3.175749	-0.002826	-0.000475	0.003916	0.282245	0.148056	0.947849	-0.470650	0.882317	0.002328	-0.835958	-0.446763	0.318712
29539	9.357166	0.000463	3.122182	0.003406	0.000278	0.004343	0.282240	0.148057	0.947850	-0.470685	0.882298	0.002337	-0.835941	-0.446798	0.318708
29540	9.350763	0.049328	3.155688	-0.002557	0.001222	0.002443	0.282250	0.148046	0.947849	-0.470664	0.882309	0.002345	-0.835949	-0.446780	0.318712
29541	9.337346	0.020412	3.141874	0.003213	0.001870	0.004333	0.282256	0.148054	0.947846	-0.470696	0.882292	0.002353	-0.835928	-0.446812	0.318721
29542	9.358840	0.075351	3.135698	-0.002113	-0.002113	0.007325	0.282216	0.148071	0.947855	-0.470693	0.882294	0.002316	-0.835944	-0.446802	0.318693
29543	9.368173	-0.023239	3.156764	0.001310	0.001604	0.005323	0.282217	0.148086	0.947852	-0.470711	0.882284	0.002309	-0.835934	-0.446816	0.318701
29544	9.345460	0.045759	3.121782	-0.000922	-0.000208	0.002926	0.282213	0.148073	0.947856	-0.470705	0.882288	0.002317	-0.835938	-0.446814	0.318692
29545	9.357097	-0.002115	3.122390	-0.003287	-0.000578	0.005379	0.282195	0.148080	0.947860	-0.470683	0.882299	0.002293	-0.835957	-0.446789	0.318679
29546	9.369899	0.051496	3.170160	0.001771	0.001708	0.003860	0.282202	0.148083	0.947857	-0.470702	0.882289	0.002301	-0.835943	-0.446808	0.318687
29547	9.345441	0.044470	3.121857	-0.002826	-0.000474	0.003916	0.282193	0.148076	0.947861	-0.470685	0.882298	0.002296	-0.835956	-0.446792	0.318676
29548	9.343132	-0.006398	3.142281	0.000982	0.000058	0.001935	0.282196	0.148055	0.947863	-0.470692	0.882294	0.002320	-0.835951	-0.446807	0.318669
29549	9.350628	0.045684	3.156142	-0.000056	0.004731	0.003366	0.282232	0.148069	0.947851	-0.470696	0.882292	0.002327	-0.835937	-0.446807	0.318706
29550	9.362198	-0.002271	3.156923	0.000772	-0.001789	0.008270	0.282190	0.148095	0.947859	-0.470720	0.882280	0.002290	-0.835938	-0.446822	0.318682
29551	9.358671	0.071548	3.136294	-0.001037	0.004673	0.001431	0.282235	0.148090	0.947846	-0.470706	0.882287	0.002312	-0.835930	-0.446810	0.318720
29552	9.362637	-0.028425	3.123501	-0.002365	-0.000370	0.002453	0.282232	0.148072	0.947850	-0.470687	0.882297	0.002321	-0.835942	-0.446795	0.318708
29553	9.344657	0.067789	3.156338	-0.001575	0.001280	0.004378	0.282236	0.148079	0.947848	-0.470680	0.882301	0.002313	-0.835945	-0.446785	0.318715
29554	9.356775	-0.005553	3.123349	-0.000133	0.001442	0.004851	0.282237	0.148090	0.947846	-0.470686	0.882298	0.002306	-0.835941	-0.446788	0.318721
29555	9.370140	0.022592	3.137371	0.000059	-0.000150	0.004861	0.282225	0.148094	0.947849	-0.470690	0.882296	0.002297	-0.835943	-0.446791	0.318713
29556	9.356183	0.019146	3.157231	-0.000653	0.001488	0.001452	0.282243	0.148075	0.947846	-0.470682	0.882300	0.002321	-0.835941	-0.446789	0.318719
29557	9.350918	0.016944	3.123197	-0.002306	-0.000520	0.007314	0.282216	0.148100	0.947850	-0.470676	0.882303	0.002283	-0.835953	-0.446775	0.318707
29558	9.361877	-0.005564	3.157869	-0.000247	0.006323	0.003356	0.282265	0.148119	0.947833	-0.470678	0.882302	0.002289	-0.835936	-0.446770	0.318760
29559	9.330492	0.062281	3.176858	0.001826	-0.003023	0.000494	0.282251	0.148072	0.947844	-0.470685	0.882298	0.002329	-0.835937	-0.446793	0.318725
29560	9.364167	0.044622	3.137585	-0.000325	0.003035	0.004840	0.282265	0.148090	0.947837	-0.470689	0.882296	0.002321	-0.835929	-0.446792	0.318746
29561	9.342044	0.014246	3.177632	-0.000922	-0.000208	0.002926	0.282264	0.148077	0.947840	-0.470682	0.882300	0.002331	-0.835934	-0.446789	0.318739
29562	9.364132	0.043861	3.137702	0.000059	-0.000150	0.004861	0.282252	0.148080	0.947843	-0.470690	0.882295	0.002324	-0.835933	-0.446796	0.318730
29563	9.342058	0.013416	3.177594	-0.001384	-0.000312	0.004388	0.282241	0.148079	0.947846	-0.470683	0.882299	0.002317	-0.835941	-0.446789	0.318719
29564	9.375708	-0.004478	3.138390	0.002753	0.001766	0.005796	0.282240	0.148100	0.947843	-0.470716	0.882282	0.002310	-0.835923	-0.446817	0.318728
29565	9.341964	0.012653	3.177873	-0.003730	0.002758	0.000496	0.282275	0.148078	0.947836	-0.470681	0.882300	0.002333	-0.835931	-0.446787	0.318749
29566	9.364039	0.042335	3.138001	-0.001192	-0.001904	0.004399	0.282250	0.148070	0.947845	-0.470677	0.882302	0.002327	-0.835941	-0.446786	0.318723
29567	9.350056	0.038890	3.157927	-0.001036	0.004674	0.001431	0.282293	0.148066	0.947833	-0.470664	0.882309	0.002348	-0.835934	-0.446774	0.318759
29568	9.369720	0.018002	3.138656	-0.001384	-0.000311	0.004388	0.282282	0.148065	0.947836	-0.470659	0.882312	0.002341	-0.835941	-0.446768	0.318749
29569	9.363934	0.041339	3.138327	0.001963	0.000115	0.003871	0.282277	0.148061	0.947839	-0.470681	0.882300	0.002351	-0.835930	-0.446793	0.318742
29570	9.331349	0.007493	3.110074	0.000059	-0.000150	0.004861	0.282264	0.148064	0.947842	-0.470689	0.882296	0.002344	-0.835930	-0.446800	0.318733
29571	9.383129	0.045460	3.152601	0.000520	-0.000046	0.003398	0.282505	0.148039	0.947774	-0.470593	0.882347	0.002451	-0.835903	-0.446708	0.318933
29572	9.388945	0.021444	3.152842	0.000712	-0.001639	0.003409	0.282487	0.148023	0.947782	-0.470602	0.882342	0.002460	-0.835904	-0.446723	0.318910
29573	9.349975	0.036846	3.158191	0.002831	0.005054	0.004312	0.282519	0.148047	0.947768	-0.470630	0.882327	0.002465	-0.835877	-0.446744	0.318950
29574	9.363845	0.039670	3.138615	-0.002365	-0.000369	0.002453	0.282517	0.148029	0.947772	-0.470610	0.882338	0.002473	-0.835889	-0.446730	0.318939
29575	9.361477	-0.011349	3.159038	0.002483	0.000069	0.007269	0.282496	0.148055	0.947774	-0.470643	0.882320	0.002451	-0.835877	-0.446756	0.318933
29576	9.344648	0.033812	3.124363	-0.004461	0.000959	0.003432	0.282500	0.148051	0.947773	-0.470609	0.882338	0.002444	-0.835895	-0.446721	0.318935
29577	9.369018	0.040038	3.172931	0.001580	0.003300	0.003850	0.282523	0.148061	0.947765	-0.470626	0.882329	0.002452	-0.835878	-0.446736	0.318960
29578	9.344513	0.033043	3.124777	-0.001575	0.001282	0.004378	0.282525	0.148067	0.947763	-0.470619	0.882333	0.002444	-0.835881	-0.446726	0.318965
29579	9.369462	0.013891	3.139447	0.000981	0.000058	0.001935	0.282527	0.148047	0.947766	-0.470623	0.882331	0.002465	-0.835878	-0.446737	0.318957
29580	9.343984	0.058048	3.158523	-0.000270	-0.001696	0.001473	0.282518	0.148015	0.947774	-0.470618	0.882333	0.002490	-0.835884	-0.446743	0.318933
29581	9.361308	-0.013563	3.159531	-0.002689	0.002667	0.007292	0.282519	0.148051	0.947768	-0.470605	0.882340	0.002451	-0.835891	-0.446717	0.318952
29582	9.363097	0.061997	3.173052	-0.000653	0.001489	0.001452	0.282536	0.148033	0.947766	-0.470598	0.882345	0.002475	-0.835889	-0.446715	0.318958
29583	9.356003	-0.016066	3.125624	-0.001193	-0.001903	0.004399	0.282510	0.148025	0.947775	-0.470593	0.882347	0.002467	-0.835901	-0.446713	0.318932
29584	9.349698	0.032657	3.159059	0.002753	0.001765	0.005796	0.282510	0.148045	0.947771	-0.470626	0.882329	0.002460	-0.835882	-0.446741	0.318941
29585	9.350157	0.006741	3.125515	-0.001766	0.002875	0.004367	0.282525	0.148059	0.947765	-0.470613	0.882336	0.002450	-0.835885	-0.446723	0.318960
29586	9.355329	0.008169	3.159808	0.000790	0.001650	0.001925	0.282542	0.148045	0.947762	-0.470619	0.882333	0.002474	-0.835876	-0.446733	0.318969
29587	9.357686	0.058427	3.139504	-0.003018	0.001121	0.003905	0.282546	0.148046	0.947761	-0.470601	0.882343	0.002468	-0.835884	-0.446714	0.318973
29588	9.374961	-0.013040	3.140595	0.000790	0.001650	0.001925	0.282562	0.148032	0.947758	-0.470606	0.882340	0.002491	-0.835876	-0.446725	0.318981
29589	9.363367	0.034168	3.140104	0.000329	0.001547	0.003387	0.282572	0.148030	0.947755	-0.470610	0.882338	0.002500	-0.835870	-0.446730	0.318989
29590	9.330720	0.000191	3.111968	-0.002498	0.001075	0.007303	0.282559	0.148061	0.947754	-0.470604	0.882341	0.002462	-0.835878	-0.446712	0.318992
29591	9.348838	0.055432	3.193830	0.000520	-0.000046	0.003398	0.282555	0.148052	0.947757	-0.470613	0.882336	0.002472	-0.835874	-0.446725	0.318983
29592	9.369039	0.008998	3.140728	-0.001766	0.002875	0.004367	0.282570	0.148065	0.947750	-0.470604	0.882341	0.002464	-0.835874	-0.446711	0.319003
29593	9.368989	0.008616	3.140876	0.003405	0.000276	0.004344	0.282563	0.148066	0.947752	-0.470640	0.882322	0.002472	-0.835856	-0.446749	0.318997
29594	9.349255	0.028757	3.160408	-0.003480	0.001019	0.005367	0.282558	0.148080	0.947752	-0.470620	0.882333	0.002449	-0.835870	-0.446723	0.318999
29595	9.368977	0.007706	3.140915	0.002153	-0.001478	0.003881	0.282541	0.148068	0.947759	-0.470640	0.882322	0.002460	-0.835864	-0.446748	0.318979
29596	9.324340	0.046720	3.145688	-0.001846	-0.000413	0.005850	0.282522	0.148079	0.947763	-0.470635	0.882325	0.002438	-0.835873	-0.446739	0.318967
29597	9.374753	-0.016924	3.141199	0.000329	0.001547	0.003387	0.282532	0.148078	0.947760	-0.470636	0.882324	0.002445	-0.835869	-0.446740	0.318976
29598	9.349279	0.027022	3.160350	0.001691	-0.001581	0.005344	0.282506	0.148080	0.947767	-0.470659	0.882312	0.002439	-0.835865	-0.446764	0.318953
29599	9.355043	0.002998	3.160665	-0.000652	0.001489	0.001452	0.282521	0.148060	0.947766	-0.470650	0.882317	0.002461	-0.835865	-0.446761	0.318958
29600	9.382404	0.034388	3.154899	-0.001385	-0.000310	0.004388	0.282510	0.148059	0.947769	-0.470644	0.882320	0.002454	-0.835872	-0.446755	0.318947
29601	9.316109	0.017987	3.165947	-0.001575	0.001283	0.004377	0.282513	0.148065	0.947767	-0.470634	0.882325	0.002447	-0.835877	-0.446743	0.318953
29602	9.382354	0.033470	3.155059	-0.003018	0.001123	0.003904	0.282516	0.148066	0.947766	-0.470614	0.882336	0.002439	-0.835887	-0.446721	0.318956
29603	9.368364	0.029890	3.174971	-0.000132	0.001443	0.004850	0.282516	0.148077	0.947765	-0.470622	0.882332	0.002432	-0.835882	-0.446726	0.318961
29604	9.368859	0.004056	3.141273	0.000520	-0.000046	0.003398	0.282512	0.148068	0.947767	-0.470630	0.882328	0.002441	-0.835880	-0.446737	0.318953
29605	9.382301	0.032249	3.155229	-0.001385	-0.000310	0.004388	0.282501	0.148068	0.947771	-0.470624	0.882331	0.002434	-0.835887	-0.446731	0.318944
29606	9.343904	0.022098	3.126691	-0.001575	0.001283	0.004377	0.282503	0.148074	0.947769	-0.470617	0.882335	0.002427	-0.835890	-0.446721	0.318948
29607	9.343352	0.047092	3.160576	-0.001575	0.001283	0.004377	0.282506	0.148079	0.947767	-0.470608	0.882339	0.002420	-0.835894	-0.446711	0.318953
29608	9.368764	0.002454	3.141560	0.000791	0.001650	0.001925	0.282523	0.148065	0.947765	-0.470614	0.882336	0.002443	-0.835885	-0.446721	0.318961
29609	9.368201	0.027675	3.175474	0.000329	0.001547	0.003387	0.282531	0.148064	0.947762	-0.470615	0.882335	0.002449	-0.835881	-0.446723	0.318968
29610	9.329802	0.017605	3.146939	-0.002828	-0.000470	0.003915	0.282521	0.148058	0.947766	-0.470596	0.882345	0.002442	-0.835896	-0.446705	0.318956
29611	9.362928	0.025261	3.141497	0.000791	0.001650	0.001925	0.282538	0.148044	0.947763	-0.470599	0.882344	0.002465	-0.835888	-0.446713	0.318965
29612	9.368169	0.026760	3.175573	-0.000733	-0.001799	0.002936	0.282521	0.148023	0.947771	-0.470594	0.882346	0.002474	-0.835896	-0.446715	0.318941
29613	9.343698	0.019733	3.127325	-0.000974	0.004526	0.006291	0.282542	0.148061	0.947759	-0.470599	0.882344	0.002452	-0.835886	-0.446708	0.318976
29614	9.362335	0.049493	3.175521	0.001691	-0.001582	0.005344	0.282516	0.148062	0.947767	-0.470622	0.882331	0.002446	-0.835883	-0.446731	0.318954
29615	9.354672	-0.003326	3.161763	-0.003289	-0.000572	0.005377	0.282495	0.148069	0.947772	-0.470603	0.882342	0.002422	-0.835900	-0.446709	0.318939
29616	9.351855	0.045058	3.107382	0.001582	0.003300	0.003850	0.282517	0.148079	0.947764	-0.470620	0.882332	0.002430	-0.835883	-0.446724	0.318963
29617	9.367981	0.024392	3.176148	-0.003208	0.002716	0.003894	0.282533	0.148087	0.947758	-0.470603	0.882342	0.002424	-0.835888	-0.446702	0.318981
29618	9.362699	0.022361	3.142202	0.002424	0.000217	0.002408	0.282536	0.148071	0.947760	-0.470623	0.882331	0.002448	-0.835875	-0.446729	0.318976
29619	9.343516	0.017146	3.127884	-0.004732	-0.000732	0.004904	0.282516	0.148073	0.947765	-0.470590	0.882349	0.002423	-0.835901	-0.446694	0.318959
29620	9.348764	0.018490	3.161936	0.000981	0.000057	0.001935	0.282519	0.148052	0.947768	-0.470597	0.882345	0.002447	-0.835896	-0.446708	0.318952
29621	9.356983	0.045028	3.141818	-0.001385	-0.000309	0.004387	0.282510	0.148050	0.947771	-0.470589	0.882349	0.002442	-0.835903	-0.446700	0.318943
29622	9.368444	-0.002883	3.142513	0.001310	0.001604	0.005323	0.282510	0.148066	0.947768	-0.470608	0.882339	0.002435	-0.835892	-0.446715	0.318951
29623	9.343024	0.040856	3.161630	-0.005004	-0.002427	0.006377	0.282472	0.148072	0.947779	-0.470576	0.882356	0.002397	-0.835924	-0.446679	0.318920
29624	9.349273	-0.008775	3.128151	0.002234	0.001810	0.002398	0.282488	0.148063	0.947775	-0.470595	0.882346	0.002421	-0.835908	-0.446702	0.318930
29625	9.362656	0.019475	3.142348	-0.001765	0.002877	0.004366	0.282503	0.148076	0.947769	-0.470582	0.882353	0.002412	-0.835910	-0.446684	0.318949
29626	9.368347	-0.004712	3.142800	0.001500	0.000011	0.005333	0.282490	0.148084	0.947771	-0.470603	0.882342	0.002405	-0.835902	-0.446703	0.318942
29627	9.317995	0.058235	3.147339	-0.000462	-0.000103	0.001462	0.282495	0.148058	0.947774	-0.470594	0.882346	0.002429	-0.835905	-0.446703	0.318934
29628	9.407234	-0.021032	3.137612	0.000519	-0.000046	0.003398	0.282491	0.148049	0.947777	-0.470602	0.882342	0.002438	-0.835903	-0.446714	0.318926
29629	9.337170	0.062535	3.161698	0.000330	0.001547	0.003387	0.282498	0.148049	0.947774	-0.470609	0.882338	0.002445	-0.835896	-0.446722	0.318932
29630	9.329901	-0.015583	3.114385	-0.004460	0.000965	0.003431	0.282502	0.148045	0.947774	-0.470575	0.882356	0.002437	-0.835914	-0.446688	0.318934
29631	9.370296	0.069631	3.156296	0.001690	-0.001582	0.005344	0.282476	0.148047	0.947781	-0.470598	0.882345	0.002431	-0.835910	-0.446711	0.318911
29632	9.343352	0.012065	3.128396	-0.001765	0.002877	0.004366	0.282491	0.148060	0.947775	-0.470589	0.882349	0.002423	-0.835910	-0.446697	0.318931
29633	9.387422	-0.002398	3.157445	0.001962	0.000114	0.003871	0.282487	0.148055	0.947777	-0.470607	0.882340	0.002432	-0.835901	-0.446717	0.318925
29634	9.312142	0.079465	3.147439	-0.002556	0.001228	0.002441	0.282498	0.148044	0.947775	-0.470586	0.882351	0.002440	-0.835909	-0.446699	0.318929
29635	9.368681	-0.033281	3.109498	0.000519	-0.000046	0.003398	0.282494	0.148035	0.947778	-0.470593	0.882347	0.002449	-0.835906	-0.446710	0.318922
29636	9.350991	0.063053	3.142368	-0.003999	0.001068	0.001968	0.282505	0.148019	0.947777	-0.470559	0.882365	0.002457	-0.835922	-0.446679	0.318925
29637	9.373881	-0.032251	3.143680	0.001500	0.000011	0.005333	0.282492	0.148026	0.947780	-0.470581	0.882353	0.002452	-0.835913	-0.446700	0.318916
29638	9.345204	0.086022	3.142251	0.000140	0.003140	0.003377	0.282514	0.148032	0.947772	-0.470586	0.882351	0.002460	-0.835904	-0.446703	0.318939
29639	9.359796	-0.035972	3.163832	-0.000651	0.001490	0.001452	0.282532	0.148013	0.947770	-0.470579	0.882354	0.002483	-0.835902	-0.446702	0.318945
29640	9.337349	0.033124	3.128926	-0.002037	0.001182	0.005839	0.282526	0.148032	0.947769	-0.470572	0.882358	0.002460	-0.835907	-0.446688	0.318949
29641	9.367484	0.015468	3.177670	-0.000924	-0.000205	0.002925	0.282520	0.148018	0.947773	-0.470563	0.882363	0.002467	-0.835914	-0.446684	0.318937
29642	9.329076	0.005529	3.149136	0.000330	0.001547	0.003387	0.282529	0.148016	0.947770	-0.470569	0.882360	0.002475	-0.835908	-0.446690	0.318945
29643	9.370449	0.039905	3.123612	0.000057	-0.000149	0.004860	0.282517	0.148021	0.947773	-0.470577	0.882355	0.002468	-0.835907	-0.446698	0.318936
29644	9.367418	0.014479	3.177868	0.000792	0.001650	0.001925	0.282534	0.148007	0.947770	-0.470583	0.882352	0.002491	-0.835898	-0.446708	0.318944
29645	9.356396	0.036188	3.143680	-0.001764	0.002878	0.004366	0.282548	0.148021	0.947764	-0.470575	0.882357	0.002483	-0.835898	-0.446695	0.318963
29646	9.353827	-0.014762	3.164229	0.000519	-0.000046	0.003398	0.282543	0.148012	0.947767	-0.470582	0.882353	0.002491	-0.835896	-0.446706	0.318955
29647	9.317406	0.051389	3.149200	-0.001029	0.004676	0.001431	0.282586	0.148006	0.947755	-0.470567	0.882360	0.002512	-0.835890	-0.446692	0.318990
29648	9.367672	-0.012203	3.144790	-0.001197	-0.001901	0.004397	0.282562	0.147998	0.947763	-0.470563	0.882363	0.002506	-0.835900	-0.446691	0.318964
29649	9.331315	0.053728	3.129591	-0.001764	0.002878	0.004366	0.282578	0.148011	0.947757	-0.470556	0.882366	0.002500	-0.835899	-0.446679	0.318985
29650	9.361896	0.010691	3.144653	0.000519	-0.000046	0.003398	0.282573	0.148002	0.947759	-0.470564	0.882362	0.002508	-0.835896	-0.446690	0.318977
29651	9.361413	0.035834	3.178420	0.000519	-0.000046	0.003398	0.282569	0.147994	0.947762	-0.470572	0.882358	0.002517	-0.835893	-0.446701	0.318969
29652	9.353599	-0.016751	3.164893	0.000141	0.003140	0.003377	0.282592	0.147999	0.947754	-0.470576	0.882356	0.002525	-0.835883	-0.446704	0.318991
29653	9.336415	0.053919	3.164086	0.000575	-0.000194	0.008258	0.282561	0.148033	0.947758	-0.470600	0.882343	0.002487	-0.835880	-0.446717	0.318981
29654	9.375699	0.012186	3.125357	-0.001029	0.004676	0.001431	0.282606	0.148029	0.947745	-0.470588	0.882349	0.002509	-0.835871	-0.446707	0.319018
29655	9.355950	0.032439	3.145048	0.002480	0.000067	0.007269	0.282583	0.148055	0.947748	-0.470626	0.882329	0.002488	-0.835858	-0.446738	0.319010
29656	9.322823	0.024010	3.150437	-0.002640	-0.002059	0.003924	0.282559	0.148042	0.947757	-0.470608	0.882339	0.002481	-0.835876	-0.446723	0.318983
29657	9.367460	-0.015932	3.145405	-0.000735	-0.001798	0.002935	0.282543	0.148021	0.947765	-0.470604	0.882341	0.002491	-0.835883	-0.446726	0.318959
29658	9.363812	0.083433	3.158492	-0.003207	0.002720	0.003893	0.282559	0.148030	0.947759	-0.470582	0.882353	0.002483	-0.835891	-0.446700	0.318977
29659	9.348233	-0.021499	3.131196	0.000707	-0.001639	0.003408	0.282542	0.148014	0.947767	-0.470584	0.882352	0.002490	-0.835895	-0.446707	0.318955
29660	9.350314	0.054135	3.144546	-0.000132	0.001445	0.004850	0.282544	0.148025	0.947765	-0.470590	0.882349	0.002482	-0.835891	-0.446710	0.318961
29661	9.362159	-0.019164	3.111528	-0.002556	0.001229	0.002441	0.282553	0.148013	0.947764	-0.470565	0.882362	0.002488	-0.835902	-0.446687	0.318964
