// General information: 
//  MT Manager version: 2019.2.0 
//  XDA version: 2019.2.0 build 3853 rev 94535 built on 2019-09-09
// Device information: 
//  DeviceId: 00B43FA9
//  ProductCode: MTW2-3A7G6
//  Firmware Version: 4.3.5
//  Hardware Version: 1.1.0
// Device settings: 
//  Filter Profile: human(46.1)
//  Option Flags: Orientation Smoother Disabled, AHS Disabled, ICC Disabled
// Coordinate system: ENU
PacketCounter	Acc_X	Acc_Y	Acc_Z	Gyr_X	Gyr_Y	Gyr_Z	Mat[1][1]	Mat[2][1]	Mat[3][1]	Mat[1][2]	Mat[2][2]	Mat[3][2]	Mat[1][3]	Mat[2][3]	Mat[3][3]
28840	9.401025	-0.040115	-2.385529	-0.001007	0.003894	-0.002206	0.228816	0.086557	0.969614	0.378295	-0.925661	-0.006639	0.896959	0.368319	-0.244550
28841	9.465857	-0.048692	-2.362755	-0.000172	0.003684	0.001494	0.228819	0.086542	0.969615	0.378288	-0.925664	-0.006653	0.896962	0.368316	-0.244547
28842	9.433587	-0.044452	-2.373562	0.000782	0.004846	-0.000120	0.228807	0.086537	0.969618	0.378292	-0.925662	-0.006654	0.896963	0.368321	-0.244534
28843	9.433678	-0.044479	-2.373201	0.001410	0.002784	0.000141	0.228814	0.086539	0.969616	0.378299	-0.925659	-0.006657	0.896958	0.368328	-0.244542
28844	9.433735	-0.044482	-2.372973	-0.000628	0.002062	-0.000261	0.228827	0.086546	0.969612	0.378291	-0.925663	-0.006653	0.896958	0.368318	-0.244556
28845	9.453476	-0.069504	-2.385958	0.002365	0.003946	-0.001472	0.228819	0.086558	0.969613	0.378310	-0.925655	-0.006644	0.896952	0.368335	-0.244553
28846	9.433878	-0.044360	-2.372405	-0.000628	0.002062	-0.000261	0.228832	0.086564	0.969609	0.378302	-0.925659	-0.006640	0.896952	0.368324	-0.244568
28847	9.433976	-0.044281	-2.372016	-0.001884	0.006187	-0.000783	0.228805	0.086560	0.969616	0.378282	-0.925667	-0.006629	0.896968	0.368305	-0.244541
28848	9.447994	-0.057075	-2.416548	0.002115	0.004176	0.000213	0.228801	0.086554	0.969618	0.378297	-0.925660	-0.006637	0.896962	0.368322	-0.244535
28849	9.428434	-0.071496	-2.418192	0.001410	0.002784	0.000142	0.228807	0.086556	0.969616	0.378311	-0.925655	-0.006641	0.896955	0.368336	-0.244542
28850	9.434256	-0.044331	-2.370904	0.000077	0.003454	-0.000190	0.228808	0.086557	0.969616	0.378309	-0.925656	-0.006640	0.896956	0.368333	-0.244542
28851	9.421609	-0.025674	-2.379847	-0.002211	0.002963	0.001092	0.228816	0.086547	0.969615	0.378287	-0.925665	-0.006646	0.896963	0.368313	-0.244547
28852	9.421731	-0.065148	-2.394719	0.000782	0.004846	-0.000119	0.228804	0.086542	0.969618	0.378291	-0.925663	-0.006648	0.896964	0.368318	-0.244534
28853	9.441474	-0.050782	-2.392351	0.000077	0.003454	-0.000190	0.228806	0.086542	0.969618	0.378287	-0.925664	-0.006648	0.896965	0.368315	-0.244535
28854	9.428851	-0.032104	-2.401205	0.000782	0.004846	-0.000119	0.228794	0.086537	0.969621	0.378291	-0.925663	-0.006649	0.896967	0.368320	-0.244522
28855	9.408090	-0.052367	-2.348657	0.002038	0.000722	0.000403	0.228824	0.086542	0.969613	0.378298	-0.925660	-0.006658	0.896956	0.368327	-0.244552
28856	9.434777	-0.044442	-2.368826	0.000154	0.006909	-0.000380	0.228793	0.086531	0.969622	0.378297	-0.925660	-0.006655	0.896964	0.368328	-0.244519
28857	9.448795	-0.057302	-2.413408	-0.000878	0.002292	0.001423	0.228812	0.086521	0.969618	0.378278	-0.925668	-0.006668	0.896968	0.368310	-0.244533
28858	9.441907	-0.050865	-2.390640	0.000327	0.003224	-0.001874	0.228808	0.086538	0.969617	0.378281	-0.925667	-0.006651	0.896967	0.368310	-0.244536
28859	9.415412	-0.058705	-2.369701	-0.000551	0.005517	-0.000451	0.228790	0.086533	0.969622	0.378273	-0.925670	-0.006646	0.896975	0.368303	-0.244517
28860	9.435162	-0.044307	-2.367297	0.000077	0.003454	-0.000190	0.228790	0.086534	0.969622	0.378271	-0.925671	-0.006645	0.896976	0.368300	-0.244518
28861	9.449160	-0.057110	-2.411984	0.000077	0.003454	-0.000190	0.228791	0.086535	0.969622	0.378269	-0.925672	-0.006643	0.896977	0.368297	-0.244519
28862	9.422658	-0.065058	-2.391069	0.000782	0.004846	-0.000118	0.228779	0.086530	0.969625	0.378272	-0.925670	-0.006644	0.896978	0.368303	-0.244506
28863	9.410045	-0.046273	-2.399909	-0.001006	0.003895	-0.002206	0.228770	0.086545	0.969626	0.378250	-0.925680	-0.006620	0.896990	0.368276	-0.244504
28864	9.442478	-0.050522	-2.388389	0.002743	0.002114	0.000475	0.228785	0.086545	0.969622	0.378270	-0.925671	-0.006632	0.896978	0.368297	-0.244517
28865	9.415911	-0.019045	-2.352336	-0.001256	0.004125	-0.000522	0.228779	0.086546	0.969623	0.378252	-0.925679	-0.006623	0.896987	0.368277	-0.244513
28866	9.462277	-0.036159	-2.385782	0.001410	0.002784	0.000143	0.228787	0.086547	0.969622	0.378261	-0.925675	-0.006629	0.896981	0.368286	-0.244520
28867	9.429983	-0.031821	-2.396761	-0.001961	0.002733	-0.000593	0.228793	0.086554	0.969620	0.378234	-0.925686	-0.006616	0.896991	0.368257	-0.244528
28868	9.435798	-0.044164	-2.364763	0.002493	0.002344	0.002159	0.228812	0.086537	0.969617	0.378248	-0.925680	-0.006644	0.896980	0.368276	-0.244539
28869	9.423211	-0.064964	-2.388894	-0.000301	0.005287	-0.002135	0.228790	0.086547	0.969621	0.378240	-0.925684	-0.006624	0.896989	0.368265	-0.244523
28870	9.448703	-0.062860	-2.354755	0.001160	0.003014	0.001827	0.228802	0.086531	0.969619	0.378243	-0.925682	-0.006645	0.896985	0.368272	-0.244528
28871	9.410676	-0.046271	-2.397433	-0.001006	0.003895	-0.002206	0.228790	0.086548	0.969621	0.378237	-0.925685	-0.006622	0.896990	0.368262	-0.244523
28872	9.423431	-0.025406	-2.372625	0.001410	0.002784	0.000143	0.228798	0.086549	0.969619	0.378246	-0.925681	-0.006627	0.896985	0.368271	-0.244530
28873	9.423554	-0.064834	-2.387544	0.002366	0.003946	-0.001470	0.228787	0.086563	0.969620	0.378271	-0.925671	-0.006616	0.896977	0.368292	-0.244526
28874	9.448988	-0.023237	-2.338207	0.000077	0.003455	-0.000189	0.228788	0.086563	0.969620	0.378268	-0.925672	-0.006615	0.896978	0.368290	-0.244526
28875	9.443391	-0.050386	-2.384781	-0.000551	0.005517	-0.000450	0.228770	0.086558	0.969625	0.378258	-0.925677	-0.006610	0.896987	0.368280	-0.244508
28876	9.423828	-0.025279	-2.371047	0.000782	0.004847	-0.000118	0.228758	0.086553	0.969628	0.378262	-0.925675	-0.006611	0.896988	0.368285	-0.244495
28877	9.430871	-0.031629	-2.393266	0.000955	0.001162	-0.001613	0.228773	0.086576	0.969622	0.378270	-0.925672	-0.006597	0.896981	0.368288	-0.244518
28878	9.443653	-0.050273	-2.383747	-0.001506	0.004355	0.001163	0.228770	0.086561	0.969624	0.378251	-0.925680	-0.006605	0.896990	0.368272	-0.244510
28879	9.443735	-0.050257	-2.383420	0.001661	0.002554	-0.001541	0.228773	0.086579	0.969622	0.378270	-0.925672	-0.006594	0.896981	0.368288	-0.244519
28880	9.417176	-0.058137	-2.362695	-0.000628	0.002062	-0.000261	0.228785	0.086586	0.969619	0.378262	-0.925675	-0.006591	0.896981	0.368277	-0.244533
28881	9.457805	-0.062978	-2.427944	0.000077	0.003455	-0.000189	0.228786	0.086589	0.969618	0.378260	-0.925676	-0.006588	0.896982	0.368275	-0.244534
28882	9.443947	-0.050109	-2.382584	-0.001256	0.004125	-0.000522	0.228779	0.086590	0.969620	0.378246	-0.925682	-0.006580	0.896989	0.368261	-0.244529
28883	9.444054	-0.050073	-2.382161	0.000782	0.004847	-0.000117	0.228767	0.086588	0.969623	0.378252	-0.925679	-0.006579	0.896990	0.368266	-0.244517
28884	9.431447	-0.031366	-2.390999	-0.001256	0.004125	-0.000522	0.228760	0.086589	0.969624	0.378238	-0.925685	-0.006571	0.896998	0.368252	-0.244511
28885	9.431511	-0.031262	-2.390750	0.000956	0.001162	-0.001613	0.228778	0.086613	0.969618	0.378243	-0.925683	-0.006557	0.896991	0.368251	-0.244537
28886	9.424646	-0.064117	-2.383248	-0.001005	0.003895	-0.002206	0.228767	0.086631	0.969619	0.378236	-0.925686	-0.006534	0.896997	0.368239	-0.244533
28887	9.419051	-0.051768	-2.414467	0.002192	0.007631	0.000026	0.228733	0.086614	0.969628	0.378242	-0.925684	-0.006538	0.897003	0.368250	-0.244496
28888	9.438815	-0.037454	-2.411975	0.001410	0.002784	0.000144	0.228741	0.086614	0.969626	0.378251	-0.925680	-0.006544	0.896997	0.368259	-0.244503
28889	9.437687	-0.082797	-2.372684	0.001410	0.002784	0.000144	0.228750	0.086613	0.969624	0.378259	-0.925677	-0.006550	0.896991	0.368268	-0.244511
28890	9.431992	-0.031118	-2.388853	0.000782	0.004847	-0.000117	0.228739	0.086608	0.969628	0.378263	-0.925675	-0.006551	0.896993	0.368273	-0.244498
28891	9.451776	-0.056151	-2.401735	0.001661	0.002554	-0.001540	0.228741	0.086626	0.969626	0.378285	-0.925666	-0.006541	0.896983	0.368291	-0.244507
28892	9.412514	-0.045374	-2.390222	0.000077	0.003455	-0.000189	0.228741	0.086627	0.969625	0.378283	-0.925667	-0.006540	0.896984	0.368288	-0.244508
28893	9.451971	-0.056065	-2.400968	0.003776	0.006731	-0.001325	0.228712	0.086624	0.969632	0.378308	-0.925657	-0.006538	0.896980	0.368315	-0.244479
28894	9.412742	-0.045311	-2.389327	-0.000628	0.002063	-0.000261	0.228725	0.086630	0.969629	0.378300	-0.925660	-0.006535	0.896981	0.368305	-0.244493
28895	9.425513	-0.064061	-2.379819	0.001159	0.003015	0.001828	0.228737	0.086614	0.969627	0.378295	-0.925662	-0.006554	0.896979	0.368305	-0.244499
28896	9.439530	-0.037511	-2.409178	-0.000551	0.005517	-0.000450	0.228718	0.086610	0.969632	0.378288	-0.925665	-0.006549	0.896987	0.368298	-0.244480
28897	9.425723	-0.064174	-2.378983	-0.000174	0.003685	0.001495	0.228725	0.086595	0.969632	0.378275	-0.925670	-0.006562	0.896991	0.368289	-0.244480
28898	9.439732	-0.037504	-2.408386	-0.001005	0.003895	-0.002206	0.228713	0.086613	0.969633	0.378268	-0.925673	-0.006538	0.896997	0.368277	-0.244477
28899	9.425902	-0.064003	-2.378280	0.000077	0.003455	-0.000189	0.228714	0.086616	0.969633	0.378262	-0.925676	-0.006534	0.896999	0.368270	-0.244478
28900	9.438624	-0.043317	-2.353471	0.001159	0.003015	0.001828	0.228726	0.086600	0.969631	0.378265	-0.925674	-0.006555	0.896995	0.368277	-0.244483
28901	9.420332	-0.051962	-2.409461	-0.002212	0.002963	0.001091	0.228733	0.086592	0.969630	0.378244	-0.925683	-0.006559	0.897002	0.368257	-0.244487
28902	9.419143	-0.057684	-2.354852	0.001285	0.004387	-0.003485	0.228713	0.086620	0.969633	0.378260	-0.925676	-0.006529	0.897000	0.368267	-0.244479
28903	9.472467	-0.041671	-2.395580	0.002038	0.000722	0.000405	0.228740	0.086626	0.969626	0.378269	-0.925673	-0.006537	0.896990	0.368275	-0.244506
28904	9.433218	-0.030983	-2.384008	0.000155	0.006910	-0.000377	0.228709	0.086616	0.969634	0.378268	-0.925673	-0.006534	0.896998	0.368276	-0.244474
28905	9.453047	-0.056117	-2.396728	-0.000174	0.003685	0.001496	0.228712	0.086602	0.969635	0.378265	-0.925674	-0.006548	0.896999	0.368276	-0.244471
28906	9.419510	-0.057687	-2.353384	-0.001255	0.004125	-0.000521	0.228705	0.086603	0.969636	0.378251	-0.925680	-0.006540	0.897006	0.368262	-0.244465
28907	9.408173	-0.033156	-2.416596	0.001410	0.002785	0.000145	0.228713	0.086606	0.969634	0.378259	-0.925677	-0.006542	0.897001	0.368269	-0.244473
28908	9.433622	-0.070596	-2.397903	-0.000251	0.000230	0.001684	0.228749	0.086601	0.969626	0.378249	-0.925681	-0.006559	0.896996	0.368260	-0.244505
28909	9.440630	-0.037653	-2.404860	0.001488	0.006240	-0.000044	0.228722	0.086592	0.969633	0.378267	-0.925673	-0.006561	0.896995	0.368280	-0.244477
28910	9.419806	-0.057825	-2.352196	0.001661	0.002554	-0.001539	0.228726	0.086609	0.969631	0.378282	-0.925667	-0.006551	0.896988	0.368292	-0.244487
28911	9.446531	-0.049823	-2.372324	0.000782	0.004847	-0.000116	0.228717	0.086602	0.969633	0.378280	-0.925668	-0.006553	0.896991	0.368291	-0.244475
28912	9.440933	-0.037532	-2.403671	-0.001255	0.004125	-0.000521	0.228710	0.086603	0.969635	0.378266	-0.925674	-0.006545	0.896999	0.368277	-0.244470
28913	9.420081	-0.057724	-2.351099	0.001410	0.002785	0.000145	0.228716	0.086603	0.969633	0.378279	-0.925669	-0.006551	0.896992	0.368290	-0.244475
28914	9.453771	-0.056221	-2.393868	0.000705	0.001392	0.000072	0.228736	0.086609	0.969628	0.378281	-0.925667	-0.006554	0.896986	0.368291	-0.244496
28915	9.421507	-0.052009	-2.404859	0.000531	0.005078	0.001568	0.228726	0.086588	0.969632	0.378283	-0.925667	-0.006571	0.896987	0.368298	-0.244479
28916	9.459640	-0.068596	-2.361429	0.001662	0.002554	-0.001539	0.228730	0.086605	0.969630	0.378298	-0.925661	-0.006561	0.896980	0.368310	-0.244488
28917	9.421688	-0.051913	-2.404153	-0.002588	0.004796	-0.000855	0.228715	0.086606	0.969633	0.378270	-0.925672	-0.006547	0.896996	0.368281	-0.244476
28918	9.441386	-0.037367	-2.401895	0.002541	0.000262	-0.002963	0.228734	0.086644	0.969625	0.378296	-0.925662	-0.006524	0.896980	0.368298	-0.244507
28919	9.420502	-0.057654	-2.349413	-0.002010	0.004816	0.004531	0.228739	0.086596	0.969629	0.378268	-0.925673	-0.006565	0.896990	0.368281	-0.244494
28920	9.434577	-0.031131	-2.378623	0.000406	0.006680	-0.002060	0.228704	0.086602	0.969636	0.378273	-0.925671	-0.006546	0.896997	0.368285	-0.244464
28921	9.441709	-0.037521	-2.400623	-0.000174	0.003685	0.001496	0.228708	0.086586	0.969637	0.378262	-0.925675	-0.006560	0.897001	0.368277	-0.244461
28922	9.429167	-0.058361	-2.424799	0.000077	0.003455	-0.000188	0.228708	0.086587	0.969637	0.378259	-0.925676	-0.006559	0.897002	0.368274	-0.244462
28923	9.447547	-0.049917	-2.368274	0.000453	0.001623	0.001757	0.228732	0.086576	0.969632	0.378253	-0.925679	-0.006577	0.896999	0.368270	-0.244480
28924	9.422271	-0.052139	-2.401862	0.001410	0.002785	0.000145	0.228740	0.086576	0.969630	0.378262	-0.925675	-0.006582	0.896993	0.368280	-0.244487
28925	9.454652	-0.016817	-2.374857	-0.000674	0.007120	-0.004078	0.228690	0.086603	0.969640	0.378265	-0.925674	-0.006538	0.897004	0.368276	-0.244451
28926	9.447853	-0.049688	-2.367055	-0.001507	0.004356	0.001163	0.228687	0.086588	0.969642	0.378246	-0.925682	-0.006546	0.897013	0.368260	-0.244443
28927	9.395963	-0.059735	-2.380068	0.001662	0.002555	-0.001539	0.228689	0.086607	0.969639	0.378268	-0.925673	-0.006535	0.897003	0.368278	-0.244452
28928	9.481681	-0.048118	-2.409351	-0.001507	0.004356	0.001163	0.228687	0.086592	0.969641	0.378249	-0.925681	-0.006543	0.897012	0.368262	-0.244444
28929	9.441096	-0.043348	-2.343535	-0.000174	0.003686	0.001496	0.228691	0.086577	0.969642	0.378238	-0.925685	-0.006555	0.897015	0.368254	-0.244443
28930	9.455203	-0.056268	-2.388205	0.001410	0.002785	0.000146	0.228699	0.086577	0.969640	0.378247	-0.925682	-0.006561	0.897010	0.368264	-0.244450
28931	9.422958	-0.051916	-2.399171	0.001035	0.004617	-0.001799	0.228678	0.086592	0.969643	0.378265	-0.925674	-0.006543	0.897007	0.368278	-0.244437
28932	9.455387	-0.056137	-2.387479	0.003700	0.003277	-0.001132	0.228677	0.086603	0.969643	0.378297	-0.925661	-0.006542	0.896994	0.368309	-0.244439
28933	9.435800	-0.030997	-2.373768	-0.001178	0.007581	-0.000709	0.228640	0.086595	0.969652	0.378281	-0.925668	-0.006531	0.897010	0.368294	-0.244402
28934	9.435953	-0.070572	-2.388714	0.000123	-0.001602	0.003629	0.228700	0.086579	0.969639	0.378270	-0.925672	-0.006566	0.896999	0.368287	-0.244452
28935	9.442928	-0.037714	-2.395819	0.000783	0.004848	-0.000115	0.228691	0.086573	0.969642	0.378268	-0.925673	-0.006568	0.897002	0.368287	-0.244441
28936	9.416372	-0.045661	-2.374974	0.000078	0.003455	-0.000188	0.228691	0.086573	0.969642	0.378266	-0.925674	-0.006567	0.897003	0.368284	-0.244441
28937	9.455813	-0.056254	-2.385789	-0.001003	0.003895	-0.002205	0.228679	0.086595	0.969643	0.378263	-0.925675	-0.006540	0.897008	0.368275	-0.244438
28938	9.444545	-0.031655	-2.449026	0.001410	0.002785	0.000146	0.228686	0.086595	0.969641	0.378271	-0.925672	-0.006546	0.897002	0.368284	-0.244445
28939	9.448961	-0.049774	-2.362627	0.000783	0.004848	-0.000115	0.228678	0.086590	0.969644	0.378266	-0.925674	-0.006546	0.897007	0.368280	-0.244435
28940	9.449057	-0.049769	-2.362242	0.003700	0.003277	-0.001131	0.228676	0.086600	0.969643	0.378298	-0.925661	-0.006544	0.896994	0.368311	-0.244437
28941	9.423853	-0.051955	-2.395652	-0.003092	0.005257	0.002513	0.228672	0.086566	0.969647	0.378254	-0.925678	-0.006563	0.897013	0.368274	-0.244421
28942	9.443558	-0.037714	-2.393334	0.002038	0.000722	0.000407	0.228699	0.086572	0.969640	0.378268	-0.925673	-0.006572	0.897000	0.368287	-0.244448
28943	9.423984	-0.052160	-2.395131	-0.001507	0.004356	0.001163	0.228695	0.086558	0.969642	0.378256	-0.925678	-0.006581	0.897007	0.368278	-0.244439
28944	9.443710	-0.037747	-2.392736	0.000330	0.003225	-0.001871	0.228692	0.086575	0.969642	0.378260	-0.925676	-0.006564	0.897006	0.368277	-0.244442
28945	9.456495	-0.056368	-2.383084	-0.001507	0.004356	0.001163	0.228694	0.086557	0.969643	0.378227	-0.925690	-0.006573	0.897019	0.368248	-0.244437
28946	9.404529	-0.027042	-2.380893	0.001410	0.002785	0.000146	0.228701	0.086557	0.969641	0.378236	-0.925686	-0.006578	0.897014	0.368257	-0.244445
28947	9.456668	-0.056379	-2.382395	0.001035	0.004618	-0.001798	0.228685	0.086570	0.969644	0.378246	-0.925682	-0.006562	0.897014	0.368264	-0.244434
28948	9.451088	-0.044111	-2.413847	-0.000880	0.002293	0.001423	0.228702	0.086560	0.969641	0.378231	-0.925688	-0.006574	0.897015	0.368252	-0.244446
28949	9.424475	-0.052173	-2.393197	0.002743	0.002115	0.000480	0.228716	0.086561	0.969637	0.378252	-0.925679	-0.006584	0.897003	0.368273	-0.244460
28950	9.424531	-0.052176	-2.392976	0.001663	0.002555	-0.001537	0.228720	0.086578	0.969635	0.378267	-0.925673	-0.006574	0.896996	0.368284	-0.244469
28951	9.463882	-0.023428	-2.388568	-0.001507	0.004356	0.001163	0.228716	0.086564	0.969637	0.378250	-0.925680	-0.006581	0.897004	0.368270	-0.244461
28952	9.424741	-0.052213	-2.392151	0.001488	0.006241	-0.000041	0.228692	0.086553	0.969643	0.378260	-0.925676	-0.006585	0.897006	0.368283	-0.244434
28953	9.437456	-0.031439	-2.367169	0.000078	0.003456	-0.000187	0.228694	0.086554	0.969643	0.378250	-0.925680	-0.006582	0.897010	0.368273	-0.244436
28954	9.424942	-0.052282	-2.391357	-0.000175	0.003686	0.001497	0.228698	0.086538	0.969643	0.378241	-0.925683	-0.006597	0.897012	0.368268	-0.244435
28955	9.451694	-0.044317	-2.411467	0.000330	0.003225	-0.001871	0.228694	0.086559	0.969643	0.378247	-0.925681	-0.006577	0.897011	0.368268	-0.244438
28956	9.425121	-0.052111	-2.390654	-0.002587	0.004796	-0.000855	0.228679	0.086561	0.969646	0.378222	-0.925692	-0.006562	0.897025	0.368242	-0.244426
28957	9.444837	-0.037729	-2.388282	0.002743	0.002115	0.000481	0.228694	0.086563	0.969642	0.378248	-0.925681	-0.006573	0.897010	0.368269	-0.244440
28958	9.444936	-0.037725	-2.387890	-0.001882	0.006189	-0.000782	0.228668	0.086559	0.969649	0.378230	-0.925689	-0.006561	0.897025	0.368250	-0.244414
28959	9.411446	-0.078836	-2.359699	0.005232	0.004460	0.002646	0.228670	0.086532	0.969651	0.378268	-0.925673	-0.006599	0.897008	0.368296	-0.244406
28960	9.419846	-0.040015	-2.420960	0.001211	0.000932	-0.003294	0.228682	0.086570	0.969644	0.378283	-0.925667	-0.006570	0.896999	0.368302	-0.244431
28961	9.452233	-0.044288	-2.409356	0.001862	0.004409	0.001905	0.228682	0.086547	0.969646	0.378288	-0.925665	-0.006594	0.896997	0.368313	-0.244423
28962	9.445258	-0.037918	-2.386614	0.000958	0.001162	-0.001610	0.228698	0.086569	0.969641	0.378297	-0.925661	-0.006582	0.896989	0.368317	-0.244446
28963	9.425689	-0.052180	-2.388413	-0.001255	0.004126	-0.000521	0.228859	0.086634	0.969597	0.378214	-0.925695	-0.006560	0.896982	0.368217	-0.244620
28964	9.425780	-0.052208	-2.388053	0.003448	0.003508	0.000555	0.228862	0.086628	0.969597	0.378240	-0.925684	-0.006575	0.896971	0.368245	-0.244620
28965	9.445473	-0.037997	-2.385760	0.000452	0.001623	0.001758	0.228887	0.086619	0.969592	0.378238	-0.925685	-0.006592	0.896965	0.368245	-0.244640
28966	9.425938	-0.052545	-2.387420	-0.002388	0.006650	0.002586	0.228869	0.086583	0.969599	0.378207	-0.925697	-0.006612	0.896983	0.368222	-0.244610
28967	9.426025	-0.052682	-2.387073	0.002037	0.000722	0.000408	0.228896	0.086590	0.969592	0.378221	-0.925691	-0.006619	0.896970	0.368236	-0.244637
28968	9.451365	-0.050612	-2.352973	0.000783	0.004849	-0.000113	0.228884	0.086585	0.969595	0.378225	-0.925690	-0.006621	0.896971	0.368241	-0.244625
28969	9.426199	-0.052694	-2.386387	-0.001255	0.004126	-0.000521	0.228877	0.086586	0.969597	0.378211	-0.925696	-0.006613	0.896979	0.368226	-0.244619
28970	9.438973	-0.071237	-2.376732	0.000331	0.003225	-0.001871	0.228874	0.086603	0.969596	0.378215	-0.925694	-0.006596	0.896978	0.368225	-0.244622
28971	9.413701	-0.033899	-2.394959	0.000530	0.005079	0.001571	0.228865	0.086585	0.969600	0.378216	-0.925694	-0.006610	0.896980	0.368231	-0.244606
28972	9.433552	-0.058993	-2.407667	0.001036	0.004618	-0.001797	0.228849	0.086596	0.969603	0.378226	-0.925690	-0.006596	0.896980	0.368239	-0.244596
28973	9.426615	-0.052431	-2.384748	-0.002587	0.004797	-0.000855	0.228836	0.086600	0.969605	0.378198	-0.925701	-0.006579	0.896995	0.368208	-0.244586
28974	9.414144	-0.073181	-2.408850	-0.001508	0.004357	0.001163	0.228834	0.086585	0.969607	0.378178	-0.925709	-0.006587	0.897004	0.368192	-0.244578
28975	9.446439	-0.038014	-2.381934	0.001663	0.002555	-0.001536	0.228839	0.086601	0.969604	0.378187	-0.925706	-0.006577	0.896999	0.368197	-0.244589
28976	9.439567	-0.071140	-2.374375	-0.000429	0.003917	0.003181	0.228849	0.086569	0.969605	0.378173	-0.925712	-0.006608	0.897003	0.368190	-0.244586
28977	9.460720	-0.051126	-2.426193	0.002115	0.004178	0.000222	0.228844	0.086563	0.969607	0.378190	-0.925705	-0.006616	0.896997	0.368209	-0.244579
28978	9.427068	-0.052605	-2.382955	0.000331	0.003225	-0.001870	0.228840	0.086580	0.969606	0.378193	-0.925703	-0.006599	0.896996	0.368209	-0.244582
28979	9.427150	-0.052589	-2.382629	-0.000176	0.003687	0.001497	0.228847	0.086562	0.969606	0.378177	-0.925710	-0.006614	0.897001	0.368197	-0.244582
28980	9.434296	-0.058960	-2.404753	0.002622	0.003717	-0.003146	0.228834	0.086589	0.969607	0.378205	-0.925699	-0.006591	0.896993	0.368218	-0.244580
28981	9.453975	-0.044478	-2.402508	-0.003623	0.000179	0.000941	0.228869	0.086593	0.969598	0.378167	-0.925714	-0.006591	0.897000	0.368178	-0.244614
28982	9.427362	-0.052367	-2.381797	-0.001882	0.006190	-0.000781	0.228843	0.086589	0.969605	0.378148	-0.925722	-0.006579	0.897014	0.368160	-0.244589
28983	9.454270	-0.083912	-2.416994	0.001157	0.003016	0.001832	0.228853	0.086576	0.969604	0.378157	-0.925718	-0.006598	0.897008	0.368173	-0.244593
28984	9.427533	-0.052564	-2.381113	-0.000881	0.002294	0.001424	0.228870	0.086566	0.969600	0.378143	-0.925724	-0.006610	0.897010	0.368160	-0.244605
28985	9.440173	-0.031829	-2.356306	0.000078	0.003456	-0.000186	0.228873	0.086567	0.969600	0.378136	-0.925727	-0.006608	0.897012	0.368153	-0.244608
28986	9.427698	-0.052533	-2.380462	0.001037	0.004618	-0.001796	0.228857	0.086579	0.969602	0.378146	-0.925723	-0.006594	0.897012	0.368160	-0.244597
28987	9.434840	-0.058860	-2.402618	-0.000627	0.002063	-0.000260	0.228870	0.086587	0.969598	0.378136	-0.925727	-0.006588	0.897013	0.368148	-0.244613
28988	9.454548	-0.044510	-2.400249	-0.001508	0.004357	0.001163	0.228868	0.086572	0.969600	0.378116	-0.925735	-0.006596	0.897022	0.368131	-0.244605
28989	9.401258	-0.060402	-2.359049	0.002369	0.003948	-0.001461	0.228861	0.086582	0.969601	0.378128	-0.925730	-0.006588	0.897018	0.368141	-0.244602
28990	9.435083	-0.058845	-2.401664	-0.002918	0.001571	0.001015	0.228883	0.086578	0.969596	0.378096	-0.925743	-0.006591	0.897026	0.368109	-0.244621
28991	9.454877	-0.083891	-2.414622	0.001664	0.002555	-0.001535	0.228888	0.086594	0.969594	0.378105	-0.925739	-0.006581	0.897021	0.368114	-0.244633
28992	9.422529	-0.040154	-2.410493	-0.000176	0.003687	0.001498	0.228893	0.086578	0.969594	0.378096	-0.925743	-0.006595	0.897023	0.368109	-0.244631
28993	9.447861	-0.038174	-2.376287	-0.000176	0.003687	0.001498	0.228899	0.086563	0.969594	0.378088	-0.925746	-0.006610	0.897026	0.368105	-0.244630
28994	9.421257	-0.046227	-2.355507	-0.001508	0.004357	0.001163	0.228896	0.086548	0.969596	0.378068	-0.925754	-0.006618	0.897035	0.368088	-0.244623
28995	9.455118	-0.044804	-2.397997	-0.000176	0.003687	0.001498	0.228904	0.086532	0.969595	0.378052	-0.925761	-0.006631	0.897039	0.368075	-0.244624
28996	9.403138	-0.015355	-2.395956	0.001918	0.002325	-0.003219	0.228903	0.086565	0.969593	0.378073	-0.925752	-0.006605	0.897031	0.368089	-0.244636
28997	9.428592	-0.052763	-2.376912	-0.001311	0.006211	0.004606	0.228899	0.086511	0.969598	0.378042	-0.925764	-0.006646	0.897045	0.368071	-0.244612
28998	9.448441	-0.077999	-2.389647	0.001664	0.002555	-0.001535	0.228903	0.086528	0.969596	0.378057	-0.925758	-0.006636	0.897037	0.368082	-0.244621
28999	9.435734	-0.019863	-2.383421	-0.001508	0.004357	0.001163	0.228903	0.086511	0.969597	0.378028	-0.925770	-0.006644	0.897050	0.368056	-0.244616
29000	9.441545	-0.071594	-2.366483	0.000078	0.003456	-0.000186	0.228904	0.086512	0.969597	0.378026	-0.925771	-0.006643	0.897050	0.368054	-0.244616
29001	9.423334	-0.040649	-2.407336	-0.000627	0.002063	-0.000260	0.228917	0.086519	0.969594	0.378017	-0.925775	-0.006639	0.897051	0.368043	-0.244631
29002	9.435975	-0.019849	-2.382466	0.000783	0.004849	-0.000111	0.228905	0.086514	0.969597	0.378021	-0.925773	-0.006641	0.897052	0.368048	-0.244618
29003	9.403887	-0.054994	-2.408696	0.000078	0.003456	-0.000186	0.228906	0.086517	0.969596	0.378020	-0.925774	-0.006638	0.897053	0.368046	-0.244620
29004	9.455916	-0.045037	-2.394846	0.001861	0.004409	0.001908	0.228906	0.086494	0.969598	0.378029	-0.925770	-0.006662	0.897049	0.368061	-0.244611
29005	9.436395	-0.059443	-2.396489	-0.002586	0.004797	-0.000855	0.228888	0.086501	0.969602	0.378017	-0.925775	-0.006645	0.897058	0.368047	-0.244597
29006	9.409754	-0.067361	-2.375841	0.002037	0.000722	0.000410	0.228915	0.086506	0.969595	0.378031	-0.925769	-0.006655	0.897046	0.368060	-0.244625
29007	9.423872	-0.040731	-2.405228	-0.001881	0.006190	-0.000781	0.228890	0.086504	0.969601	0.378008	-0.925779	-0.006641	0.897061	0.368037	-0.244601
29008	9.443705	-0.065727	-2.418047	-0.001332	0.000671	-0.000335	0.228915	0.086516	0.969594	0.377993	-0.925785	-0.006635	0.897061	0.368019	-0.244629
29009	9.429598	-0.052850	-2.372919	0.000078	0.003456	-0.000185	0.228915	0.086518	0.969594	0.377992	-0.925785	-0.006632	0.897062	0.368017	-0.244629
29010	9.449329	-0.038558	-2.370434	0.000529	0.005080	0.001573	0.228908	0.086497	0.969598	0.377989	-0.925786	-0.006649	0.897065	0.368020	-0.244614
29011	9.404579	-0.055111	-2.405990	0.000078	0.003456	-0.000185	0.228908	0.086499	0.969597	0.377987	-0.925787	-0.006647	0.897066	0.368017	-0.244615
29012	9.429889	-0.052949	-2.371757	-0.001254	0.004127	-0.000520	0.228901	0.086500	0.969599	0.377974	-0.925793	-0.006639	0.897073	0.368003	-0.244609
29013	9.424414	-0.040555	-2.403106	-0.000294	0.005289	-0.002129	0.228877	0.086516	0.969603	0.377977	-0.925791	-0.006616	0.897078	0.368002	-0.244593
29014	9.430100	-0.052801	-2.370921	0.001156	0.003016	0.001834	0.228889	0.086499	0.969602	0.377980	-0.925790	-0.006637	0.897074	0.368009	-0.244598
29015	9.449763	-0.038460	-2.368704	0.000254	-0.000231	-0.001684	0.228916	0.086528	0.969593	0.377982	-0.925789	-0.006621	0.897066	0.368004	-0.244634
29016	9.430191	-0.052829	-2.370561	0.000529	0.005080	0.001574	0.228909	0.086506	0.969597	0.377980	-0.925790	-0.006638	0.897069	0.368007	-0.244619
29017	9.417623	-0.034234	-2.379488	0.000078	0.003456	-0.000185	0.228908	0.086508	0.969596	0.377981	-0.925790	-0.006636	0.897068	0.368008	-0.244619
29018	9.444554	-0.065692	-2.414729	-0.001254	0.004127	-0.000520	0.228902	0.086510	0.969598	0.377967	-0.925795	-0.006628	0.897076	0.367993	-0.244614
29019	9.424907	-0.040570	-2.401172	0.000783	0.004849	-0.000110	0.228888	0.086509	0.969601	0.377976	-0.925792	-0.006626	0.897076	0.368003	-0.244601
29020	9.437532	-0.019771	-2.376293	-0.000627	0.002064	-0.000260	0.228901	0.086515	0.969598	0.377968	-0.925795	-0.006623	0.897076	0.367992	-0.244615
29021	9.425040	-0.040590	-2.400649	0.002742	0.002115	0.000485	0.228916	0.086516	0.969594	0.377988	-0.925787	-0.006634	0.897063	0.368014	-0.244629
29022	9.437808	-0.059255	-2.390925	-0.001881	0.006191	-0.000780	0.228889	0.086512	0.969601	0.377970	-0.925794	-0.006622	0.897078	0.367995	-0.244603
29023	9.457542	-0.044777	-2.388421	0.001665	0.002555	-0.001534	0.228891	0.086529	0.969599	0.377984	-0.925788	-0.006610	0.897071	0.368006	-0.244612
29024	9.430888	-0.052697	-2.367790	-0.002214	0.002965	0.001088	0.228901	0.086520	0.969597	0.377958	-0.925799	-0.006616	0.897080	0.367982	-0.244618
29025	9.464777	-0.051185	-2.410319	0.000078	0.003457	-0.000185	0.228902	0.086521	0.969597	0.377950	-0.925802	-0.006613	0.897083	0.367973	-0.244618
29026	9.431064	-0.052787	-2.367085	0.000529	0.005080	0.001574	0.228894	0.086499	0.969601	0.377948	-0.925803	-0.006630	0.897086	0.367976	-0.244603
29027	9.431163	-0.052783	-2.366693	0.000333	0.003226	-0.001869	0.228893	0.086515	0.969599	0.377939	-0.925807	-0.006613	0.897090	0.367964	-0.244608
29028	9.438326	-0.059065	-2.388881	0.001665	0.002555	-0.001533	0.228897	0.086531	0.969597	0.377954	-0.925801	-0.006603	0.897082	0.367975	-0.244618
29029	9.432845	-0.046692	-2.420331	-0.002586	0.004798	-0.000855	0.228882	0.086533	0.969600	0.377931	-0.925810	-0.006589	0.897096	0.367950	-0.244605
29030	9.431412	-0.052552	-2.365705	0.001155	0.003017	0.001834	0.228894	0.086517	0.969599	0.377934	-0.925809	-0.006610	0.897092	0.367957	-0.244610
29031	9.458203	-0.044652	-2.385805	0.001665	0.002556	-0.001533	0.228897	0.086536	0.969597	0.377953	-0.925801	-0.006598	0.897083	0.367972	-0.244619
29032	9.425965	-0.040279	-2.397021	-0.000627	0.002064	-0.000260	0.228909	0.086542	0.969593	0.377944	-0.925805	-0.006594	0.897083	0.367962	-0.244634
29033	9.438721	-0.058974	-2.387323	0.002820	0.005572	0.000301	0.228891	0.086532	0.969598	0.377960	-0.925798	-0.006602	0.897081	0.367981	-0.244613
29034	9.424638	-0.046144	-2.341945	-0.001254	0.004127	-0.000520	0.228885	0.086533	0.969600	0.377947	-0.925804	-0.006594	0.897089	0.367966	-0.244607
29035	9.444491	-0.071183	-2.354709	0.000078	0.003457	-0.000185	0.228884	0.086537	0.969600	0.377951	-0.925802	-0.006592	0.897087	0.367970	-0.244608
29036	9.426347	-0.040328	-2.395517	0.003447	0.003509	0.000562	0.228887	0.086530	0.969599	0.377978	-0.925791	-0.006606	0.897075	0.367999	-0.244608
29037	9.439110	-0.058991	-2.385785	-0.002586	0.004798	-0.000856	0.228876	0.086531	0.969602	0.377946	-0.925804	-0.006593	0.897091	0.367966	-0.244598
29038	9.419410	-0.033878	-2.372406	0.002037	0.000723	0.000411	0.228904	0.086536	0.969595	0.377960	-0.925798	-0.006602	0.897078	0.367979	-0.244626
29039	9.439242	-0.059012	-2.385261	0.000783	0.004850	-0.000109	0.228892	0.086531	0.969598	0.377963	-0.925797	-0.006603	0.897080	0.367984	-0.244613
29040	9.432245	-0.052557	-2.362379	-0.001254	0.004127	-0.000520	0.228885	0.086532	0.969600	0.377950	-0.925803	-0.006596	0.897087	0.367970	-0.244607
29041	9.433875	-0.046714	-2.416311	0.001410	0.002786	0.000151	0.228891	0.086536	0.969598	0.377966	-0.925796	-0.006599	0.897079	0.367985	-0.244614
29042	9.439523	-0.058989	-2.384150	0.000783	0.004850	-0.000109	0.228879	0.086531	0.969601	0.377969	-0.925795	-0.006600	0.897080	0.367990	-0.244601
29043	9.464796	-0.056897	-2.349884	0.001410	0.002786	0.000151	0.228885	0.086533	0.969600	0.377984	-0.925789	-0.006605	0.897073	0.368005	-0.244608
29044	9.434160	-0.046767	-2.415197	-0.000549	0.005521	-0.000444	0.228867	0.086528	0.969605	0.377977	-0.925792	-0.006600	0.897081	0.367998	-0.244588
29045	9.432738	-0.052615	-2.360408	-0.000804	0.005751	0.001239	0.228853	0.086507	0.969610	0.377960	-0.925798	-0.006610	0.897091	0.367987	-0.244568
29046	9.420176	-0.033945	-2.369361	0.001666	0.002556	-0.001532	0.228857	0.086524	0.969607	0.377975	-0.925792	-0.006600	0.897084	0.367998	-0.244578
29047	9.434507	-0.046826	-2.413839	-0.002391	0.006653	0.002588	0.228840	0.086488	0.969614	0.377948	-0.925803	-0.006619	0.897100	0.367978	-0.244549
29048	9.440167	-0.059190	-2.381593	0.001410	0.002786	0.000152	0.228848	0.086488	0.969613	0.377957	-0.925800	-0.006625	0.897094	0.367987	-0.244556
29049	9.420617	-0.073649	-2.383396	-0.000177	0.003688	0.001500	0.228854	0.086472	0.969613	0.377942	-0.925806	-0.006639	0.897099	0.367977	-0.244555
29050	9.459940	-0.045042	-2.378902	0.002742	0.002116	0.000487	0.228869	0.086471	0.969609	0.377962	-0.925797	-0.006651	0.897086	0.367998	-0.244569
29051	9.434843	-0.047177	-2.412520	-0.001253	0.004128	-0.000520	0.228863	0.086473	0.969610	0.377948	-0.925803	-0.006643	0.897094	0.367983	-0.244564
29052	9.420881	-0.073689	-2.382350	0.001744	0.006013	-0.001716	0.228835	0.086479	0.969616	0.377964	-0.925796	-0.006631	0.897094	0.367998	-0.244540
29053	9.460220	-0.045019	-2.377789	-0.001843	0.001132	0.003032	0.228868	0.086457	0.969611	0.377935	-0.925808	-0.006657	0.897098	0.367974	-0.244563
29054	9.388607	-0.030120	-2.377976	0.000784	0.004850	-0.000108	0.228856	0.086452	0.969614	0.377939	-0.925806	-0.006658	0.897099	0.367979	-0.244550
29055	9.447912	-0.065876	-2.401552	-0.001880	0.006191	-0.000780	0.228830	0.086448	0.969620	0.377920	-0.925814	-0.006646	0.897114	0.367960	-0.244524
29056	9.428246	-0.040753	-2.388025	0.001410	0.002786	0.000152	0.228837	0.086449	0.969619	0.377929	-0.925811	-0.006651	0.897108	0.367969	-0.244532
29057	9.460594	-0.045102	-2.376296	0.001410	0.002786	0.000152	0.228845	0.086452	0.969617	0.377940	-0.925806	-0.006654	0.897102	0.367979	-0.244539
29058	9.401663	-0.048666	-2.367044	-0.000292	0.005290	-0.002128	0.228821	0.086464	0.969621	0.377938	-0.925807	-0.006633	0.897108	0.367975	-0.244522
29059	9.421382	-0.034144	-2.364558	0.001666	0.002556	-0.001532	0.228826	0.086481	0.969618	0.377946	-0.925804	-0.006621	0.897104	0.367978	-0.244533
29060	9.448347	-0.065700	-2.399846	0.001154	0.003017	0.001836	0.228838	0.086465	0.969617	0.377949	-0.925803	-0.006642	0.897100	0.367985	-0.244538
29061	9.428669	-0.040609	-2.386355	-0.000292	0.005290	-0.002128	0.228813	0.086479	0.969622	0.377959	-0.925799	-0.006621	0.897102	0.367992	-0.244521
29062	9.448546	-0.065694	-2.399061	0.001154	0.003017	0.001836	0.228825	0.086463	0.969620	0.377961	-0.925798	-0.006642	0.897098	0.367999	-0.244526
29063	9.428813	-0.040750	-2.385786	0.002037	0.000723	0.000412	0.228849	0.086469	0.969614	0.377977	-0.925791	-0.006650	0.897085	0.368013	-0.244550
29064	9.447073	-0.071492	-2.344321	-0.001368	0.005730	-0.004147	0.228815	0.086498	0.969620	0.377971	-0.925794	-0.006607	0.897096	0.367999	-0.244529
29065	9.407759	-0.060464	-2.332989	-0.000371	0.001833	-0.001944	0.228824	0.086520	0.969615	0.377965	-0.925797	-0.006588	0.897097	0.367988	-0.244546
29066	9.429048	-0.040247	-2.384866	-0.000178	0.003688	0.001500	0.228829	0.086504	0.969616	0.377956	-0.925800	-0.006602	0.897099	0.367983	-0.244545
29067	9.441805	-0.059061	-2.375096	0.000527	0.005081	0.001576	0.228821	0.086484	0.969619	0.377954	-0.925801	-0.006618	0.897102	0.367985	-0.244530
29068	9.409614	-0.054899	-2.386227	-0.000883	0.002295	0.001424	0.228838	0.086474	0.969616	0.377939	-0.925807	-0.006630	0.897104	0.367973	-0.244542
29069	9.461618	-0.044906	-2.372222	0.001489	0.006244	-0.000031	0.228813	0.086466	0.969623	0.377955	-0.925800	-0.006633	0.897103	0.367992	-0.244515
29070	9.422466	-0.073635	-2.376076	-0.000627	0.002064	-0.000260	0.228825	0.086472	0.969619	0.377947	-0.925804	-0.006629	0.897104	0.367981	-0.244529
29071	9.436620	-0.046985	-2.405565	-0.000627	0.002064	-0.000260	0.228837	0.086482	0.969616	0.377943	-0.925805	-0.006623	0.897102	0.367975	-0.244544
29072	9.429579	-0.040516	-2.382758	-0.000548	0.005521	-0.000443	0.228818	0.086478	0.969620	0.377935	-0.925808	-0.006618	0.897110	0.367968	-0.244525
29073	9.436844	-0.046882	-2.404686	-0.000548	0.005521	-0.000443	0.228796	0.086474	0.969626	0.377935	-0.925809	-0.006613	0.897116	0.367968	-0.244503
29074	9.410194	-0.054868	-2.383938	0.003447	0.003509	0.000566	0.228799	0.086468	0.969626	0.377961	-0.925798	-0.006627	0.897104	0.367997	-0.244503
29075	9.429885	-0.040549	-2.381548	-0.000627	0.002064	-0.000260	0.228813	0.086477	0.969622	0.377952	-0.925802	-0.006621	0.897105	0.367985	-0.244519
29076	9.422821	-0.034252	-2.358819	-0.000434	0.003919	0.003184	0.228822	0.086445	0.969622	0.377937	-0.925807	-0.006651	0.897109	0.367978	-0.244516
29077	9.449690	-0.026350	-2.378703	-0.000292	0.005291	-0.002127	0.228797	0.086459	0.969627	0.377942	-0.925805	-0.006629	0.897113	0.367980	-0.244498
29078	9.437290	-0.047014	-2.402933	-0.000627	0.002064	-0.000260	0.228809	0.086466	0.969624	0.377934	-0.925809	-0.006625	0.897113	0.367969	-0.244512
29079	9.410589	-0.055039	-2.382376	0.001154	0.003017	0.001837	0.228822	0.086450	0.969622	0.377941	-0.925806	-0.006647	0.897107	0.367981	-0.244517
29080	9.455440	-0.038580	-2.345938	-0.002585	0.004799	-0.000856	0.228808	0.086452	0.969625	0.377916	-0.925816	-0.006633	0.897121	0.367955	-0.244505
29081	9.417926	-0.061378	-2.404043	0.002372	0.003949	-0.001454	0.228801	0.086462	0.969626	0.377931	-0.925810	-0.006625	0.897117	0.367968	-0.244502
29082	9.455625	-0.038453	-2.345197	-0.002215	0.002965	0.001087	0.228810	0.086452	0.969625	0.377905	-0.925820	-0.006631	0.897125	0.367944	-0.244508
29083	9.410957	-0.054818	-2.380926	0.001297	0.004389	-0.003474	0.228791	0.086481	0.969627	0.377922	-0.925814	-0.006600	0.897123	0.367953	-0.244501
29084	9.443328	-0.058853	-2.369038	-0.000996	0.003897	-0.002203	0.228780	0.086499	0.969628	0.377914	-0.925817	-0.006576	0.897129	0.367941	-0.244497
29085	9.470160	-0.050880	-2.389088	0.000448	0.001624	0.001760	0.228802	0.086490	0.969623	0.377918	-0.925816	-0.006595	0.897122	0.367947	-0.244515
29086	9.418343	-0.061041	-2.402416	0.000784	0.004851	-0.000106	0.228791	0.086484	0.969626	0.377922	-0.925814	-0.006597	0.897123	0.367952	-0.244502
29087	9.430889	-0.040301	-2.377572	0.002037	0.000723	0.000413	0.228818	0.086492	0.969619	0.377934	-0.925809	-0.006604	0.897111	0.367964	-0.244530
29088	9.438100	-0.046771	-2.399754	0.000784	0.004851	-0.000106	0.228806	0.086487	0.969622	0.377938	-0.925807	-0.006605	0.897112	0.367969	-0.244517
29089	9.423933	-0.033904	-2.354376	-0.000548	0.005522	-0.000443	0.228788	0.086482	0.969627	0.377927	-0.925812	-0.006600	0.897122	0.367958	-0.244498
29090	9.477748	-0.057433	-2.409779	0.000079	0.003458	-0.000183	0.228789	0.086482	0.969627	0.377925	-0.925813	-0.006599	0.897122	0.367956	-0.244499
29091	9.436757	-0.052550	-2.344290	0.001410	0.002787	0.000154	0.228799	0.086482	0.969625	0.377928	-0.925812	-0.006604	0.897119	0.367959	-0.244508
29092	9.418882	-0.061017	-2.400303	-0.000291	0.005291	-0.002126	0.228775	0.086494	0.969629	0.377927	-0.925812	-0.006583	0.897125	0.367955	-0.244491
29093	9.424289	-0.033790	-2.352952	0.000448	0.001624	0.001760	0.228799	0.086485	0.969624	0.377923	-0.925813	-0.006600	0.897121	0.367954	-0.244509
29094	9.431488	-0.040248	-2.375197	0.001667	0.002556	-0.001530	0.228802	0.086501	0.969622	0.377938	-0.925807	-0.006590	0.897113	0.367965	-0.244519
29095	9.465478	-0.038774	-2.417678	0.001153	0.003018	0.001837	0.228812	0.086485	0.969621	0.377940	-0.925807	-0.006609	0.897110	0.367971	-0.244522
29096	9.424490	-0.034010	-2.352144	-0.001510	0.004359	0.001164	0.228810	0.086470	0.969623	0.377920	-0.925814	-0.006617	0.897119	0.367954	-0.244514
29097	9.438853	-0.046937	-2.396788	0.002037	0.000723	0.000414	0.228838	0.086476	0.969616	0.377931	-0.925810	-0.006626	0.897107	0.367964	-0.244543
29098	9.426277	-0.028320	-2.405896	0.000784	0.004851	-0.000106	0.228827	0.086471	0.969619	0.377935	-0.925808	-0.006628	0.897108	0.367970	-0.244530
29099	9.412258	-0.054861	-2.375778	0.001041	0.004620	-0.001789	0.228809	0.086483	0.969622	0.377944	-0.925805	-0.006612	0.897109	0.367976	-0.244518
29100	9.444594	-0.059099	-2.363979	0.000705	0.001393	0.000077	0.228829	0.086489	0.969617	0.377947	-0.925804	-0.006615	0.897103	0.367978	-0.244539
29101	9.432032	-0.040342	-2.373036	-0.000291	0.005291	-0.002126	0.228806	0.086503	0.969621	0.377950	-0.925803	-0.006593	0.897107	0.367977	-0.244523
29102	9.451928	-0.065427	-2.385711	0.001153	0.003018	0.001838	0.228819	0.086487	0.969620	0.377952	-0.925801	-0.006614	0.897103	0.367984	-0.244528
29103	9.412552	-0.054850	-2.374612	0.002037	0.000723	0.000414	0.228845	0.086492	0.969613	0.377968	-0.925795	-0.006623	0.897090	0.367998	-0.244554
29104	9.439419	-0.046859	-2.394557	0.000414	0.006685	-0.002049	0.228809	0.086499	0.969621	0.377973	-0.925793	-0.006605	0.897097	0.368002	-0.244524
29105	9.434059	-0.034520	-2.425894	0.000079	0.003458	-0.000183	0.228809	0.086501	0.969621	0.377971	-0.925794	-0.006602	0.897098	0.367999	-0.244524
29106	9.439786	-0.086188	-2.409028	-0.000626	0.002064	-0.000260	0.228821	0.086507	0.969617	0.377962	-0.925797	-0.006598	0.897098	0.367989	-0.244539
29107	9.427036	-0.028117	-2.402923	-0.000179	0.003689	0.001501	0.228827	0.086491	0.969617	0.377948	-0.925803	-0.006611	0.897103	0.367978	-0.244538
29108	9.452377	-0.065526	-2.383930	0.000705	0.001394	0.000077	0.228847	0.086497	0.969612	0.377951	-0.925802	-0.006614	0.897097	0.367979	-0.244559
29109	9.432656	-0.040346	-2.370552	-0.000290	0.005291	-0.002126	0.228824	0.086509	0.969616	0.377941	-0.925806	-0.006592	0.897107	0.367966	-0.244542
29110	9.420313	-0.060886	-2.394683	0.001298	0.004390	-0.003472	0.228804	0.086536	0.969619	0.377957	-0.925800	-0.006562	0.897105	0.367976	-0.244534
29111	9.432898	-0.039887	-2.369597	-0.001879	0.006193	-0.000779	0.228778	0.086534	0.969625	0.377939	-0.925807	-0.006549	0.897119	0.367958	-0.244509
29112	9.459961	-0.071504	-2.404714	0.000190	0.001855	0.003444	0.228807	0.086507	0.969621	0.377930	-0.925811	-0.006583	0.897116	0.367955	-0.244525
29113	9.434754	-0.034301	-2.423190	-0.001253	0.004128	-0.000519	0.228802	0.086507	0.969622	0.377910	-0.925819	-0.006576	0.897125	0.367934	-0.244521
29114	9.413516	-0.054427	-2.370796	-0.000626	0.002064	-0.000260	0.228815	0.086514	0.969618	0.377901	-0.925823	-0.006572	0.897126	0.367924	-0.244536
29115	9.440360	-0.046487	-2.390852	0.001410	0.002787	0.000155	0.228825	0.086511	0.969616	0.377902	-0.925822	-0.006579	0.897123	0.367925	-0.244544
29116	9.440460	-0.046559	-2.390456	0.002820	0.005574	0.000310	0.228808	0.086500	0.969621	0.377923	-0.925813	-0.006589	0.897118	0.367950	-0.244524
29117	9.427947	-0.027872	-2.399348	-0.002584	0.004799	-0.000856	0.228796	0.086503	0.969623	0.377887	-0.925828	-0.006572	0.897136	0.367912	-0.244514
29118	9.428243	-0.067294	-2.414127	-0.001510	0.004359	0.001164	0.228794	0.086488	0.969625	0.377867	-0.925836	-0.006580	0.897145	0.367895	-0.244507
29119	9.446221	-0.058823	-2.357477	0.002036	0.000723	0.000415	0.228822	0.086494	0.969618	0.377878	-0.925832	-0.006588	0.897133	0.367905	-0.244535
29120	9.460446	-0.032154	-2.386854	-0.000290	0.005291	-0.002125	0.228799	0.086506	0.969623	0.377877	-0.925832	-0.006567	0.897140	0.367901	-0.244518
29121	9.440950	-0.046500	-2.388521	0.000526	0.005082	0.001579	0.228793	0.086482	0.969626	0.377862	-0.925838	-0.006584	0.897148	0.367891	-0.244504
29122	9.421432	-0.060941	-2.390276	0.000079	0.003458	-0.000182	0.228794	0.086483	0.969626	0.377860	-0.925839	-0.006582	0.897148	0.367889	-0.244505
29123	9.473384	-0.050886	-2.376272	-0.002215	0.002966	0.001087	0.228803	0.086475	0.969624	0.377840	-0.925848	-0.006588	0.897155	0.367870	-0.244510
29124	9.394594	-0.029495	-2.354218	0.001410	0.002787	0.000155	0.228810	0.086475	0.969623	0.377849	-0.925844	-0.006593	0.897149	0.367879	-0.244517
29125	9.461074	-0.071776	-2.400322	-0.002215	0.002966	0.001087	0.228822	0.086465	0.969621	0.377816	-0.925857	-0.006599	0.897160	0.367848	-0.244525
29126	9.453932	-0.065301	-2.377759	0.000258	-0.000231	-0.001684	0.228850	0.086493	0.969611	0.377819	-0.925856	-0.006584	0.897151	0.367844	-0.244561
29127	9.421711	-0.061028	-2.389173	0.001152	0.003018	0.001839	0.228865	0.086474	0.969610	0.377811	-0.925859	-0.006606	0.897151	0.367841	-0.244567
29128	9.448425	-0.013594	-2.393811	-0.001621	0.005962	-0.002462	0.228834	0.086486	0.969616	0.377799	-0.925864	-0.006578	0.897164	0.367825	-0.244544
29129	9.441546	-0.046591	-2.386164	0.001152	0.003018	0.001839	0.228846	0.086472	0.969614	0.377804	-0.925862	-0.006599	0.897158	0.367835	-0.244549
29130	9.421803	-0.021552	-2.372845	-0.001958	0.002735	-0.000597	0.228852	0.086479	0.969612	0.377785	-0.925870	-0.006589	0.897165	0.367813	-0.244557
29131	9.429222	-0.067391	-2.410295	0.000705	0.001394	0.000078	0.228874	0.086484	0.969607	0.377782	-0.925871	-0.006592	0.897161	0.367808	-0.244580
29132	9.461531	-0.071616	-2.398526	0.000337	0.003227	-0.001865	0.228870	0.086501	0.969606	0.377786	-0.925870	-0.006575	0.897160	0.367808	-0.244583
29133	9.409514	-0.042117	-2.396848	-0.001331	0.000671	-0.000337	0.228895	0.086513	0.969599	0.377767	-0.925878	-0.006569	0.897162	0.367786	-0.244611
29134	9.454432	-0.065025	-2.375780	-0.000626	0.002064	-0.000260	0.228908	0.086519	0.969596	0.377758	-0.925881	-0.006565	0.897162	0.367775	-0.244625
29135	9.429265	-0.027954	-2.394161	0.002046	0.006267	0.005362	0.228903	0.086459	0.969602	0.377766	-0.925877	-0.006622	0.897160	0.367799	-0.244597
29136	9.442034	-0.046792	-2.384227	-0.000289	0.005292	-0.002125	0.228879	0.086471	0.969607	0.377765	-0.925878	-0.006601	0.897167	0.367794	-0.244580
29137	9.442114	-0.046701	-2.383912	0.000705	0.001394	0.000078	0.228902	0.086478	0.969601	0.377758	-0.925881	-0.006602	0.897164	0.367785	-0.244603
29138	9.429533	-0.028073	-2.393103	0.001410	0.002787	0.000156	0.228910	0.086478	0.969599	0.377766	-0.925877	-0.006607	0.897158	0.367794	-0.244611
29139	9.442244	-0.046645	-2.383398	-0.000994	0.003898	-0.002203	0.228899	0.086499	0.969599	0.377757	-0.925882	-0.006580	0.897165	0.367779	-0.244609
29140	9.442337	-0.046675	-2.383029	-0.000438	0.003920	0.003185	0.228908	0.086467	0.969600	0.377742	-0.925887	-0.006611	0.897169	0.367772	-0.244606
29141	9.422823	-0.060931	-2.384786	0.000227	0.004830	-0.005491	0.228874	0.086513	0.969604	0.377759	-0.925881	-0.006557	0.897171	0.367777	-0.244591
29142	9.449739	-0.052767	-2.404613	-0.001511	0.004360	0.001165	0.228871	0.086498	0.969606	0.377739	-0.925889	-0.006565	0.897179	0.367761	-0.244583
29143	9.442651	-0.046265	-2.381793	-0.000994	0.003898	-0.002202	0.228859	0.086518	0.969607	0.377730	-0.925893	-0.006539	0.897187	0.367746	-0.244579
29144	9.442933	-0.085705	-2.396678	0.001152	0.003018	0.001840	0.228871	0.086501	0.969606	0.377733	-0.925891	-0.006561	0.897182	0.367753	-0.244584
29145	9.430173	-0.027711	-2.390585	0.001410	0.002788	0.000156	0.228877	0.086504	0.969604	0.377753	-0.925883	-0.006566	0.897172	0.367774	-0.244591
29146	9.423283	-0.060740	-2.382974	-0.000547	0.005523	-0.000441	0.228858	0.086500	0.969609	0.377746	-0.925886	-0.006561	0.897180	0.367767	-0.244571
29147	9.435801	-0.039901	-2.358012	-0.000626	0.002065	-0.000259	0.228870	0.086508	0.969606	0.377739	-0.925889	-0.006555	0.897180	0.367758	-0.244586
29148	9.437643	-0.034221	-2.411916	0.000267	0.005314	0.003264	0.228867	0.086470	0.969610	0.377731	-0.925892	-0.006588	0.897184	0.367759	-0.244569
29149	9.443205	-0.046515	-2.379593	-0.000289	0.005292	-0.002124	0.228842	0.086484	0.969614	0.377730	-0.925893	-0.006565	0.897191	0.367755	-0.244551
29150	9.437871	-0.034272	-2.411024	0.001152	0.003018	0.001840	0.228855	0.086468	0.969613	0.377733	-0.925891	-0.006586	0.897187	0.367762	-0.244556
29151	9.411108	-0.042177	-2.390579	-0.002404	0.001111	-0.002359	0.228866	0.086498	0.969607	0.377715	-0.925899	-0.006557	0.897191	0.367736	-0.244578
29152	9.463020	-0.032065	-2.376632	0.001152	0.003018	0.001840	0.228878	0.086481	0.969606	0.377718	-0.925897	-0.006579	0.897187	0.367743	-0.244583
29153	9.443487	-0.046495	-2.378473	-0.001252	0.004129	-0.000519	0.228872	0.086481	0.969608	0.377705	-0.925903	-0.006572	0.897194	0.367730	-0.244577
29154	9.450759	-0.052935	-2.400598	-0.000885	0.002295	0.001424	0.228889	0.086471	0.969604	0.377690	-0.925909	-0.006585	0.897196	0.367717	-0.244589
29155	9.418612	-0.048744	-2.411795	-0.000806	0.005754	0.001243	0.228877	0.086449	0.969609	0.377670	-0.925917	-0.006596	0.897207	0.367702	-0.244570
29156	9.443773	-0.046551	-2.377335	-0.000993	0.003898	-0.002202	0.228866	0.086466	0.969610	0.377663	-0.925920	-0.006573	0.897213	0.367690	-0.244567
29157	9.450832	-0.013492	-2.384289	0.000446	0.001625	0.001762	0.228889	0.086458	0.969605	0.377666	-0.925919	-0.006590	0.897206	0.367695	-0.244585
29158	9.411879	-0.081775	-2.403561	0.000784	0.004852	-0.000102	0.228877	0.086453	0.969609	0.377670	-0.925917	-0.006592	0.897207	0.367700	-0.244572
29159	9.451236	-0.053202	-2.398715	0.000267	0.005314	0.003265	0.228875	0.086416	0.969613	0.377661	-0.925920	-0.006624	0.897211	0.367701	-0.244556
29160	9.431714	-0.067674	-2.400520	-0.001957	0.002735	-0.000597	0.228880	0.086423	0.969611	0.377641	-0.925928	-0.006614	0.897218	0.367679	-0.244564
29161	9.444218	-0.046761	-2.375561	0.001043	0.004621	-0.001786	0.228861	0.086436	0.969614	0.377660	-0.925921	-0.006599	0.897215	0.367695	-0.244551
29162	9.431695	-0.028093	-2.384568	-0.000180	0.003689	0.001503	0.228866	0.086421	0.969614	0.377651	-0.925924	-0.006614	0.897218	0.367690	-0.244550
29163	9.405166	-0.075553	-2.379205	0.000079	0.003458	-0.000181	0.228868	0.086422	0.969614	0.377644	-0.925927	-0.006611	0.897220	0.367682	-0.244552
29164	9.464115	-0.032372	-2.372262	0.001043	0.004622	-0.001785	0.228852	0.086433	0.969616	0.377654	-0.925923	-0.006597	0.897220	0.367690	-0.244541
29165	9.432177	-0.067483	-2.398705	-0.002216	0.002966	0.001086	0.228864	0.086424	0.969614	0.377623	-0.925936	-0.006602	0.897230	0.367660	-0.244549
29166	9.430451	-0.073275	-2.344194	0.001669	0.002557	-0.001526	0.228868	0.086441	0.969612	0.377638	-0.925930	-0.006591	0.897223	0.367671	-0.244559
29167	9.444758	-0.046554	-2.373417	-0.001878	0.006194	-0.000778	0.228845	0.086435	0.969618	0.377613	-0.925940	-0.006581	0.897239	0.367646	-0.244536
29168	9.405634	-0.075331	-2.377365	0.001151	0.003019	0.001841	0.228857	0.086419	0.969617	0.377616	-0.925939	-0.006602	0.897235	0.367653	-0.244541
29169	9.446723	-0.040781	-2.427004	-0.000367	0.001834	-0.001943	0.228866	0.086444	0.969612	0.377615	-0.925940	-0.006581	0.897233	0.367646	-0.244558
29170	9.425396	-0.060845	-2.374598	-0.000547	0.005523	-0.000440	0.228847	0.086439	0.969617	0.377607	-0.925943	-0.006576	0.897241	0.367639	-0.244539
29171	9.445120	-0.046442	-2.371982	0.000079	0.003459	-0.000180	0.228847	0.086439	0.969617	0.377601	-0.925945	-0.006575	0.897244	0.367633	-0.244539
29172	9.452386	-0.052793	-2.394186	0.000964	0.001163	-0.001605	0.228863	0.086461	0.969611	0.377610	-0.925942	-0.006563	0.897236	0.367636	-0.244562
29173	9.439856	-0.034081	-2.403241	0.001489	0.006246	-0.000023	0.228838	0.086451	0.969618	0.377619	-0.925938	-0.006565	0.897238	0.367649	-0.244535
29174	9.440006	-0.034038	-2.402653	-0.001878	0.006194	-0.000777	0.228812	0.086447	0.969625	0.377601	-0.925945	-0.006554	0.897253	0.367631	-0.244510
29175	9.425899	-0.060537	-2.372608	0.001669	0.002557	-0.001526	0.228814	0.086465	0.969623	0.377619	-0.925938	-0.006542	0.897245	0.367645	-0.244518
29176	9.440209	-0.033848	-2.401859	-0.000547	0.005523	-0.000439	0.228795	0.086460	0.969628	0.377612	-0.925941	-0.006537	0.897253	0.367638	-0.244499
29177	9.465528	-0.071161	-2.382718	0.000705	0.001394	0.000079	0.228817	0.086464	0.969622	0.377607	-0.925943	-0.006541	0.897249	0.367632	-0.244521
29178	9.420718	-0.048194	-2.403567	-0.000626	0.002065	-0.000259	0.228829	0.086470	0.969618	0.377598	-0.925946	-0.006537	0.897250	0.367622	-0.244535
29179	9.440414	-0.033734	-2.401053	0.001043	0.004622	-0.001784	0.228815	0.086480	0.969621	0.377601	-0.925945	-0.006523	0.897252	0.367622	-0.244525
29180	9.426293	-0.060188	-2.371052	0.000338	0.003228	-0.001863	0.228811	0.086497	0.969620	0.377605	-0.925944	-0.006506	0.897251	0.367622	-0.244528
29181	9.460404	-0.058669	-2.413465	0.000446	0.001625	0.001762	0.228835	0.086487	0.969616	0.377600	-0.925946	-0.006524	0.897247	0.367620	-0.244546
29182	9.413826	-0.041559	-2.379865	-0.001878	0.006194	-0.000777	0.228809	0.086483	0.969622	0.377582	-0.925953	-0.006513	0.897262	0.367602	-0.244521
29183	9.446156	-0.045775	-2.367865	-0.000626	0.002065	-0.000259	0.228822	0.086490	0.969619	0.377573	-0.925957	-0.006509	0.897262	0.367591	-0.244535
29184	9.453441	-0.052093	-2.390035	0.000339	0.003228	-0.001863	0.228818	0.086507	0.969618	0.377577	-0.925955	-0.006492	0.897261	0.367591	-0.244538
29185	9.428524	-0.054250	-2.423706	0.001855	0.004413	0.001921	0.228822	0.086483	0.969619	0.377576	-0.925956	-0.006516	0.897261	0.367596	-0.244532
29186	9.407172	-0.074467	-2.371299	0.000339	0.003228	-0.001863	0.228818	0.086500	0.969619	0.377580	-0.925954	-0.006500	0.897260	0.367596	-0.244535
29187	9.441098	-0.033441	-2.398365	-0.001512	0.004361	0.001165	0.228817	0.086485	0.969620	0.377560	-0.925962	-0.006508	0.897269	0.367579	-0.244529
29188	9.434216	-0.066483	-2.390699	0.003080	0.005345	-0.001366	0.228796	0.086489	0.969625	0.377587	-0.925951	-0.006503	0.897263	0.367606	-0.244511
29189	9.441321	-0.033415	-2.397491	0.000079	0.003459	-0.000180	0.228798	0.086490	0.969624	0.377581	-0.925954	-0.006502	0.897265	0.367600	-0.244513
29190	9.436033	-0.021356	-2.428932	-0.002031	0.004822	0.004532	0.228804	0.086442	0.969627	0.377549	-0.925966	-0.006541	0.897277	0.367579	-0.244501
29191	9.454114	-0.052430	-2.387362	-0.000626	0.002065	-0.000259	0.228815	0.086448	0.969624	0.377544	-0.925968	-0.006538	0.897276	0.367572	-0.244513
29192	9.414722	-0.041610	-2.376316	0.000339	0.003228	-0.001863	0.228811	0.086465	0.969623	0.377548	-0.925967	-0.006521	0.897275	0.367572	-0.244516
29193	9.447027	-0.045736	-2.364389	0.000339	0.003228	-0.001863	0.228809	0.086482	0.969622	0.377546	-0.925968	-0.006504	0.897277	0.367565	-0.244520
29194	9.422102	-0.047806	-2.398145	0.001410	0.002788	0.000159	0.228817	0.086482	0.969620	0.377555	-0.925964	-0.006510	0.897271	0.367574	-0.244528
29195	9.436419	-0.021257	-2.427431	-0.001512	0.004361	0.001165	0.228812	0.086468	0.969623	0.377538	-0.925971	-0.006516	0.897279	0.367560	-0.244518
29196	9.454509	-0.052266	-2.385803	-0.000181	0.003690	0.001504	0.228816	0.086452	0.969623	0.377529	-0.925975	-0.006531	0.897282	0.367556	-0.244516
29197	9.415158	-0.041515	-2.374590	-0.000287	0.005293	-0.002122	0.228793	0.086465	0.969627	0.377523	-0.925977	-0.006508	0.897290	0.367546	-0.244500
29198	9.454688	-0.052172	-2.385094	0.002036	0.000723	0.000418	0.228821	0.086470	0.969621	0.377537	-0.925971	-0.006517	0.897277	0.367559	-0.244527
29199	9.435142	-0.066590	-2.387042	0.000784	0.004853	-0.000100	0.228811	0.086466	0.969623	0.377529	-0.925975	-0.006515	0.897283	0.367552	-0.244516
29200	9.422644	-0.047860	-2.396012	0.001044	0.004622	-0.001783	0.228795	0.086478	0.969626	0.377539	-0.925971	-0.006501	0.897283	0.367559	-0.244506
29201	9.442346	-0.033443	-2.393449	0.001410	0.002788	0.000159	0.228804	0.086478	0.969624	0.377543	-0.925969	-0.006505	0.897279	0.367563	-0.244515
29202	9.455046	-0.052058	-2.383679	0.001044	0.004622	-0.001783	0.228788	0.086490	0.969627	0.377553	-0.925965	-0.006490	0.897279	0.367570	-0.244504
29203	9.415679	-0.041187	-2.372529	0.000339	0.003228	-0.001863	0.228785	0.086508	0.969626	0.377552	-0.925966	-0.006471	0.897280	0.367565	-0.244509
29204	9.435646	-0.066283	-2.385057	-0.002398	0.006657	0.002590	0.228767	0.086472	0.969633	0.377522	-0.925978	-0.006491	0.897298	0.367542	-0.244479
29205	9.442752	-0.033400	-2.391847	0.002741	0.002117	0.000498	0.228782	0.086474	0.969629	0.377544	-0.925969	-0.006500	0.897284	0.367565	-0.244493
29206	9.443046	-0.072860	-2.406834	0.001670	0.002557	-0.001524	0.228785	0.086490	0.969627	0.377559	-0.925963	-0.006490	0.897277	0.367576	-0.244502
29207	9.430516	-0.054031	-2.415951	-0.000991	0.003899	-0.002201	0.228773	0.086509	0.969628	0.377554	-0.925965	-0.006467	0.897282	0.367567	-0.244498
29208	9.423365	-0.047560	-2.393181	-0.000181	0.003690	0.001504	0.228778	0.086493	0.969629	0.377546	-0.925968	-0.006481	0.897285	0.367562	-0.244497
29209	9.418091	-0.035351	-2.424657	0.002375	0.003952	-0.001444	0.228769	0.086503	0.969630	0.377566	-0.925960	-0.006473	0.897279	0.367580	-0.244491
29210	9.423523	-0.047638	-2.392557	0.000445	0.001625	0.001763	0.228793	0.086493	0.969625	0.377562	-0.925961	-0.006492	0.897274	0.367579	-0.244510
29211	9.455795	-0.052042	-2.380704	0.001410	0.002788	0.000160	0.228801	0.086490	0.969623	0.377568	-0.925959	-0.006499	0.897269	0.367586	-0.244516
29212	9.436027	-0.027017	-2.367380	-0.001512	0.004361	0.001165	0.228798	0.086475	0.969625	0.377549	-0.925967	-0.006507	0.897278	0.367569	-0.244508
29213	9.423754	-0.047841	-2.391644	0.000079	0.003459	-0.000179	0.228800	0.086476	0.969625	0.377543	-0.925969	-0.006505	0.897280	0.367563	-0.244510
29214	9.450684	-0.039836	-2.411549	0.001670	0.002557	-0.001524	0.228803	0.086492	0.969623	0.377558	-0.925963	-0.006495	0.897273	0.367575	-0.244519
29215	9.436306	-0.026996	-2.366269	-0.000102	0.007149	0.001325	0.228776	0.086468	0.969631	0.377555	-0.925964	-0.006507	0.897281	0.367578	-0.244485
29216	9.456286	-0.052136	-2.378751	0.000079	0.003459	-0.000179	0.228777	0.086468	0.969631	0.377553	-0.925965	-0.006506	0.897282	0.367575	-0.244486
29217	9.404566	-0.062181	-2.392203	-0.000547	0.005524	-0.000438	0.228758	0.086466	0.969636	0.377546	-0.925968	-0.006500	0.897290	0.367569	-0.244467
29218	9.456483	-0.052055	-2.377968	-0.000626	0.002065	-0.000259	0.228771	0.086472	0.969632	0.377538	-0.925971	-0.006496	0.897290	0.367559	-0.244482
29219	9.424334	-0.047736	-2.389361	0.000079	0.003459	-0.000179	0.228771	0.086474	0.969632	0.377536	-0.925972	-0.006494	0.897291	0.367557	-0.244482
29220	9.404804	-0.062092	-2.391269	0.003706	0.003281	-0.001104	0.228769	0.086484	0.969631	0.377568	-0.925959	-0.006493	0.897277	0.367587	-0.244485
29221	9.456704	-0.052029	-2.377091	-0.002217	0.002967	0.001085	0.228779	0.086475	0.969630	0.377544	-0.925969	-0.006499	0.897285	0.367565	-0.244491
29222	9.419282	-0.035491	-2.420025	-0.000467	0.008984	-0.000617	0.228729	0.086459	0.969643	0.377538	-0.925971	-0.006492	0.897300	0.367562	-0.244438
29223	9.444353	-0.033214	-2.385521	0.002557	0.000261	-0.002947	0.228745	0.086499	0.969636	0.377571	-0.925958	-0.006469	0.897283	0.367586	-0.244468
29224	9.437400	-0.066174	-2.378107	0.002115	0.004183	0.000240	0.228741	0.086493	0.969637	0.377586	-0.925952	-0.006477	0.897277	0.367603	-0.244462
29225	9.444478	-0.033082	-2.385026	-0.000365	0.001834	-0.001942	0.228751	0.086514	0.969633	0.377573	-0.925957	-0.006458	0.897280	0.367584	-0.244479
29226	9.464421	-0.058077	-2.397677	-0.002843	0.005032	0.000826	0.228741	0.086499	0.969637	0.377542	-0.925970	-0.006460	0.897296	0.367556	-0.244464
29227	9.398193	-0.055351	-2.366322	0.002115	0.004183	0.000241	0.228736	0.086494	0.969638	0.377556	-0.925964	-0.006467	0.897291	0.367572	-0.244458
29228	9.444745	-0.033050	-2.383972	-0.000626	0.002065	-0.000259	0.228749	0.086500	0.969635	0.377548	-0.925967	-0.006464	0.897291	0.367562	-0.244472
29229	9.445086	-0.072384	-2.398829	-0.000286	0.005294	-0.002121	0.228726	0.086514	0.969639	0.377553	-0.925966	-0.006443	0.897295	0.367564	-0.244455
29230	9.452214	-0.039438	-2.405553	-0.002035	0.004823	0.004532	0.228732	0.086466	0.969642	0.377521	-0.925978	-0.006482	0.897307	0.367543	-0.244443
29231	9.450359	-0.045298	-2.351042	0.004854	0.000754	-0.004210	0.228741	0.086514	0.969635	0.377567	-0.925960	-0.006453	0.897285	0.367579	-0.244470
29232	9.432734	-0.053755	-2.407281	-0.001513	0.004361	0.001165	0.228739	0.086499	0.969637	0.377548	-0.925968	-0.006461	0.897294	0.367562	-0.244462
29233	9.439844	-0.020796	-2.414079	0.002115	0.004183	0.000241	0.228734	0.086494	0.969639	0.377563	-0.925961	-0.006468	0.897288	0.367579	-0.244456
29234	9.438249	-0.066080	-2.374741	-0.000626	0.002065	-0.000259	0.228747	0.086501	0.969635	0.377555	-0.925965	-0.006464	0.897289	0.367569	-0.244470
29235	9.452606	-0.039535	-2.404009	0.000523	0.005085	0.001585	0.228739	0.086479	0.969639	0.377549	-0.925967	-0.006480	0.897293	0.367569	-0.244455
29236	9.425845	-0.047599	-2.383396	-0.001513	0.004361	0.001165	0.228737	0.086464	0.969641	0.377530	-0.925975	-0.006488	0.897302	0.367552	-0.244447
29237	9.425944	-0.047596	-2.383004	0.002376	0.003952	-0.001442	0.228726	0.086478	0.969642	0.377556	-0.925964	-0.006478	0.897294	0.367576	-0.244442
29238	9.418990	-0.080633	-2.375581	0.002036	0.000724	0.000420	0.228753	0.086483	0.969635	0.377570	-0.925958	-0.006487	0.897281	0.367589	-0.244470
29239	9.445670	-0.033125	-2.380302	0.001307	0.004392	-0.003464	0.228736	0.086510	0.969637	0.377580	-0.925955	-0.006457	0.897281	0.367592	-0.244463
29240	9.426161	-0.047494	-2.382148	-0.000443	0.003922	0.003188	0.228745	0.086478	0.969638	0.377565	-0.925960	-0.006487	0.897285	0.367585	-0.244460
29241	9.446115	-0.072719	-2.394763	0.000079	0.003460	-0.000178	0.228747	0.086478	0.969637	0.377559	-0.925963	-0.006487	0.897287	0.367579	-0.244462
29242	9.394124	-0.043328	-2.393156	0.000079	0.003460	-0.000178	0.228748	0.086479	0.969637	0.377556	-0.925964	-0.006486	0.897288	0.367576	-0.244463
29243	9.453284	-0.039689	-2.401341	0.001410	0.002789	0.000161	0.228757	0.086476	0.969635	0.377555	-0.925965	-0.006491	0.897286	0.367575	-0.244471
29244	9.426487	-0.047619	-2.380853	-0.001251	0.004131	-0.000518	0.228750	0.086478	0.969636	0.377541	-0.925970	-0.006484	0.897294	0.367561	-0.244465
29245	9.453436	-0.039723	-2.400742	0.000443	0.001625	0.001764	0.228776	0.086466	0.969632	0.377533	-0.925973	-0.006503	0.897291	0.367556	-0.244484
29246	9.433921	-0.054124	-2.402616	-0.001877	0.006196	-0.000777	0.228749	0.086462	0.969638	0.377515	-0.925981	-0.006491	0.897305	0.367538	-0.244458
29247	9.426753	-0.047587	-2.379801	0.001671	0.002558	-0.001522	0.228752	0.086480	0.969636	0.377530	-0.925975	-0.006480	0.897298	0.367549	-0.244468
29248	9.446715	-0.072703	-2.392398	0.000523	0.005085	0.001586	0.228745	0.086458	0.969639	0.377528	-0.925976	-0.006497	0.897301	0.367552	-0.244453
29249	9.439527	-0.066489	-2.369645	0.002479	0.002349	0.002184	0.228767	0.086442	0.969636	0.377534	-0.925973	-0.006522	0.897292	0.367563	-0.244467
29250	9.419732	-0.041495	-2.356383	-0.001251	0.004131	-0.000518	0.228760	0.086443	0.969637	0.377521	-0.925978	-0.006515	0.897300	0.367549	-0.244461
29251	9.421790	-0.035687	-2.410238	0.002115	0.004183	0.000242	0.228756	0.086437	0.969639	0.377532	-0.925974	-0.006522	0.897296	0.367562	-0.244454
29252	9.466705	-0.058722	-2.388629	-0.000808	0.005756	0.001246	0.228741	0.086416	0.969644	0.377518	-0.925979	-0.006533	0.897306	0.367553	-0.244433
29253	9.427352	-0.047799	-2.377424	0.000239	0.004832	-0.005486	0.228709	0.086460	0.969648	0.377528	-0.925975	-0.006481	0.897310	0.367551	-0.244420
29254	9.440007	-0.066279	-2.367738	-0.000262	0.000231	0.001683	0.228745	0.086455	0.969640	0.377518	-0.925979	-0.006497	0.897304	0.367543	-0.244452
29255	9.400563	-0.055740	-2.356882	0.001148	0.003020	0.001845	0.228754	0.086442	0.969639	0.377536	-0.925972	-0.006518	0.897295	0.367565	-0.244454
29256	9.454406	-0.039901	-2.396917	0.001672	0.002558	-0.001521	0.228757	0.086458	0.969637	0.377551	-0.925966	-0.006508	0.897288	0.367576	-0.244464
29257	9.454461	-0.039830	-2.396699	-0.000626	0.002065	-0.000259	0.228767	0.086467	0.969633	0.377551	-0.925966	-0.006504	0.897285	0.367574	-0.244476
29258	9.427655	-0.047758	-2.376224	0.000784	0.004854	-0.000097	0.228756	0.086461	0.969637	0.377555	-0.925964	-0.006505	0.897286	0.367579	-0.244464
29259	9.467203	-0.058447	-2.386661	-0.001331	0.000671	-0.000340	0.228779	0.086476	0.969630	0.377542	-0.925970	-0.006497	0.897286	0.367562	-0.244491
29260	9.447366	-0.033276	-2.373560	0.001672	0.002558	-0.001521	0.228783	0.086492	0.969627	0.377557	-0.925964	-0.006487	0.897279	0.367574	-0.244501
29261	9.435132	-0.053952	-2.397862	-0.002582	0.004802	-0.000857	0.228769	0.086495	0.969630	0.377527	-0.925976	-0.006471	0.897295	0.367542	-0.244489
29262	9.427956	-0.047491	-2.375034	-0.001513	0.004362	0.001166	0.228767	0.086480	0.969632	0.377508	-0.925984	-0.006479	0.897304	0.367526	-0.244481
29263	9.454925	-0.039563	-2.394874	-0.000626	0.002065	-0.000259	0.228780	0.086487	0.969629	0.377494	-0.925989	-0.006473	0.897306	0.367510	-0.244496
29264	9.415797	-0.068368	-2.399046	0.000522	0.005086	0.001586	0.228772	0.086466	0.969632	0.377492	-0.925990	-0.006491	0.897309	0.367513	-0.244481
29265	9.462409	-0.046170	-2.416494	0.002115	0.004184	0.000243	0.228771	0.086458	0.969633	0.377497	-0.925988	-0.006498	0.897307	0.367520	-0.244477
29266	9.435581	-0.054163	-2.396089	0.000705	0.001395	0.000081	0.228791	0.086464	0.969628	0.377500	-0.925987	-0.006501	0.897301	0.367522	-0.244497
29267	9.447981	-0.033349	-2.371110	-0.000546	0.005525	-0.000436	0.228775	0.086459	0.969632	0.377483	-0.925994	-0.006496	0.897312	0.367506	-0.244481
29268	9.415859	-0.029078	-2.382525	0.002035	0.000724	0.000421	0.228802	0.086464	0.969626	0.377497	-0.925988	-0.006505	0.897299	0.367519	-0.244508
29269	9.443130	-0.060591	-2.417471	-0.001172	0.007591	-0.000695	0.228765	0.086453	0.969635	0.377478	-0.925996	-0.006496	0.897317	0.367502	-0.244469
29270	9.416084	-0.029129	-2.381634	0.001148	0.003020	0.001845	0.228777	0.086437	0.969634	0.377481	-0.925995	-0.006517	0.897312	0.367509	-0.244474
29271	9.455616	-0.039991	-2.392138	0.002035	0.000724	0.000421	0.228805	0.086442	0.969627	0.377489	-0.925991	-0.006525	0.897302	0.367517	-0.244502
29272	9.428783	-0.047982	-2.371738	0.000784	0.004855	-0.000096	0.228793	0.086437	0.969630	0.377493	-0.925989	-0.006526	0.897303	0.367522	-0.244489
29273	9.436192	-0.054421	-2.393674	0.000784	0.004855	-0.000096	0.228780	0.086435	0.969633	0.377499	-0.925987	-0.006525	0.897304	0.367528	-0.244477
29274	9.436286	-0.054527	-2.393302	0.001148	0.003020	0.001846	0.228792	0.086418	0.969632	0.377502	-0.925986	-0.006546	0.897300	0.367535	-0.244482
29275	9.455977	-0.040217	-2.390703	-0.001251	0.004131	-0.000517	0.228786	0.086418	0.969633	0.377486	-0.925992	-0.006540	0.897308	0.367519	-0.244476
29276	9.436188	-0.015158	-2.377398	-0.000183	0.003691	0.001506	0.228791	0.086402	0.969634	0.377477	-0.925996	-0.006554	0.897310	0.367514	-0.244474
29277	9.429236	-0.048313	-2.369928	0.002740	0.002118	0.000503	0.228804	0.086403	0.969630	0.377505	-0.925984	-0.006567	0.897295	0.367543	-0.244487
29278	9.441916	-0.066818	-2.360098	-0.001351	0.005734	-0.004142	0.228769	0.086432	0.969636	0.377499	-0.925987	-0.006524	0.897306	0.367529	-0.244465
29279	9.411854	-0.056402	-2.425614	-0.000988	0.003900	-0.002200	0.228756	0.086452	0.969637	0.377499	-0.925987	-0.006499	0.897310	0.367524	-0.244460
29280	9.443848	-0.021215	-2.398365	0.001147	0.003020	0.001846	0.228768	0.086436	0.969636	0.377502	-0.925986	-0.006520	0.897306	0.367531	-0.244465
29281	9.442197	-0.066537	-2.358980	-0.001251	0.004131	-0.000517	0.228763	0.086437	0.969637	0.377480	-0.925995	-0.006511	0.897316	0.367508	-0.244462
29282	9.417391	-0.068664	-2.392773	0.001410	0.002789	0.000163	0.228771	0.086437	0.969635	0.377489	-0.925991	-0.006516	0.897310	0.367518	-0.244469
29283	9.429777	-0.047924	-2.367785	0.002115	0.004184	0.000245	0.228766	0.086433	0.969637	0.377508	-0.925983	-0.006524	0.897304	0.367538	-0.244463
29284	9.456741	-0.039986	-2.387687	0.002298	0.000493	-0.001261	0.228789	0.086455	0.969629	0.377528	-0.925975	-0.006517	0.897289	0.367554	-0.244492
29285	9.457121	-0.079368	-2.402500	-0.001171	0.007591	-0.000695	0.228750	0.086446	0.969639	0.377516	-0.925980	-0.006507	0.897304	0.367543	-0.244453
29286	9.430027	-0.047847	-2.366789	0.002035	0.000724	0.000422	0.228777	0.086451	0.969632	0.377530	-0.925975	-0.006517	0.897292	0.367556	-0.244480
29287	9.456997	-0.039986	-2.386671	-0.001513	0.004362	0.001166	0.228774	0.086440	0.969634	0.377513	-0.925981	-0.006521	0.897300	0.367542	-0.244472
29288	9.437486	-0.054388	-2.388571	0.000080	0.003460	-0.000177	0.228774	0.086441	0.969634	0.377511	-0.925982	-0.006520	0.897300	0.367539	-0.244473
29289	9.437579	-0.054417	-2.388202	-0.001513	0.004362	0.001166	0.228772	0.086427	0.969636	0.377490	-0.925991	-0.006526	0.897310	0.367521	-0.244466
29290	9.432396	-0.042141	-2.419699	0.000342	0.003229	-0.001860	0.228769	0.086445	0.969635	0.377494	-0.925989	-0.006510	0.897309	0.367521	-0.244470
29291	9.430433	-0.047881	-2.365171	0.001410	0.002789	0.000163	0.228777	0.086444	0.969633	0.377502	-0.925986	-0.006516	0.897303	0.367529	-0.244477
29292	9.437823	-0.054296	-2.387241	0.002378	0.003953	-0.001438	0.228768	0.086455	0.969634	0.377523	-0.925977	-0.006508	0.897297	0.367548	-0.244473
29293	9.425347	-0.035527	-2.396295	-0.002581	0.004802	-0.000858	0.228754	0.086457	0.969638	0.377500	-0.925987	-0.006494	0.897310	0.367524	-0.244460
29294	9.457641	-0.039779	-2.384122	-0.001514	0.004362	0.001166	0.228751	0.086442	0.969640	0.377481	-0.925995	-0.006502	0.897319	0.367508	-0.244452
29295	9.418521	-0.068661	-2.388324	0.001147	0.003021	0.001847	0.228765	0.086426	0.969638	0.377482	-0.925994	-0.006522	0.897315	0.367513	-0.244459
29296	9.438199	-0.054306	-2.385753	0.000343	0.003229	-0.001860	0.228761	0.086444	0.969637	0.377486	-0.925993	-0.006505	0.897314	0.367512	-0.244462
29297	9.425702	-0.035633	-2.394895	-0.000183	0.003692	0.001506	0.228766	0.086430	0.969637	0.377482	-0.925994	-0.006519	0.897315	0.367512	-0.244462
29298	9.457993	-0.039885	-2.382724	-0.000283	0.005295	-0.002118	0.228743	0.086442	0.969641	0.377481	-0.925995	-0.006498	0.897321	0.367507	-0.244445
29299	9.438511	-0.054159	-2.384523	0.000785	0.004855	-0.000095	0.228733	0.086438	0.969644	0.377482	-0.925994	-0.006499	0.897323	0.367510	-0.244434
29300	9.426020	-0.035638	-2.393645	-0.001152	0.002528	0.003107	0.228754	0.086411	0.969641	0.377461	-0.926002	-0.006527	0.897326	0.367495	-0.244444
29301	9.438691	-0.054326	-2.383806	-0.000282	0.005295	-0.002118	0.228729	0.086425	0.969646	0.377461	-0.926003	-0.006504	0.897333	0.367491	-0.244426
29302	9.446082	-0.060697	-2.405907	0.002035	0.000724	0.000423	0.228756	0.086430	0.969639	0.377475	-0.925997	-0.006514	0.897320	0.367504	-0.244453
29303	9.418933	-0.029227	-2.370343	0.000785	0.004855	-0.000095	0.228741	0.086428	0.969643	0.377486	-0.925992	-0.006513	0.897319	0.367516	-0.244438
29304	9.458540	-0.039909	-2.380551	-0.001251	0.004131	-0.000517	0.228735	0.086429	0.969645	0.377472	-0.925998	-0.006505	0.897327	0.367502	-0.244432
29305	9.413857	-0.016906	-2.401487	-0.000625	0.002066	-0.000259	0.228749	0.086435	0.969640	0.377463	-0.926002	-0.006502	0.897327	0.367491	-0.244448
29306	9.458687	-0.039791	-2.379966	-0.001251	0.004131	-0.000517	0.228743	0.086437	0.969642	0.377450	-0.926007	-0.006495	0.897334	0.367477	-0.244443
29307	9.407013	-0.049843	-2.393583	0.000785	0.004855	-0.000094	0.228730	0.086432	0.969645	0.377453	-0.926006	-0.006496	0.897336	0.367481	-0.244430
29308	9.453635	-0.027558	-2.411030	-0.002219	0.002968	0.001084	0.228740	0.086422	0.969644	0.377427	-0.926017	-0.006501	0.897344	0.367457	-0.244435
29309	9.439363	-0.053992	-2.381151	0.002905	0.003491	-0.004802	0.228719	0.086469	0.969645	0.377468	-0.926000	-0.006460	0.897332	0.367487	-0.244434
29310	9.426843	-0.035338	-2.390404	0.001508	0.001186	0.003789	0.228755	0.086441	0.969639	0.377469	-0.925999	-0.006501	0.897323	0.367496	-0.244456
29311	9.446809	-0.060660	-2.403051	-0.001514	0.004363	0.001166	0.228752	0.086426	0.969641	0.377446	-0.926009	-0.006508	0.897333	0.367476	-0.244448
29312	9.446928	-0.060746	-2.402581	0.002820	0.005579	0.000329	0.228736	0.086415	0.969646	0.377467	-0.926000	-0.006518	0.897328	0.367501	-0.244428
29313	9.452258	-0.073036	-2.370391	0.000705	0.001395	0.000082	0.228753	0.086423	0.969641	0.377482	-0.925994	-0.006521	0.897318	0.367513	-0.244447
29314	9.432423	-0.047995	-2.357221	0.002115	0.004184	0.000247	0.228748	0.086417	0.969642	0.377497	-0.925988	-0.006529	0.897313	0.367530	-0.244440
29315	9.427260	-0.035830	-2.388752	0.001410	0.002790	0.000165	0.228757	0.086417	0.969640	0.377503	-0.925985	-0.006534	0.897308	0.367537	-0.244449
29316	9.466850	-0.046685	-2.399026	0.001851	0.004416	0.001930	0.228757	0.086395	0.969642	0.377512	-0.925982	-0.006558	0.897304	0.367551	-0.244440
29317	9.420103	-0.029673	-2.365682	-0.002219	0.002968	0.001083	0.228770	0.086386	0.969640	0.377483	-0.925993	-0.006563	0.897313	0.367524	-0.244448
29318	9.432755	-0.048426	-2.355881	-0.003813	0.003870	0.002425	0.228776	0.086361	0.969641	0.377440	-0.926011	-0.006578	0.897330	0.367486	-0.244445
29319	9.467141	-0.046742	-2.397877	0.000951	0.006228	-0.005401	0.228734	0.086403	0.969647	0.377447	-0.926008	-0.006523	0.897338	0.367482	-0.244422
29320	9.420699	-0.068900	-2.379709	0.000441	0.001626	0.001765	0.228758	0.086392	0.969642	0.377443	-0.926010	-0.006542	0.897333	0.367481	-0.244441
29321	9.486882	-0.032361	-2.395034	0.002740	0.002119	0.000506	0.228774	0.086395	0.969638	0.377461	-0.926002	-0.006550	0.897321	0.367499	-0.244456
29322	9.408241	-0.050511	-2.388738	-0.000184	0.003692	0.001507	0.228779	0.086380	0.969639	0.377453	-0.926006	-0.006565	0.897324	0.367495	-0.244455
29323	9.427937	-0.036246	-2.386073	0.002115	0.004185	0.000247	0.228776	0.086376	0.969639	0.377462	-0.926002	-0.006569	0.897320	0.367505	-0.244451
29324	9.440575	-0.055029	-2.376316	0.000441	0.001626	0.001765	0.228800	0.086366	0.969635	0.377459	-0.926003	-0.006588	0.897316	0.367504	-0.244469
29325	9.415829	-0.057128	-2.410123	0.002017	0.005788	-0.003377	0.228768	0.086388	0.969640	0.377476	-0.925996	-0.006559	0.897317	0.367516	-0.244448
29326	9.440731	-0.054771	-2.375703	0.000264	-0.000231	-0.001683	0.228796	0.086416	0.969631	0.377479	-0.925995	-0.006543	0.897308	0.367512	-0.244485
29327	9.448124	-0.061132	-2.397863	0.000785	0.004856	-0.000093	0.228785	0.086411	0.969634	0.377482	-0.925994	-0.006545	0.897310	0.367517	-0.244472
29328	9.415761	-0.017578	-2.394005	0.001587	0.004647	0.003613	0.228789	0.086372	0.969637	0.377484	-0.925993	-0.006584	0.897308	0.367529	-0.244461
29329	9.482628	-0.059941	-2.439434	0.001049	0.004624	-0.001776	0.228776	0.086381	0.969639	0.377484	-0.925993	-0.006570	0.897311	0.367526	-0.244453
29330	9.354736	-0.027017	-2.330683	-0.001955	0.002737	-0.000600	0.228782	0.086389	0.969637	0.377464	-0.926001	-0.006560	0.897318	0.367504	-0.244461
29331	9.514955	-0.063998	-2.427042	-0.001955	0.002737	-0.000600	0.228789	0.086393	0.969635	0.377437	-0.926012	-0.006551	0.897328	0.367474	-0.244469
29332	9.389180	-0.025331	-2.372506	0.003084	0.005348	-0.001352	0.228768	0.086398	0.969639	0.377464	-0.926001	-0.006546	0.897322	0.367501	-0.244452
29333	9.461244	-0.079891	-2.386194	-0.001858	0.001134	0.003024	0.228801	0.086378	0.969633	0.377434	-0.926013	-0.006570	0.897326	0.367476	-0.244475
29334	9.428833	-0.036116	-2.382531	0.001313	0.004393	-0.003459	0.228781	0.086406	0.969636	0.377450	-0.926007	-0.006540	0.897324	0.367486	-0.244467
29335	9.377181	-0.046213	-2.396164	0.000257	0.005319	0.003273	0.228779	0.086368	0.969640	0.377434	-0.926013	-0.006571	0.897332	0.367478	-0.244450
29336	9.495525	-0.038992	-2.412262	0.001049	0.004624	-0.001776	0.228763	0.086379	0.969642	0.377444	-0.926009	-0.006557	0.897332	0.367485	-0.244440
29337	9.350452	-0.054235	-2.375234	-0.000184	0.003692	0.001507	0.228768	0.086365	0.969642	0.377439	-0.926011	-0.006571	0.897332	0.367484	-0.244439
29338	9.579973	-0.072462	-2.400760	0.000248	0.004833	-0.005483	0.228736	0.086409	0.969646	0.377450	-0.926007	-0.006519	0.897335	0.367484	-0.244426
29339	9.330718	-0.028794	-2.361649	0.000441	0.001626	0.001766	0.228759	0.086402	0.969641	0.377452	-0.926006	-0.006535	0.897329	0.367488	-0.244445
29340	9.515800	-0.063819	-2.423732	0.000785	0.004856	-0.000093	0.228747	0.086397	0.969644	0.377456	-0.926004	-0.006537	0.897330	0.367493	-0.244432
29341	9.404685	-0.038192	-2.414065	0.000441	0.001626	0.001766	0.228770	0.086386	0.969640	0.377449	-0.926007	-0.006554	0.897327	0.367489	-0.244449
29342	9.481628	-0.065455	-2.380779	0.001674	0.002559	-0.001517	0.228774	0.086403	0.969638	0.377464	-0.926001	-0.006544	0.897320	0.367500	-0.244459
29343	9.390139	-0.025251	-2.368708	-0.001875	0.006198	-0.000775	0.228747	0.086401	0.969644	0.377448	-0.926008	-0.006530	0.897334	0.367484	-0.244434
29344	9.462216	-0.079702	-2.382343	0.002035	0.000724	0.000424	0.228775	0.086407	0.969637	0.377462	-0.926002	-0.006540	0.897321	0.367497	-0.244461
29345	9.429794	-0.035960	-2.378727	-0.001250	0.004132	-0.000517	0.228769	0.086407	0.969638	0.377447	-0.926008	-0.006533	0.897328	0.367482	-0.244456
29346	9.444585	-0.048889	-2.423137	0.001145	0.003021	0.001849	0.228781	0.086391	0.969637	0.377450	-0.926007	-0.006554	0.897324	0.367489	-0.244461
29347	9.442541	-0.054676	-2.368503	-0.000281	0.005296	-0.002117	0.228764	0.086400	0.969640	0.377430	-0.926015	-0.006533	0.897337	0.367466	-0.244449
29348	9.417512	-0.017284	-2.387111	0.001410	0.002790	0.000166	0.228772	0.086400	0.969638	0.377439	-0.926011	-0.006538	0.897331	0.367475	-0.244457
29349	9.450062	-0.060896	-2.390219	0.000609	0.002998	-0.003541	0.228764	0.086436	0.969637	0.377454	-0.926006	-0.006505	0.897327	0.367481	-0.244463
29350	9.408455	-0.055787	-2.325173	-0.000625	0.002066	-0.000258	0.228777	0.086443	0.969633	0.377445	-0.926009	-0.006501	0.897327	0.367471	-0.244477
29351	9.482384	-0.064920	-2.377782	-0.001875	0.006198	-0.000775	0.228755	0.086436	0.969639	0.377413	-0.926022	-0.006490	0.897346	0.367439	-0.244454
29352	9.418173	-0.056397	-2.400965	0.001145	0.003022	0.001849	0.228767	0.086420	0.969638	0.377416	-0.926021	-0.006511	0.897342	0.367446	-0.244459
29353	9.437848	-0.042117	-2.398346	0.000080	0.003461	-0.000175	0.228768	0.086420	0.969637	0.377415	-0.926022	-0.006512	0.897342	0.367445	-0.244460
29354	9.420484	-0.050720	-2.454605	0.001410	0.002790	0.000166	0.228776	0.086420	0.969636	0.377423	-0.926018	-0.006517	0.897337	0.367454	-0.244467
29355	9.457588	-0.027810	-2.395472	0.001410	0.002790	0.000166	0.228785	0.086419	0.969634	0.377425	-0.926017	-0.006522	0.897334	0.367456	-0.244475
29356	9.438071	-0.042093	-2.397471	-0.000985	0.003901	-0.002200	0.228774	0.086436	0.969635	0.377418	-0.926020	-0.006499	0.897340	0.367444	-0.244472
29357	9.423764	-0.068718	-2.367547	-0.000450	0.003924	0.003190	0.228783	0.086405	0.969635	0.377404	-0.926026	-0.006528	0.897343	0.367438	-0.244468
29358	9.457889	-0.027803	-2.394284	0.000425	0.006691	-0.002033	0.228747	0.086411	0.969643	0.377409	-0.926024	-0.006510	0.897350	0.367441	-0.244438
29359	9.416618	-0.062443	-2.344305	0.001505	0.001187	0.003791	0.228782	0.086386	0.969637	0.377417	-0.926020	-0.006550	0.897338	0.367456	-0.244460
29360	9.458061	-0.028003	-2.393605	-0.000280	0.005296	-0.002116	0.228759	0.086398	0.969642	0.377416	-0.926021	-0.006529	0.897344	0.367452	-0.244443
29361	9.431512	-0.075283	-2.388392	-0.000625	0.002066	-0.000258	0.228773	0.086405	0.969638	0.377405	-0.926025	-0.006525	0.897345	0.367439	-0.244459
29362	9.438618	-0.042227	-2.395314	0.000080	0.003461	-0.000175	0.228774	0.086405	0.969637	0.377403	-0.926026	-0.006524	0.897346	0.367436	-0.244460
29363	9.443891	-0.054434	-2.363116	0.000080	0.003461	-0.000175	0.228964	0.086483	0.969586	0.377413	-0.926022	-0.006528	0.897293	0.367429	-0.244665
29364	9.458376	-0.027933	-2.392361	0.001145	0.003022	0.001850	0.228976	0.086466	0.969584	0.377416	-0.926021	-0.006549	0.897289	0.367436	-0.244670
29365	9.446246	-0.048738	-2.416657	-0.000280	0.005296	-0.002116	0.228951	0.086478	0.969589	0.377419	-0.926020	-0.006529	0.897294	0.367436	-0.244651
29366	9.412032	-0.050144	-2.373764	0.000785	0.004857	-0.000091	0.228939	0.086473	0.969592	0.377423	-0.926018	-0.006530	0.897295	0.367441	-0.244639
29367	9.419496	-0.056685	-2.395760	0.001145	0.003022	0.001850	0.228956	0.086454	0.969590	0.377410	-0.926023	-0.006551	0.897297	0.367433	-0.244647
29368	9.458779	-0.028076	-2.390765	-0.001515	0.004364	0.001166	0.228954	0.086439	0.969592	0.377390	-0.926031	-0.006559	0.897305	0.367416	-0.244639
29369	9.407466	-0.077520	-2.419684	-0.002314	0.004572	-0.002541	0.228934	0.086460	0.969595	0.377374	-0.926038	-0.006527	0.897317	0.367394	-0.244630
29370	9.414615	-0.044380	-2.426453	0.002115	0.004186	0.000251	0.228930	0.086455	0.969596	0.377389	-0.926032	-0.006535	0.897312	0.367411	-0.244623
29371	9.452025	-0.060978	-2.382442	-0.000890	0.002298	0.001424	0.228945	0.086446	0.969593	0.377378	-0.926036	-0.006546	0.897313	0.367402	-0.244634
29372	9.432134	-0.035988	-2.369431	-0.001595	0.000903	0.001341	0.228975	0.086442	0.969587	0.377357	-0.926045	-0.006555	0.897314	0.367381	-0.244660
29373	9.466566	-0.034546	-2.411499	0.001490	0.006252	-0.000007	0.228949	0.086434	0.969594	0.377375	-0.926037	-0.006558	0.897313	0.367402	-0.244633
29374	9.412753	-0.050445	-2.370898	0.000785	0.004857	-0.000091	0.228937	0.086429	0.969597	0.377379	-0.926036	-0.006559	0.897314	0.367407	-0.244620
29375	9.452346	-0.061213	-2.381163	0.002035	0.000724	0.000426	0.228965	0.086433	0.969590	0.377386	-0.926033	-0.006568	0.897304	0.367413	-0.244648
29376	9.419935	-0.017406	-2.377531	-0.000279	0.005296	-0.002115	0.228942	0.086445	0.969594	0.377385	-0.926034	-0.006548	0.897311	0.367409	-0.244631
29377	9.459877	-0.067498	-2.402926	0.000705	0.001395	0.000084	0.228962	0.086454	0.969589	0.377385	-0.926033	-0.006546	0.897305	0.367407	-0.244653
29378	9.427460	-0.023724	-2.399320	-0.001250	0.004133	-0.000517	0.228955	0.086456	0.969590	0.377372	-0.926039	-0.006539	0.897313	0.367393	-0.244647
29379	9.425673	-0.069036	-2.359929	0.001144	0.003022	0.001850	0.228965	0.086441	0.969589	0.377379	-0.926036	-0.006558	0.897307	0.367404	-0.244651
29380	9.447220	-0.009506	-2.396345	0.000080	0.003462	-0.000174	0.228966	0.086442	0.969589	0.377377	-0.926037	-0.006557	0.897308	0.367402	-0.244652
29381	9.428042	-0.063329	-2.413535	0.000080	0.003462	-0.000174	0.228967	0.086445	0.969588	0.377371	-0.926039	-0.006553	0.897310	0.367395	-0.244654
29382	9.467303	-0.034372	-2.408608	0.002206	0.002096	-0.004880	0.228962	0.086494	0.969585	0.377399	-0.926028	-0.006512	0.897300	0.367411	-0.244668
29383	9.433008	-0.035587	-2.365954	-0.003284	0.003408	-0.000943	0.228960	0.086502	0.969585	0.377370	-0.926040	-0.006496	0.897312	0.367380	-0.244669
29384	9.420883	-0.056457	-2.390306	-0.000451	0.003925	0.003191	0.228969	0.086470	0.969586	0.377356	-0.926045	-0.006526	0.897316	0.367373	-0.244666
29385	9.420979	-0.056563	-2.389927	-0.001250	0.004133	-0.000516	0.228962	0.086472	0.969587	0.377339	-0.926052	-0.006517	0.897325	0.367355	-0.244660
29386	9.453207	-0.060831	-2.377752	0.001410	0.002791	0.000168	0.228970	0.086472	0.969585	0.377348	-0.926048	-0.006523	0.897319	0.367365	-0.244667
29387	9.428182	-0.023613	-2.396480	0.003444	0.003515	0.000594	0.228974	0.086465	0.969585	0.377371	-0.926039	-0.006537	0.897308	0.367390	-0.244668
29388	9.453375	-0.061031	-2.377079	-0.001515	0.004364	0.001166	0.228972	0.086450	0.969587	0.377351	-0.926047	-0.006545	0.897317	0.367373	-0.244661
29389	9.440919	-0.042405	-2.386225	0.000080	0.003462	-0.000174	0.228973	0.086452	0.969586	0.377344	-0.926050	-0.006542	0.897320	0.367366	-0.244663
29390	9.421362	-0.056695	-2.388410	0.000266	-0.000232	-0.001683	0.229001	0.086480	0.969577	0.377347	-0.926049	-0.006527	0.897311	0.367362	-0.244699
29391	9.448413	-0.048807	-2.408169	0.002554	0.005813	0.002019	0.228988	0.086454	0.969582	0.377366	-0.926041	-0.006552	0.897307	0.367388	-0.244677
29392	9.408991	-0.038207	-2.397225	0.000080	0.003462	-0.000174	0.228989	0.086454	0.969582	0.377364	-0.926042	-0.006551	0.897307	0.367386	-0.244678
29393	9.448622	-0.048847	-2.407348	0.001051	0.004625	-0.001773	0.228975	0.086465	0.969585	0.377365	-0.926042	-0.006536	0.897311	0.367384	-0.244669
29394	9.374823	-0.039564	-2.354018	0.000785	0.004857	-0.000090	0.228963	0.086460	0.969588	0.377369	-0.926040	-0.006537	0.897312	0.367389	-0.244656
29395	9.480985	-0.052952	-2.394626	-0.000984	0.003901	-0.002199	0.228955	0.086478	0.969588	0.377352	-0.926047	-0.006512	0.897321	0.367367	-0.244656
29396	9.409411	-0.037767	-2.395585	0.001051	0.004626	-0.001772	0.228939	0.086490	0.969591	0.377362	-0.926043	-0.006497	0.897321	0.367374	-0.244646
29397	9.427207	-0.068562	-2.353806	0.000080	0.003462	-0.000174	0.228940	0.086491	0.969591	0.377360	-0.926044	-0.006496	0.897322	0.367372	-0.244647
29398	9.444021	-0.036242	-2.437078	-0.000106	0.007155	0.001335	0.228913	0.086464	0.969599	0.377352	-0.926047	-0.006509	0.897331	0.367371	-0.244612
29399	9.422285	-0.056472	-2.384774	-0.002925	0.001574	0.000998	0.228934	0.086464	0.969594	0.377329	-0.926056	-0.006511	0.897336	0.367347	-0.244631
29400	9.429751	-0.062957	-2.406861	0.002115	0.004186	0.000253	0.228930	0.086458	0.969596	0.377344	-0.926050	-0.006519	0.897331	0.367364	-0.244625
29401	9.409902	-0.037972	-2.393653	-0.000186	0.003693	0.001509	0.228933	0.086444	0.969596	0.377342	-0.926051	-0.006534	0.897331	0.367365	-0.244623
29402	9.442137	-0.042175	-2.381403	0.001317	0.004394	-0.003454	0.228913	0.086471	0.969599	0.377358	-0.926045	-0.006504	0.897329	0.367375	-0.244614
29403	9.435166	-0.075037	-2.373923	-0.000625	0.002066	-0.000258	0.228926	0.086476	0.969595	0.377345	-0.926050	-0.006500	0.897331	0.367360	-0.244629
29404	9.434886	-0.035513	-2.358456	0.002381	0.003955	-0.001429	0.228918	0.086487	0.969596	0.377366	-0.926041	-0.006493	0.897325	0.367379	-0.244625
29405	9.469371	-0.033965	-2.400471	0.000080	0.003462	-0.000174	0.228919	0.086490	0.969596	0.377367	-0.926041	-0.006490	0.897324	0.367379	-0.244627
29406	9.422876	-0.056307	-2.382443	-0.001516	0.004365	0.001166	0.228917	0.086475	0.969597	0.377347	-0.926049	-0.006498	0.897333	0.367362	-0.244619
29407	9.462515	-0.066945	-2.392535	-0.000983	0.003901	-0.002199	0.228906	0.086493	0.969598	0.377336	-0.926054	-0.006474	0.897340	0.367346	-0.244616
29408	9.430109	-0.023261	-2.388891	0.000877	0.003254	0.003534	0.228923	0.086460	0.969597	0.377332	-0.926055	-0.006511	0.897338	0.367351	-0.244619
29409	9.418001	-0.044242	-2.413281	0.000080	0.003462	-0.000173	0.228924	0.086463	0.969597	0.377329	-0.926056	-0.006508	0.897338	0.367347	-0.244622
29410	9.462770	-0.067130	-2.391520	-0.001249	0.004133	-0.000516	0.228918	0.086464	0.969598	0.377316	-0.926062	-0.006501	0.897346	0.367333	-0.244616
29411	9.403365	-0.031385	-2.367876	0.001143	0.003022	0.001852	0.228931	0.086447	0.969596	0.377315	-0.926062	-0.006522	0.897343	0.367337	-0.244622
29412	9.462916	-0.067274	-2.390940	-0.000625	0.002067	-0.000258	0.228944	0.086454	0.969593	0.377307	-0.926065	-0.006519	0.897343	0.367326	-0.244637
29413	9.430881	-0.062991	-2.402428	0.001490	0.006253	-0.000004	0.228920	0.086444	0.969599	0.377317	-0.926061	-0.006522	0.897345	0.367339	-0.244611
29414	9.462791	-0.027829	-2.374838	0.000785	0.004857	-0.000089	0.228909	0.086438	0.969603	0.377321	-0.926060	-0.006523	0.897346	0.367345	-0.244598
29415	9.443617	-0.081566	-2.392132	0.002568	0.000261	-0.002938	0.228927	0.086479	0.969595	0.377352	-0.926047	-0.006500	0.897328	0.367367	-0.244630
29416	9.423722	-0.056404	-2.379089	-0.001516	0.004365	0.001166	0.228925	0.086464	0.969597	0.377333	-0.926055	-0.006508	0.897337	0.367351	-0.244623
29417	9.443416	-0.042027	-2.376332	-0.001249	0.004133	-0.000516	0.228917	0.086468	0.969598	0.377328	-0.926057	-0.006500	0.897341	0.367344	-0.244617
29418	9.423914	-0.056355	-2.378331	0.000080	0.003462	-0.000173	0.228918	0.086469	0.969598	0.377325	-0.926058	-0.006499	0.897342	0.367342	-0.244618
29419	9.450649	-0.008905	-2.382787	-0.001249	0.004133	-0.000516	0.228910	0.086471	0.969599	0.377315	-0.926062	-0.006491	0.897348	0.367330	-0.244612
29420	9.418987	-0.044057	-2.409434	0.000785	0.004858	-0.000088	0.228899	0.086466	0.969602	0.377319	-0.926061	-0.006492	0.897349	0.367335	-0.244600
29421	9.443797	-0.041745	-2.374820	0.000614	0.002999	-0.003538	0.228890	0.086503	0.969601	0.377337	-0.926053	-0.006459	0.897344	0.367345	-0.244605
29422	9.456412	-0.060493	-2.364981	0.000609	0.003486	0.005217	0.228911	0.086453	0.969601	0.377328	-0.926057	-0.006511	0.897343	0.367348	-0.244605
29423	9.411809	-0.037793	-2.386144	-0.000625	0.002067	-0.000258	0.228924	0.086460	0.969597	0.377322	-0.926059	-0.006509	0.897342	0.367340	-0.244621
29424	9.431836	-0.062749	-2.398683	-0.000982	0.003902	-0.002198	0.228913	0.086478	0.969598	0.377315	-0.926062	-0.006485	0.897347	0.367328	-0.244617
29425	9.444096	-0.041739	-2.373633	0.000347	0.003231	-0.001855	0.228910	0.086497	0.969597	0.377317	-0.926061	-0.006467	0.897347	0.367326	-0.244621
29426	9.424584	-0.056024	-2.375680	0.000080	0.003462	-0.000173	0.228911	0.086498	0.969597	0.377315	-0.926062	-0.006466	0.897348	0.367324	-0.244622
29427	9.444266	-0.041678	-2.372955	0.002115	0.004187	0.000255	0.228906	0.086493	0.969598	0.377336	-0.926054	-0.006475	0.897340	0.367346	-0.244616
29428	9.424750	-0.056071	-2.375024	-0.000625	0.002067	-0.000258	0.228919	0.086499	0.969595	0.377328	-0.926057	-0.006471	0.897340	0.367336	-0.244631
29429	9.424820	-0.056197	-2.374742	-0.000454	0.003925	0.003192	0.228926	0.086471	0.969596	0.377327	-0.926057	-0.006500	0.897339	0.367343	-0.244626
29430	9.451937	-0.048409	-2.394312	0.000785	0.004858	-0.000088	0.228914	0.086466	0.969599	0.377331	-0.926056	-0.006502	0.897340	0.367348	-0.244614
29431	9.452019	-0.048395	-2.393985	-0.000625	0.002067	-0.000258	0.228928	0.086472	0.969595	0.377314	-0.926063	-0.006496	0.897344	0.367329	-0.244629
29432	9.417672	-0.049850	-2.351294	-0.000544	0.005529	-0.000431	0.228909	0.086468	0.969600	0.377307	-0.926066	-0.006491	0.897352	0.367323	-0.244610
29433	9.420101	-0.044003	-2.405075	-0.001249	0.004133	-0.000516	0.228903	0.086470	0.969601	0.377291	-0.926072	-0.006483	0.897360	0.367306	-0.244605
29434	9.432738	-0.062731	-2.395135	0.001847	0.004418	0.001938	0.228903	0.086447	0.969603	0.377300	-0.926068	-0.006507	0.897356	0.367320	-0.244597
29435	9.444979	-0.042014	-2.370110	-0.000624	0.002067	-0.000258	0.228914	0.086455	0.969600	0.377294	-0.926071	-0.006502	0.897356	0.367313	-0.244610
29436	9.412954	-0.037732	-2.381626	0.001490	0.006254	-0.000002	0.228891	0.086444	0.969606	0.377304	-0.926066	-0.006506	0.897357	0.367326	-0.244584
29437	9.452594	-0.048402	-2.391714	0.000972	0.001164	-0.001597	0.228908	0.086464	0.969600	0.377305	-0.926066	-0.006494	0.897353	0.367322	-0.244608
29438	9.413119	-0.037780	-2.380971	0.000251	0.005321	0.003278	0.228905	0.086426	0.969604	0.377296	-0.926070	-0.006527	0.897357	0.367322	-0.244591
29439	9.433191	-0.062913	-2.393344	-0.000982	0.003902	-0.002198	0.228897	0.086441	0.969605	0.377277	-0.926078	-0.006505	0.897367	0.367299	-0.244589
29440	9.440330	-0.029794	-2.400195	0.001410	0.002791	0.000171	0.228905	0.086441	0.969603	0.377286	-0.926074	-0.006510	0.897361	0.367308	-0.244596
29441	9.413748	-0.077247	-2.395138	0.001410	0.002791	0.000171	0.228915	0.086438	0.969601	0.377284	-0.926075	-0.006516	0.897360	0.367306	-0.244604
29442	9.445590	-0.042167	-2.367671	0.000518	0.005090	0.001595	0.228907	0.086416	0.969605	0.377281	-0.926076	-0.006533	0.897363	0.367309	-0.244589
29443	9.426093	-0.056647	-2.369673	0.001410	0.002791	0.000171	0.228919	0.086413	0.969603	0.377275	-0.926078	-0.006539	0.897363	0.367304	-0.244598
29444	9.453195	-0.048881	-2.389327	-0.000454	0.003926	0.003193	0.228928	0.086381	0.969603	0.377261	-0.926084	-0.006569	0.897366	0.367297	-0.244595
29445	9.426237	-0.056867	-2.369093	0.003274	0.001657	-0.002851	0.228934	0.086413	0.969599	0.377289	-0.926072	-0.006549	0.897353	0.367318	-0.244612
29446	9.426322	-0.056744	-2.368761	0.003087	0.005351	-0.001340	0.228914	0.086417	0.969603	0.377317	-0.926061	-0.006544	0.897347	0.367345	-0.244595
29447	9.435863	-0.017856	-2.429619	-0.001873	0.006201	-0.000774	0.228888	0.086414	0.969610	0.377293	-0.926071	-0.006531	0.897363	0.367322	-0.244570
29448	9.446514	-0.081706	-2.380664	0.004336	0.001217	-0.000824	0.228906	0.086429	0.969604	0.377330	-0.926056	-0.006534	0.897343	0.367357	-0.244592
29449	9.421512	-0.044405	-2.399534	0.000080	0.003463	-0.000172	0.228909	0.086428	0.969604	0.377324	-0.926058	-0.006533	0.897345	0.367350	-0.244594
29450	9.453715	-0.048745	-2.387271	-0.000187	0.003694	0.001510	0.228914	0.086413	0.969604	0.377315	-0.926062	-0.006548	0.897347	0.367345	-0.244593
29451	9.434201	-0.063138	-2.389354	0.001677	0.002560	-0.001511	0.228918	0.086426	0.969602	0.377323	-0.926059	-0.006539	0.897343	0.367350	-0.244602
29452	9.453893	-0.048653	-2.386569	0.001758	0.006022	-0.001683	0.228890	0.086431	0.969608	0.377339	-0.926052	-0.006528	0.897343	0.367365	-0.244578
29453	9.434418	-0.062963	-2.388501	0.000080	0.003463	-0.000172	0.228893	0.086431	0.969607	0.377330	-0.926056	-0.006527	0.897346	0.367356	-0.244580
29454	9.414530	-0.038116	-2.375380	0.000606	0.003487	0.005219	0.228914	0.086382	0.969606	0.377320	-0.926059	-0.006579	0.897345	0.367358	-0.244581
29455	9.473760	-0.034444	-2.383082	-0.000445	0.003439	-0.005563	0.228896	0.086431	0.969606	0.377319	-0.926060	-0.006524	0.897350	0.367344	-0.244584
29456	9.387633	-0.045889	-2.354887	0.001766	0.000956	0.002112	0.228928	0.086420	0.969600	0.377327	-0.926057	-0.006550	0.897339	0.367355	-0.244609
29457	9.454274	-0.048709	-2.385058	0.000348	0.003231	-0.001855	0.228926	0.086438	0.969599	0.377328	-0.926057	-0.006532	0.897339	0.367352	-0.244614
29458	9.429676	-0.050816	-2.419048	0.001410	0.002792	0.000171	0.228934	0.086438	0.969597	0.377337	-0.926053	-0.006538	0.897333	0.367362	-0.244621
29459	9.427371	-0.056590	-2.364585	-0.000624	0.002067	-0.000258	0.228947	0.086446	0.969593	0.377327	-0.926057	-0.006533	0.897334	0.367349	-0.244636
29460	9.469388	-0.061569	-2.428862	0.002819	0.005583	0.000343	0.228931	0.086434	0.969598	0.377348	-0.926048	-0.006544	0.897329	0.367374	-0.244617
29461	9.407611	-0.031506	-2.350947	-0.002578	0.004805	-0.000860	0.228918	0.086435	0.969601	0.377319	-0.926060	-0.006530	0.897345	0.367343	-0.244605
29462	9.462161	-0.055136	-2.405660	0.001142	0.003023	0.001854	0.228930	0.086418	0.969599	0.377322	-0.926059	-0.006551	0.897340	0.367350	-0.244610
29463	9.422645	-0.044380	-2.395080	0.004872	0.000754	-0.004188	0.228940	0.086464	0.969593	0.377372	-0.926039	-0.006524	0.897317	0.367390	-0.244637
29464	9.454803	-0.048541	-2.382963	-0.002222	0.002970	0.001081	0.228950	0.086455	0.969591	0.377346	-0.926049	-0.006530	0.897325	0.367366	-0.244643
29465	9.442750	-0.069344	-2.407354	-0.001249	0.004134	-0.000516	0.228941	0.086458	0.969593	0.377346	-0.926049	-0.006524	0.897327	0.367366	-0.244635
29466	9.422842	-0.044224	-2.394309	0.000705	0.001396	0.000086	0.228961	0.086464	0.969588	0.377349	-0.926048	-0.006527	0.897321	0.367367	-0.244656
29467	9.467536	-0.067156	-2.372581	0.000080	0.003463	-0.000172	0.228959	0.086467	0.969588	0.377360	-0.926044	-0.006526	0.897317	0.367378	-0.244655
29468	9.410837	-0.064990	-2.418523	0.001678	0.002560	-0.001510	0.228963	0.086483	0.969586	0.377375	-0.926038	-0.006516	0.897309	0.367389	-0.244665
29469	9.455201	-0.048195	-2.381393	-0.000632	0.007133	-0.004052	0.228917	0.086509	0.969594	0.377370	-0.926040	-0.006472	0.897323	0.367377	-0.244632
29470	9.428255	-0.055976	-2.361073	0.002034	0.000725	0.000430	0.228945	0.086514	0.969587	0.377384	-0.926034	-0.006482	0.897310	0.367391	-0.244660
29471	9.423245	-0.043849	-2.392729	-0.001517	0.004366	0.001166	0.228941	0.086502	0.969589	0.377370	-0.926040	-0.006488	0.897317	0.367379	-0.244651
29472	9.415875	-0.037469	-2.370054	0.001410	0.002792	0.000172	0.228949	0.086502	0.969587	0.377379	-0.926036	-0.006494	0.897311	0.367389	-0.244659
29473	9.435922	-0.062687	-2.382558	0.001141	0.003024	0.001854	0.228959	0.086488	0.969586	0.377380	-0.926036	-0.006512	0.897308	0.367393	-0.244663
29474	9.443082	-0.029843	-2.389342	0.000517	0.005091	0.001597	0.228952	0.086466	0.969590	0.377377	-0.926037	-0.006529	0.897311	0.367396	-0.244648
29475	9.436134	-0.062881	-2.381716	0.001054	0.004627	-0.001768	0.228938	0.086477	0.969592	0.377377	-0.926037	-0.006513	0.897315	0.367393	-0.244640
29476	9.455826	-0.048470	-2.378905	0.002114	0.004188	0.000258	0.228934	0.086471	0.969594	0.377392	-0.926031	-0.006521	0.897310	0.367410	-0.244634
29477	9.463370	-0.054975	-2.400903	-0.002222	0.002970	0.001080	0.228941	0.086467	0.969593	0.377378	-0.926036	-0.006524	0.897314	0.367397	-0.244638
29478	9.404310	-0.058665	-2.392549	0.000785	0.004859	-0.000086	0.228929	0.086461	0.969596	0.377382	-0.926035	-0.006526	0.897315	0.367402	-0.244625
29479	9.468612	-0.067166	-2.368283	0.001678	0.002560	-0.001510	0.228932	0.086480	0.969593	0.377402	-0.926026	-0.006515	0.897306	0.367418	-0.244635
29480	9.424058	-0.044184	-2.389520	0.000081	0.003463	-0.000172	0.228932	0.086481	0.969593	0.377400	-0.926027	-0.006514	0.897307	0.367416	-0.244636
29481	9.431606	-0.050690	-2.411517	-0.000188	0.003695	0.001511	0.228936	0.086468	0.969593	0.377394	-0.926030	-0.006526	0.897308	0.367413	-0.244634
29482	9.411698	-0.025614	-2.398452	0.001678	0.002560	-0.001510	0.228940	0.086484	0.969591	0.377409	-0.926024	-0.006516	0.897301	0.367424	-0.244644
29483	9.456395	-0.048479	-2.376641	0.000081	0.003463	-0.000172	0.228938	0.086486	0.969591	0.377413	-0.926022	-0.006514	0.897300	0.367428	-0.244643
29484	9.424370	-0.044039	-2.388291	-0.003014	0.003177	-0.002629	0.228933	0.086511	0.969591	0.377389	-0.926032	-0.006482	0.897311	0.367396	-0.244647
29485	9.431904	-0.050531	-2.410354	0.002201	0.002584	0.003881	0.228957	0.086476	0.969588	0.377392	-0.926031	-0.006526	0.897304	0.367408	-0.244657
29486	9.424499	-0.044246	-2.387777	0.001678	0.002560	-0.001510	0.228961	0.086492	0.969585	0.377407	-0.926025	-0.006516	0.897296	0.367420	-0.244666
29487	9.436700	-0.023411	-2.362717	-0.001517	0.004366	0.001166	0.228961	0.086475	0.969587	0.377382	-0.926035	-0.006525	0.897307	0.367399	-0.244660
29488	9.432160	-0.050718	-2.409348	0.000785	0.004859	-0.000085	0.228950	0.086470	0.969590	0.377386	-0.926033	-0.006527	0.897308	0.367404	-0.244647
29489	9.456894	-0.048545	-2.374654	0.000081	0.003463	-0.000171	0.228951	0.086470	0.969590	0.377383	-0.926034	-0.006526	0.897309	0.367401	-0.244649
29490	9.417421	-0.037827	-2.363899	0.000785	0.004859	-0.000085	0.228939	0.086465	0.969593	0.377387	-0.926033	-0.006528	0.897310	0.367406	-0.244636
29491	9.464562	-0.054986	-2.396198	0.000081	0.003463	-0.000171	0.228939	0.086469	0.969593	0.377390	-0.926031	-0.006525	0.897309	0.367408	-0.244637
29492	9.405499	-0.058752	-2.387871	0.001846	0.004420	0.001942	0.228939	0.086446	0.969595	0.377399	-0.926028	-0.006549	0.897306	0.367423	-0.244628
29493	9.425171	-0.044513	-2.385118	-0.002222	0.002970	0.001080	0.228948	0.086439	0.969593	0.377375	-0.926038	-0.006553	0.897313	0.367400	-0.244635
29494	9.449864	-0.042316	-2.350552	0.001679	0.002560	-0.001509	0.228952	0.086456	0.969591	0.377390	-0.926031	-0.006543	0.897306	0.367412	-0.244644
29495	9.464893	-0.055190	-2.394886	-0.001517	0.004366	0.001167	0.228946	0.086443	0.969593	0.377380	-0.926035	-0.006550	0.897311	0.367405	-0.244634
29496	9.420407	-0.032321	-2.415933	0.001490	0.006255	0.000002	0.228923	0.086432	0.969600	0.377390	-0.926031	-0.006554	0.897313	0.367418	-0.244608
29497	9.433032	-0.051014	-2.405926	-0.002222	0.002970	0.001080	0.228930	0.086423	0.969599	0.377371	-0.926039	-0.006560	0.897319	0.367401	-0.244611
29498	9.432726	-0.011464	-2.390370	-0.000274	0.005299	-0.002111	0.228907	0.086435	0.969603	0.377371	-0.926039	-0.006539	0.897326	0.367397	-0.244595
29499	9.445734	-0.069463	-2.395617	-0.000624	0.002067	-0.000258	0.228922	0.086440	0.969599	0.377352	-0.926047	-0.006535	0.897329	0.367377	-0.244611
29500	9.425826	-0.044354	-2.382534	0.000785	0.004859	-0.000084	0.228911	0.086435	0.969602	0.377356	-0.926045	-0.006537	0.897331	0.367382	-0.244598
29501	9.425909	-0.044417	-2.382204	0.002739	0.002121	0.000518	0.228925	0.086435	0.969599	0.377374	-0.926038	-0.006547	0.897319	0.367400	-0.244612
29502	9.425975	-0.044390	-2.381944	-0.003282	0.003410	-0.000947	0.228924	0.086443	0.969599	0.377344	-0.926050	-0.006531	0.897333	0.367367	-0.244614
29503	9.418570	-0.037963	-2.359312	0.001140	0.003024	0.001856	0.228935	0.086430	0.969597	0.377352	-0.926047	-0.006550	0.897326	0.367379	-0.244619
29504	9.473184	-0.061587	-2.414015	0.000350	0.003231	-0.001853	0.228931	0.086447	0.969597	0.377356	-0.926045	-0.006533	0.897325	0.367379	-0.244622
29505	9.418734	-0.037935	-2.358660	-0.001517	0.004366	0.001167	0.228930	0.086433	0.969598	0.377329	-0.926056	-0.006539	0.897337	0.367354	-0.244616
29506	9.433775	-0.050840	-2.403013	-0.000624	0.002067	-0.000258	0.228943	0.086440	0.969594	0.377321	-0.926060	-0.006535	0.897337	0.367344	-0.244630
29507	9.446355	-0.069540	-2.393166	-0.000189	0.003695	0.001511	0.228948	0.086423	0.969595	0.377313	-0.926062	-0.006551	0.897339	0.367341	-0.244629
29508	9.426446	-0.044508	-2.380076	0.000081	0.003463	-0.000171	0.228949	0.086424	0.969595	0.377311	-0.926063	-0.006550	0.897340	0.367339	-0.244630
29509	9.453547	-0.036600	-2.399856	0.001329	-0.000671	0.000345	0.228987	0.086436	0.969584	0.377322	-0.926059	-0.006557	0.897325	0.367347	-0.244670
29510	9.426530	-0.044386	-2.379744	0.003627	0.004889	-0.004699	0.228958	0.086473	0.969588	0.377362	-0.926043	-0.006521	0.897316	0.367379	-0.244657
29511	9.446246	-0.029772	-2.376805	-0.001872	0.006202	-0.000773	0.228932	0.086471	0.969594	0.377343	-0.926051	-0.006507	0.897331	0.367359	-0.244632
29512	9.466330	-0.054928	-2.389207	-0.001868	0.001135	0.003020	0.228966	0.086451	0.969588	0.377316	-0.926062	-0.006532	0.897334	0.367336	-0.244656
29513	9.426821	-0.044336	-2.378594	0.000786	0.004860	-0.000084	0.228957	0.086446	0.969591	0.377314	-0.926062	-0.006533	0.897336	0.367336	-0.244646
29514	9.493564	-0.047074	-2.408471	-0.001953	0.002739	-0.000602	0.228963	0.086453	0.969589	0.377295	-0.926070	-0.006523	0.897343	0.367314	-0.244654
29515	9.441970	-0.057010	-2.422575	-0.000979	0.003903	-0.002197	0.228953	0.086471	0.969589	0.377284	-0.926075	-0.006500	0.897350	0.367299	-0.244651
29516	9.400020	-0.051948	-2.357614	0.004418	0.004681	-0.000989	0.228940	0.086475	0.969592	0.377323	-0.926059	-0.006501	0.897337	0.367337	-0.244640
29517	9.454242	-0.036175	-2.397124	0.000435	0.001628	0.001769	0.228963	0.086466	0.969587	0.377323	-0.926059	-0.006519	0.897331	0.367340	-0.244659
29518	9.402658	-0.046158	-2.411200	-0.001333	0.005738	-0.004137	0.228929	0.086495	0.969593	0.377317	-0.926061	-0.006476	0.897342	0.367327	-0.244638
29519	9.486521	-0.040061	-2.384379	0.001679	0.002560	-0.001508	0.228928	0.086516	0.969591	0.377351	-0.926048	-0.006465	0.897328	0.367356	-0.244646
29520	9.410329	-0.052359	-2.432840	-0.000189	0.003695	0.001512	0.228933	0.086501	0.969591	0.377342	-0.926051	-0.006479	0.897331	0.367351	-0.244644
29521	9.467099	-0.054519	-2.386167	0.000081	0.003464	-0.000170	0.228935	0.086503	0.969591	0.377338	-0.926053	-0.006477	0.897332	0.367346	-0.244646
29522	9.422569	-0.031572	-2.407495	-0.000624	0.002067	-0.000258	0.228948	0.086509	0.969587	0.377330	-0.926056	-0.006473	0.897332	0.367336	-0.244661
29523	9.435143	-0.050195	-2.397651	0.000081	0.003464	-0.000170	0.228946	0.086511	0.969587	0.377331	-0.926056	-0.006471	0.897332	0.367337	-0.244660
29524	9.427727	-0.043737	-2.375009	0.003713	0.003285	-0.001075	0.228945	0.086521	0.969587	0.377363	-0.926043	-0.006470	0.897319	0.367368	-0.244663
29525	9.427791	-0.043634	-2.374759	-0.003986	0.002014	-0.001035	0.228955	0.086536	0.969583	0.377332	-0.926056	-0.006452	0.897330	0.367332	-0.244678
29526	9.454936	-0.035673	-2.394395	0.003443	0.003517	0.000607	0.228958	0.086529	0.969583	0.377358	-0.926045	-0.006466	0.897318	0.367361	-0.244678
29527	9.403351	-0.045768	-2.408506	-0.003282	0.003410	-0.000948	0.228953	0.086542	0.969583	0.377345	-0.926050	-0.006449	0.897325	0.367344	-0.244678
29528	9.455535	-0.075084	-2.408873	0.002114	0.004189	0.000262	0.228949	0.086536	0.969584	0.377360	-0.926044	-0.006457	0.897319	0.367361	-0.244672
29529	9.420630	-0.037178	-2.351089	-0.001518	0.004367	0.001167	0.228948	0.086521	0.969586	0.377336	-0.926054	-0.006463	0.897330	0.367339	-0.244666
29530	9.440742	-0.062237	-2.363400	0.001055	0.004628	-0.001765	0.228932	0.086532	0.969589	0.377346	-0.926050	-0.006449	0.897329	0.367347	-0.244655
29531	9.423324	-0.031338	-2.404544	0.001409	0.002792	0.000175	0.228941	0.086532	0.969587	0.377356	-0.926046	-0.006456	0.897323	0.367358	-0.244663
29532	9.443432	-0.056507	-2.416882	0.002819	0.005585	0.000350	0.228924	0.086520	0.969592	0.377377	-0.926037	-0.006467	0.897318	0.367382	-0.244643
29533	9.448557	-0.068689	-2.384482	-0.002577	0.004806	-0.000860	0.228912	0.086520	0.969595	0.377354	-0.926047	-0.006455	0.897331	0.367358	-0.244632
29534	9.436086	-0.049989	-2.393942	0.000624	-0.002067	0.000258	0.228964	0.086538	0.969581	0.377356	-0.926046	-0.006459	0.897317	0.367356	-0.244686
29535	9.428608	-0.043601	-2.371514	-0.001518	0.004367	0.001167	0.228959	0.086524	0.969583	0.377347	-0.926049	-0.006468	0.897322	0.367351	-0.244677
29536	9.428689	-0.043511	-2.371190	-0.001683	0.002507	-0.002285	0.228961	0.086548	0.969581	0.377334	-0.926055	-0.006443	0.897327	0.367331	-0.244688
29537	9.436270	-0.049896	-2.393218	-0.000189	0.003696	0.001512	0.228965	0.086535	0.969581	0.377328	-0.926057	-0.006455	0.897329	0.367328	-0.244687
29538	9.416800	-0.064317	-2.395218	-0.000543	0.005531	-0.000427	0.228946	0.086530	0.969586	0.377321	-0.926060	-0.006450	0.897336	0.367321	-0.244668
29539	9.448998	-0.068521	-2.382737	-0.001248	0.004135	-0.000515	0.228938	0.086535	0.969587	0.377318	-0.926061	-0.006442	0.897340	0.367317	-0.244662
29540	9.417020	-0.064325	-2.394353	-0.001789	0.004599	0.002849	0.228940	0.086504	0.969589	0.377292	-0.926072	-0.006465	0.897350	0.367299	-0.244652
29541	9.444223	-0.056585	-2.413785	0.004148	0.004914	0.000696	0.228932	0.086491	0.969593	0.377327	-0.926057	-0.006484	0.897338	0.367338	-0.244639
29542	9.436408	-0.010542	-2.375798	-0.001331	0.005739	-0.004137	0.228897	0.086520	0.969598	0.377321	-0.926060	-0.006441	0.897349	0.367324	-0.244618
29543	9.456955	-0.074843	-2.403297	0.001680	0.002561	-0.001506	0.228906	0.086534	0.969595	0.377319	-0.926061	-0.006430	0.897347	0.367319	-0.244632
29544	9.432021	-0.037519	-2.422221	-0.002223	0.002971	0.001079	0.228916	0.086525	0.969593	0.377294	-0.926071	-0.006436	0.897356	0.367295	-0.244638
29545	9.402493	-0.051246	-2.347748	0.000785	0.004860	-0.000082	0.228902	0.086520	0.969597	0.377297	-0.926070	-0.006436	0.897358	0.367299	-0.244623
29546	9.456779	-0.035373	-2.387107	0.000081	0.003464	-0.000170	0.228903	0.086521	0.969597	0.377295	-0.926071	-0.006435	0.897358	0.367297	-0.244624
29547	9.449785	-0.068463	-2.379617	-0.000190	0.003696	0.001513	0.228907	0.086510	0.969597	0.377293	-0.926071	-0.006447	0.897358	0.367298	-0.244624
29548	9.437357	-0.049940	-2.388928	-0.000894	0.002300	0.001425	0.228924	0.086500	0.969593	0.377279	-0.926077	-0.006459	0.897360	0.367285	-0.244636
29549	9.432412	-0.037914	-2.420693	0.005395	0.000779	0.001212	0.228950	0.086502	0.969587	0.377332	-0.926056	-0.006482	0.897331	0.367340	-0.244661
29550	9.437039	-0.010710	-2.373288	-0.001872	0.006203	-0.000772	0.228924	0.086498	0.969594	0.377313	-0.926063	-0.006470	0.897345	0.367322	-0.244635
29551	9.437564	-0.050319	-2.388103	0.001492	0.001189	0.003798	0.228961	0.086471	0.969587	0.377312	-0.926063	-0.006511	0.897336	0.367328	-0.244659
29552	9.437641	-0.050414	-2.387796	-0.000272	0.005300	-0.002109	0.228938	0.086483	0.969592	0.377312	-0.926064	-0.006490	0.897342	0.367324	-0.244642
29553	9.457314	-0.035882	-2.384979	0.001680	0.002561	-0.001506	0.228941	0.086500	0.969589	0.377329	-0.926056	-0.006480	0.897334	0.367338	-0.244651
29554	9.412848	-0.012930	-2.406205	0.001490	0.006257	0.000007	0.228918	0.086488	0.969596	0.377339	-0.926052	-0.006484	0.897336	0.367351	-0.244625
29555	9.457533	-0.035783	-2.384113	0.000352	0.003232	-0.001851	0.228912	0.086508	0.969596	0.377345	-0.926050	-0.006464	0.897335	0.367352	-0.244627
29556	9.410920	-0.058069	-2.366433	-0.000895	0.002300	0.001425	0.228929	0.086499	0.969592	0.377331	-0.926056	-0.006476	0.897337	0.367339	-0.244640
29557	9.438068	-0.050097	-2.386112	0.003280	0.001658	-0.002842	0.228939	0.086532	0.969587	0.377354	-0.926046	-0.006455	0.897324	0.367356	-0.244661
29558	9.433148	-0.037749	-2.417825	0.001680	0.002561	-0.001506	0.228943	0.086549	0.969585	0.377370	-0.926040	-0.006444	0.897317	0.367367	-0.244671
29559	9.430700	-0.043395	-2.363185	-0.001872	0.006203	-0.000772	0.228914	0.086546	0.969592	0.377356	-0.926046	-0.006432	0.897330	0.367354	-0.244643
29560	9.443271	-0.062060	-2.353281	-0.000271	0.000232	0.001682	0.228951	0.086541	0.969584	0.377347	-0.926050	-0.006449	0.897324	0.367345	-0.244676
29561	9.425858	-0.031248	-2.394590	-0.001248	0.004135	-0.000515	0.228945	0.086540	0.969585	0.377323	-0.926059	-0.006441	0.897336	0.367321	-0.244671
29562	9.438458	-0.049786	-2.384575	0.001056	0.004629	-0.001763	0.228930	0.086551	0.969588	0.377333	-0.926055	-0.006427	0.897335	0.367329	-0.244660
29563	9.438539	-0.049695	-2.384259	-0.000624	0.002068	-0.000257	0.228958	0.086567	0.969580	0.377365	-0.926042	-0.006432	0.897315	0.367358	-0.244692
29564	9.446117	-0.056179	-2.406373	0.002738	0.002122	0.000522	0.228973	0.086566	0.969576	0.377385	-0.926034	-0.006444	0.897302	0.367379	-0.244706
29565	9.431153	-0.043394	-2.361377	-0.000814	0.005764	0.001255	0.228957	0.086547	0.969581	0.377370	-0.926040	-0.006452	0.897313	0.367368	-0.244684
29566	9.438781	-0.049839	-2.383295	0.001680	0.002561	-0.001505	0.228961	0.086563	0.969579	0.377385	-0.926034	-0.006442	0.897306	0.367380	-0.244693
29567	9.423802	-0.036933	-2.338346	-0.001519	0.004367	0.001167	0.228958	0.086550	0.969581	0.377370	-0.926040	-0.006449	0.897313	0.367367	-0.244686
29568	9.466089	-0.041902	-2.402365	0.003090	0.005354	-0.001329	0.228937	0.086555	0.969586	0.377397	-0.926029	-0.006444	0.897307	0.367394	-0.244668
29569	9.431560	-0.043324	-2.359751	-0.001248	0.004135	-0.000515	0.228930	0.086558	0.969587	0.377388	-0.926033	-0.006436	0.897312	0.367384	-0.244662
29570	9.414639	-0.051860	-2.416117	0.001681	0.002561	-0.001505	0.228934	0.086574	0.969585	0.377403	-0.926027	-0.006426	0.897305	0.367395	-0.244672
29571	9.458805	-0.035229	-2.379069	-0.000624	0.002068	-0.000257	0.228945	0.086582	0.969581	0.377398	-0.926029	-0.006421	0.897304	0.367388	-0.244686
29572	9.446845	-0.056043	-2.403516	0.004419	0.004683	-0.000982	0.228932	0.086586	0.969584	0.377437	-0.926013	-0.006423	0.897291	0.367427	-0.244675
29573	9.431848	-0.043244	-2.358598	0.000433	0.001629	0.001770	0.228957	0.086575	0.969579	0.377428	-0.926017	-0.006441	0.897289	0.367421	-0.244694
29574	9.434524	-0.037522	-2.412456	-0.001871	0.006203	-0.000772	0.228931	0.086571	0.969585	0.377410	-0.926024	-0.006429	0.897303	0.367403	-0.244669
29575	9.427545	-0.070439	-2.404891	0.001681	0.002561	-0.001505	0.228933	0.086592	0.969583	0.377436	-0.926014	-0.006418	0.897292	0.367424	-0.244678
29576	9.432108	-0.043139	-2.357563	0.001409	0.002793	0.000177	0.228941	0.086592	0.969581	0.377445	-0.926010	-0.006423	0.897286	0.367434	-0.244685
29577	9.454345	-0.023024	-2.409034	0.000081	0.003464	-0.000169	0.228942	0.086593	0.969581	0.377440	-0.926012	-0.006421	0.897287	0.367429	-0.244687
29578	9.420220	-0.064003	-2.381740	0.001409	0.002793	0.000177	0.228950	0.086593	0.969579	0.377449	-0.926008	-0.006427	0.897281	0.367438	-0.244694
29579	9.466983	-0.041631	-2.398841	0.000352	0.003232	-0.001851	0.228945	0.086611	0.969579	0.377458	-0.926004	-0.006410	0.897279	0.367443	-0.244696
29580	9.420388	-0.063868	-2.381081	0.004419	0.004683	-0.000981	0.228932	0.086615	0.969581	0.377497	-0.925989	-0.006412	0.897266	0.367482	-0.244685
29581	9.435129	-0.037225	-2.410091	-0.002576	0.004807	-0.000861	0.228916	0.086619	0.969585	0.377473	-0.925998	-0.006395	0.897280	0.367457	-0.244672
29582	9.408105	-0.045188	-2.389879	0.001138	0.003025	0.001859	0.228928	0.086602	0.969583	0.377476	-0.925997	-0.006417	0.897276	0.367464	-0.244677
29583	9.420605	-0.063954	-2.380219	0.000624	-0.002068	0.000257	0.228982	0.086618	0.969569	0.377469	-0.926000	-0.006421	0.897265	0.367453	-0.244733
29584	9.459787	-0.035217	-2.375162	0.000786	0.004861	-0.000080	0.228971	0.086613	0.969572	0.377473	-0.925998	-0.006422	0.897266	0.367458	-0.244721
29585	9.400704	-0.038884	-2.367004	0.000081	0.003464	-0.000169	0.228969	0.086616	0.969573	0.377480	-0.925996	-0.006421	0.897264	0.367464	-0.244720
29586	9.440378	-0.049570	-2.376970	-0.000624	0.002068	-0.000257	0.228982	0.086622	0.969569	0.377472	-0.925999	-0.006417	0.897264	0.367454	-0.244734
29587	9.427961	-0.030867	-2.386301	0.002386	0.003958	-0.001416	0.228967	0.086638	0.969571	0.377508	-0.925984	-0.006407	0.897252	0.367488	-0.244726
29588	9.460112	-0.035085	-2.373869	0.000081	0.003464	-0.000169	0.228967	0.086638	0.969571	0.377506	-0.925985	-0.006406	0.897253	0.367486	-0.244727
29589	9.448202	-0.055927	-2.398179	0.001490	0.006258	0.000009	0.228944	0.086626	0.969578	0.377515	-0.925981	-0.006411	0.897255	0.367497	-0.244700
29590	9.408676	-0.045278	-2.387629	0.002033	0.000725	0.000435	0.228972	0.086631	0.969571	0.377529	-0.925976	-0.006420	0.897242	0.367511	-0.244728
29591	9.440803	-0.049591	-2.375280	0.000786	0.004861	-0.000080	0.228960	0.086625	0.969574	0.377529	-0.925976	-0.006422	0.897245	0.367512	-0.244715
29592	9.428410	-0.031053	-2.384527	0.001137	0.003026	0.001859	0.228973	0.086608	0.969572	0.377531	-0.925974	-0.006443	0.897241	0.367519	-0.244720
29593	9.440970	-0.049716	-2.374612	0.000353	0.003232	-0.001850	0.228970	0.086622	0.969572	0.377529	-0.925975	-0.006429	0.897243	0.367514	-0.244723
29594	9.428565	-0.030981	-2.383916	0.000081	0.003465	-0.000169	0.228971	0.086623	0.969572	0.377527	-0.925976	-0.006428	0.897243	0.367511	-0.244724
29595	9.434045	-0.082637	-2.366817	0.000081	0.003465	-0.000169	0.228972	0.086621	0.969571	0.377520	-0.925979	-0.006428	0.897246	0.367505	-0.244725
29596	9.436303	-0.037492	-2.405487	0.000514	0.005093	0.001602	0.228965	0.086600	0.969575	0.377518	-0.925980	-0.006445	0.897249	0.367508	-0.244710
29597	9.433764	-0.043374	-2.350921	0.002738	0.002122	0.000524	0.228980	0.086600	0.969571	0.377541	-0.925970	-0.006457	0.897235	0.367531	-0.244723
29598	9.416916	-0.052012	-2.407225	-0.001871	0.006204	-0.000772	0.228953	0.086596	0.969578	0.377522	-0.925978	-0.006445	0.897250	0.367513	-0.244698
29599	9.429032	-0.031101	-2.382062	-0.000624	0.002068	-0.000257	0.228968	0.086603	0.969574	0.377512	-0.925982	-0.006442	0.897250	0.367501	-0.244714
29600	9.449139	-0.056169	-2.394479	0.000081	0.003465	-0.000168	0.228969	0.086603	0.969574	0.377510	-0.925983	-0.006441	0.897251	0.367498	-0.244715
29601	9.417175	-0.051938	-2.406214	0.002114	0.004190	0.000267	0.228966	0.086597	0.969575	0.377522	-0.925978	-0.006449	0.897246	0.367513	-0.244710
29602	9.441758	-0.049889	-2.371475	0.001137	0.003026	0.001860	0.228979	0.086581	0.969573	0.377525	-0.925977	-0.006470	0.897242	0.367520	-0.244715
29603	9.441851	-0.049995	-2.371102	0.000786	0.004861	-0.000079	0.228965	0.086577	0.969577	0.377535	-0.925973	-0.006471	0.897242	0.367531	-0.244701
29604	9.409904	-0.045776	-2.382776	0.002114	0.004190	0.000267	0.228961	0.086571	0.969578	0.377550	-0.925967	-0.006479	0.897236	0.367548	-0.244695
29605	9.461638	-0.035624	-2.367774	-0.002576	0.004807	-0.000861	0.228943	0.086575	0.969582	0.377531	-0.925975	-0.006463	0.897249	0.367527	-0.244680
29606	9.437239	-0.037843	-2.401806	0.001137	0.003026	0.001860	0.228955	0.086559	0.969581	0.377533	-0.925973	-0.006484	0.897245	0.367534	-0.244686
29607	9.457350	-0.062989	-2.414213	0.001682	0.002561	-0.001503	0.228959	0.086577	0.969578	0.377547	-0.925968	-0.006472	0.897238	0.367544	-0.244696
29608	9.422243	-0.024887	-2.356695	-0.001952	0.002739	-0.000604	0.228965	0.086585	0.969576	0.377528	-0.925976	-0.006462	0.897245	0.367522	-0.244704
29609	9.449935	-0.056420	-2.391329	-0.001520	0.004368	0.001167	0.228963	0.086569	0.969578	0.377508	-0.925984	-0.006470	0.897254	0.367505	-0.244697
29610	9.410428	-0.045748	-2.380704	0.000786	0.004862	-0.000079	0.228952	0.086564	0.969581	0.377512	-0.925982	-0.006472	0.897255	0.367510	-0.244684
29611	9.464794	-0.029843	-2.419988	0.001682	0.002561	-0.001503	0.228951	0.086584	0.969580	0.377536	-0.925972	-0.006460	0.897245	0.367530	-0.244691
29612	9.418142	-0.052161	-2.402422	-0.000896	0.002300	0.001424	0.228969	0.086574	0.969576	0.377521	-0.925978	-0.006472	0.897246	0.367518	-0.244704
29613	9.430270	-0.031306	-2.377154	0.001139	0.008094	-0.001928	0.228922	0.086578	0.969587	0.377529	-0.925975	-0.006452	0.897255	0.367524	-0.244662
29614	9.435777	-0.082878	-2.359896	-0.000624	0.002068	-0.000257	0.228935	0.086585	0.969583	0.377521	-0.925979	-0.006448	0.897255	0.367514	-0.244676
29615	9.435360	-0.043483	-2.344507	0.001137	0.003026	0.001861	0.228943	0.086572	0.969583	0.377538	-0.925972	-0.006468	0.897246	0.367535	-0.244679
29616	9.425619	-0.019040	-2.408070	-0.003008	0.003178	-0.002633	0.228937	0.086596	0.969582	0.377513	-0.925982	-0.006436	0.897258	0.367504	-0.244683
29617	9.470242	-0.041791	-2.385943	0.000786	0.004862	-0.000078	0.228927	0.086591	0.969585	0.377520	-0.925979	-0.006439	0.897257	0.367512	-0.244671
29618	9.418714	-0.051943	-2.400183	0.001409	0.002794	0.000179	0.228935	0.086591	0.969583	0.377529	-0.925975	-0.006445	0.897252	0.367521	-0.244679
29619	9.418791	-0.052037	-2.399877	-0.000192	0.003697	0.001514	0.228939	0.086576	0.969583	0.377524	-0.925977	-0.006459	0.897253	0.367519	-0.244677
29620	9.443342	-0.049941	-2.365156	0.001409	0.002794	0.000179	0.228947	0.086576	0.969581	0.377533	-0.925974	-0.006464	0.897247	0.367528	-0.244684
29621	9.450991	-0.056412	-2.387155	0.000081	0.003465	-0.000168	0.228947	0.086578	0.969581	0.377528	-0.925976	-0.006461	0.897249	0.367523	-0.244685
29622	9.438610	-0.037614	-2.396417	0.001331	0.004397	-0.003442	0.228927	0.086605	0.969583	0.377544	-0.925969	-0.006432	0.897247	0.367533	-0.244677
29623	9.411525	-0.045443	-2.376369	0.002033	0.000726	0.000436	0.228954	0.086610	0.969577	0.377563	-0.925961	-0.006443	0.897233	0.367551	-0.244704
29624	9.470787	-0.041900	-2.383776	0.000513	0.005094	0.001604	0.228947	0.086589	0.969580	0.377561	-0.925962	-0.006460	0.897235	0.367554	-0.244689
29625	9.451299	-0.056269	-2.385937	-0.000351	0.001836	-0.001939	0.228954	0.086613	0.969576	0.377566	-0.925960	-0.006442	0.897231	0.367554	-0.244705
29626	9.424231	-0.064108	-2.365816	0.000786	0.004862	-0.000078	0.228943	0.086607	0.969579	0.377570	-0.925958	-0.006443	0.897232	0.367560	-0.244692
29627	9.434117	-0.025312	-2.426762	-0.001247	0.004136	-0.000515	0.228940	0.086607	0.969580	0.377544	-0.925969	-0.006435	0.897244	0.367533	-0.244690
29628	9.443996	-0.049570	-2.362554	0.000354	0.003233	-0.001849	0.228937	0.086624	0.969579	0.377548	-0.925968	-0.006419	0.897243	0.367533	-0.244693
29629	9.407138	-0.033031	-2.406298	0.000081	0.003465	-0.000168	0.228936	0.086626	0.969580	0.377551	-0.925967	-0.006417	0.897242	0.367535	-0.244692
29630	9.416990	-0.057385	-2.342177	-0.000624	0.002068	-0.000257	0.228949	0.086632	0.969576	0.377543	-0.925970	-0.006414	0.897243	0.367525	-0.244707
29631	9.471352	-0.041605	-2.381535	0.001136	0.003026	0.001861	0.228959	0.086618	0.969575	0.377552	-0.925966	-0.006434	0.897236	0.367538	-0.244711
29632	9.412237	-0.045186	-2.373553	-0.000701	0.003672	-0.003878	0.228944	0.086653	0.969575	0.377551	-0.925967	-0.006395	0.897240	0.367528	-0.244710
29633	9.444349	-0.049235	-2.361149	-0.000624	0.002068	-0.000257	0.228956	0.086662	0.969572	0.377547	-0.925968	-0.006390	0.897239	0.367522	-0.244725
29634	9.399926	-0.026363	-2.382554	-0.000816	0.005766	0.001257	0.228941	0.086641	0.969577	0.377533	-0.925974	-0.006400	0.897248	0.367513	-0.244703
29635	9.432075	-0.030589	-2.369995	0.000354	0.003233	-0.001849	0.228936	0.086660	0.969576	0.377541	-0.925971	-0.006382	0.897246	0.367516	-0.244706
29636	9.459766	-0.062020	-2.404752	-0.001328	0.000671	-0.000347	0.228961	0.086673	0.969569	0.377526	-0.925977	-0.006376	0.897246	0.367498	-0.244734
29637	9.432214	-0.030581	-2.369439	0.003250	0.007217	0.002131	0.228936	0.086639	0.969578	0.377552	-0.925966	-0.006405	0.897242	0.367533	-0.244697
29638	9.439912	-0.037153	-2.391290	-0.000624	0.002068	-0.000257	0.228949	0.086646	0.969575	0.377544	-0.925969	-0.006401	0.897242	0.367523	-0.244712
29639	9.440464	-0.076712	-2.406195	0.001136	0.003026	0.001862	0.228961	0.086631	0.969573	0.377548	-0.925968	-0.006421	0.897237	0.367530	-0.244718
29640	9.419995	-0.012126	-2.378076	-0.000974	0.003904	-0.002196	0.228950	0.086649	0.969574	0.377541	-0.925971	-0.006398	0.897243	0.367519	-0.244714
29641	9.433049	-0.070200	-2.383221	-0.000192	0.003698	0.001514	0.228956	0.086633	0.969574	0.377527	-0.925976	-0.006412	0.897247	0.367508	-0.244714
29642	9.413062	-0.045124	-2.370280	0.001683	0.002562	-0.001502	0.228960	0.086649	0.969572	0.377542	-0.925970	-0.006402	0.897240	0.367520	-0.244723
29643	9.415844	-0.039253	-2.424228	0.000354	0.003233	-0.001849	0.228958	0.086665	0.969571	0.377543	-0.925970	-0.006386	0.897240	0.367517	-0.244728
29644	9.428401	-0.057958	-2.414246	-0.000466	0.003930	0.003196	0.228967	0.086633	0.969571	0.377528	-0.925976	-0.006417	0.897244	0.367510	-0.244724
29645	9.460526	-0.062355	-2.401750	0.000081	0.003465	-0.000167	0.228965	0.086637	0.969572	0.377532	-0.925974	-0.006413	0.897243	0.367513	-0.244724
29646	9.440548	-0.036985	-2.388781	-0.000427	0.003440	-0.005559	0.228946	0.086687	0.969572	0.377538	-0.925972	-0.006359	0.897245	0.367506	-0.244725
29647	9.440648	-0.036724	-2.388390	0.000786	0.004862	-0.000077	0.228935	0.086684	0.969574	0.377536	-0.925973	-0.006358	0.897249	0.367505	-0.244714
29648	9.453217	-0.055441	-2.378346	0.003442	0.003520	0.000618	0.228939	0.086677	0.969574	0.377562	-0.925962	-0.006373	0.897237	0.367534	-0.244714
29649	9.401702	-0.065783	-2.392650	-0.000466	0.003930	0.003196	0.228949	0.086644	0.969575	0.377547	-0.925968	-0.006404	0.897241	0.367526	-0.244711
29650	9.440924	-0.037154	-2.387292	0.000081	0.003465	-0.000167	0.228950	0.086645	0.969575	0.377545	-0.925969	-0.006403	0.897241	0.367524	-0.244712
29651	9.429048	-0.058020	-2.411715	-0.001521	0.004369	0.001167	0.228946	0.086633	0.969576	0.377530	-0.925975	-0.006409	0.897249	0.367511	-0.244705
