// General information: 
//  MT Manager version: 2019.2.0 
//  XDA version: 2019.2.0 build 3853 rev 94535 built on 2019-09-09
// Device information: 
//  DeviceId: 00B44109
//  ProductCode: MTW2-3A7G6
//  Firmware Version: 4.3.5
//  Hardware Version: 1.1.0
// Device settings: 
//  Filter Profile: human(46.1)
//  Option Flags: Orientation Smoother Disabled, AHS Disabled, ICC Disabled
// Coordinate system: ENU
PacketCounter	Acc_X	Acc_Y	Acc_Z	Gyr_X	Gyr_Y	Gyr_Z	Mat[1][1]	Mat[2][1]	Mat[3][1]	Mat[1][2]	Mat[2][2]	Mat[3][2]	Mat[1][3]	Mat[2][3]	Mat[3][3]
28840	9.528432	-0.060754	-2.389680	0.000462	0.004526	-0.001675	0.245329	0.013600	0.969344	0.087556	-0.996126	-0.008184	0.965478	0.086880	-0.245570
28841	9.536912	-0.089407	-2.434963	0.000454	0.001385	-0.003085	0.245334	0.013610	0.969343	0.087566	-0.996125	-0.008176	0.965476	0.086887	-0.245575
28842	9.504718	-0.108427	-2.415448	-0.001060	0.001464	-0.003272	0.245338	0.013622	0.969342	0.087562	-0.996126	-0.008164	0.965475	0.086881	-0.245580
28843	9.536989	-0.088828	-2.434685	-0.001240	0.001538	-0.001756	0.245343	0.013619	0.969341	0.087552	-0.996126	-0.008165	0.965475	0.086871	-0.245585
28844	9.504832	-0.107848	-2.415026	0.000822	0.004378	-0.004707	0.245318	0.013643	0.969347	0.087569	-0.996125	-0.008142	0.965480	0.086882	-0.245562
28845	9.537137	-0.088229	-2.434124	0.000274	0.001459	-0.001569	0.245324	0.013638	0.969345	0.087573	-0.996125	-0.008149	0.965478	0.086888	-0.245567
28846	9.513604	-0.085596	-2.439987	0.000180	-0.000074	-0.001516	0.245344	0.013634	0.969340	0.087576	-0.996124	-0.008155	0.965472	0.086892	-0.245587
28847	9.537212	-0.087846	-2.433846	-0.000872	0.004530	-0.003378	0.245318	0.013644	0.969347	0.087574	-0.996125	-0.008142	0.965479	0.086886	-0.245562
28848	9.537270	-0.087717	-2.433624	-0.001694	0.000153	0.001329	0.245339	0.013612	0.969342	0.087551	-0.996126	-0.008171	0.965476	0.086872	-0.245580
28849	9.520207	-0.080578	-2.362609	0.000548	0.002919	-0.003138	0.245329	0.013621	0.969344	0.087562	-0.996126	-0.008163	0.965477	0.086880	-0.245571
28850	9.534386	-0.111521	-2.431581	-0.002753	0.001616	-0.001943	0.245334	0.013620	0.969343	0.087539	-0.996128	-0.008160	0.965478	0.086857	-0.245577
28851	9.516833	-0.060556	-2.440726	0.000094	0.001533	-0.000053	0.245341	0.013600	0.969342	0.087538	-0.996128	-0.008180	0.965477	0.086861	-0.245581
28852	9.531743	-0.084720	-2.409339	-0.004267	0.001695	-0.002131	0.245344	0.013600	0.969341	0.087500	-0.996131	-0.008171	0.965479	0.086822	-0.245585
28853	9.508249	-0.082102	-2.415048	0.001702	0.002988	0.000081	0.245336	0.013577	0.969343	0.087514	-0.996130	-0.008197	0.965480	0.086842	-0.245575
28854	9.540539	-0.062564	-2.434200	-0.004087	0.001621	-0.003647	0.245339	0.013593	0.969342	0.087481	-0.996133	-0.008173	0.965482	0.086804	-0.245580
28855	9.531896	-0.084196	-2.408752	0.001608	0.001455	0.000134	0.245346	0.013571	0.969340	0.087494	-0.996131	-0.008199	0.965479	0.086823	-0.245585
28856	9.531951	-0.083884	-2.408544	-0.002119	0.002928	-0.006544	0.245334	0.013615	0.969343	0.087487	-0.996132	-0.008152	0.965483	0.086805	-0.245576
28857	9.514161	-0.083260	-2.437895	0.000454	0.001385	-0.003085	0.245338	0.013625	0.969342	0.087497	-0.996131	-0.008144	0.965481	0.086812	-0.245581
28858	9.511239	-0.107248	-2.436010	0.001882	0.002914	-0.001435	0.245331	0.013617	0.969344	0.087517	-0.996130	-0.008157	0.965481	0.086835	-0.245573
28859	9.540796	-0.061200	-2.433228	0.000454	0.001385	-0.003085	0.245336	0.013627	0.969342	0.087527	-0.996129	-0.008149	0.965479	0.086843	-0.245579
28860	9.508599	-0.080289	-2.413733	0.001968	0.001307	-0.002898	0.245341	0.013635	0.969341	0.087550	-0.996127	-0.008147	0.965475	0.086865	-0.245585
28861	9.529232	-0.106610	-2.405907	-0.003993	0.003154	-0.003700	0.245329	0.013650	0.969344	0.087519	-0.996130	-0.008123	0.965481	0.086828	-0.245574
28862	9.543697	-0.086963	-2.454531	0.000008	0.003141	0.001410	0.245321	0.013614	0.969346	0.087513	-0.996130	-0.008158	0.965484	0.086832	-0.245563
28863	9.511760	-0.055573	-2.414690	0.001968	0.001307	-0.002897	0.245327	0.013622	0.969345	0.087537	-0.996128	-0.008156	0.965480	0.086854	-0.245569
28864	9.505887	-0.103706	-2.411051	-0.001052	0.004604	-0.001862	0.245303	0.013618	0.969351	0.087529	-0.996129	-0.008156	0.965487	0.086847	-0.245545
28865	9.506180	-0.052747	-2.390573	-0.001153	-0.000069	-0.003219	0.245322	0.013631	0.969346	0.087524	-0.996129	-0.008143	0.965483	0.086838	-0.245565
28866	9.532486	-0.081481	-2.406508	-0.001240	0.001538	-0.001756	0.245325	0.013628	0.969345	0.087513	-0.996130	-0.008144	0.965483	0.086828	-0.245569
28867	9.538235	-0.083625	-2.429984	-0.001240	0.001538	-0.001756	0.245330	0.013625	0.969344	0.087503	-0.996131	-0.008145	0.965483	0.086819	-0.245573
28868	9.532581	-0.081182	-2.406144	0.000188	0.003067	-0.000106	0.245322	0.013604	0.969346	0.087503	-0.996131	-0.008166	0.965484	0.086824	-0.245563
28869	9.538329	-0.083353	-2.429622	-0.001153	-0.000069	-0.003219	0.245341	0.013616	0.969341	0.087498	-0.996131	-0.008153	0.965480	0.086815	-0.245583
28870	9.491246	-0.078109	-2.441442	0.001968	0.001307	-0.002897	0.245346	0.013625	0.969340	0.087521	-0.996129	-0.008151	0.965477	0.086838	-0.245589
28871	9.558983	-0.109485	-2.421733	-0.002660	0.003149	-0.001997	0.245335	0.013623	0.969343	0.087498	-0.996131	-0.008146	0.965482	0.086814	-0.245578
28872	9.509197	-0.077697	-2.411462	0.002148	0.001234	-0.004413	0.245341	0.013647	0.969341	0.087527	-0.996129	-0.008129	0.965478	0.086837	-0.245586
28873	9.541464	-0.058032	-2.430683	-0.002753	0.001616	-0.001944	0.245345	0.013646	0.969340	0.087502	-0.996131	-0.008124	0.965479	0.086813	-0.245590
28874	9.506284	-0.101325	-2.409584	0.001874	-0.000226	-0.002844	0.245367	0.013655	0.969334	0.087526	-0.996129	-0.008123	0.965471	0.086835	-0.245612
28875	9.532838	-0.079415	-2.405184	-0.001146	0.003071	-0.001809	0.245357	0.013651	0.969337	0.087517	-0.996130	-0.008124	0.965474	0.086827	-0.245602
28876	9.517841	-0.105575	-2.456334	0.002155	0.004374	-0.003003	0.245334	0.013658	0.969342	0.087543	-0.996128	-0.008121	0.965478	0.086851	-0.245579
28877	9.533023	-0.078997	-2.404463	-0.004354	0.003301	-0.000669	0.245322	0.013643	0.969346	0.087500	-0.996131	-0.008125	0.965485	0.086811	-0.245567
28878	9.515209	-0.078663	-2.433954	0.001781	-0.001759	-0.002791	0.245357	0.013652	0.969337	0.087522	-0.996129	-0.008124	0.965474	0.086831	-0.245603
28879	9.506564	-0.100217	-2.408526	-0.000872	0.004531	-0.003378	0.245332	0.013663	0.969343	0.087519	-0.996130	-0.008110	0.965481	0.086826	-0.245578
28880	9.533172	-0.078343	-2.403896	0.000187	0.003067	-0.000106	0.245323	0.013642	0.969345	0.087519	-0.996130	-0.008131	0.965483	0.086831	-0.245568
28881	9.506694	-0.099900	-2.408026	0.000361	-0.000148	-0.003032	0.245343	0.013653	0.969340	0.087528	-0.996129	-0.008123	0.965477	0.086837	-0.245588
28882	9.556811	-0.080390	-2.397606	0.000641	0.004453	-0.003190	0.245318	0.013662	0.969346	0.087539	-0.996128	-0.008115	0.965482	0.086847	-0.245565
28883	9.533354	-0.077671	-2.403193	-0.001146	0.003071	-0.001809	0.245308	0.013658	0.969349	0.087530	-0.996129	-0.008116	0.965486	0.086838	-0.245554
28884	9.515562	-0.077269	-2.432617	-0.001153	-0.000070	-0.003219	0.245329	0.013671	0.969343	0.087525	-0.996129	-0.008103	0.965481	0.086830	-0.245576
28885	9.544886	-0.081698	-2.450084	0.000822	0.004379	-0.004706	0.245304	0.013695	0.969350	0.087543	-0.996128	-0.008080	0.965486	0.086841	-0.245553
28886	9.533502	-0.076878	-2.402633	-0.000181	0.000074	0.001516	0.245325	0.013661	0.969345	0.087534	-0.996128	-0.008115	0.965481	0.086841	-0.245571
28887	9.512747	-0.100831	-2.430391	0.003756	0.002689	-0.004278	0.245316	0.013682	0.969347	0.087578	-0.996125	-0.008104	0.965479	0.086882	-0.245564
28888	9.513000	-0.049815	-2.409926	-0.001059	0.001464	-0.003272	0.245320	0.013694	0.969345	0.087574	-0.996125	-0.008091	0.965479	0.086875	-0.245569
28889	9.515781	-0.076063	-2.431800	-0.001333	0.000004	-0.001704	0.245339	0.013691	0.969341	0.087563	-0.996126	-0.008093	0.965475	0.086864	-0.245588
28890	9.536409	-0.102442	-2.424033	-0.000966	0.002997	-0.003325	0.245328	0.013702	0.969343	0.087561	-0.996126	-0.008080	0.965478	0.086859	-0.245578
28891	9.510153	-0.073218	-2.407827	0.000274	0.001460	-0.001569	0.245334	0.013697	0.969342	0.087565	-0.996126	-0.008087	0.965476	0.086864	-0.245583
28892	9.539479	-0.077810	-2.425287	0.000548	0.002919	-0.003137	0.245324	0.013706	0.969344	0.087576	-0.996125	-0.008079	0.965477	0.086873	-0.245574
28893	9.513050	-0.099150	-2.429275	-0.003993	0.003153	-0.003701	0.245311	0.013721	0.969347	0.087544	-0.996128	-0.008055	0.965484	0.086836	-0.245562
28894	9.516027	-0.074778	-2.430877	0.001420	-0.001611	0.000241	0.245348	0.013700	0.969338	0.087555	-0.996127	-0.008082	0.965473	0.086853	-0.245597
28895	9.536656	-0.101279	-2.423112	-0.000872	0.004531	-0.003378	0.245322	0.013711	0.969345	0.087552	-0.996127	-0.008068	0.965480	0.086848	-0.245572
28896	9.539649	-0.076862	-2.424648	0.000087	-0.001607	-0.001463	0.245357	0.013707	0.969336	0.087554	-0.996127	-0.008075	0.965471	0.086850	-0.245606
28897	9.501696	-0.093734	-2.381692	-0.001240	0.001538	-0.001756	0.245361	0.013704	0.969335	0.087544	-0.996128	-0.008076	0.965471	0.086841	-0.245611
28898	9.557510	-0.076682	-2.394942	0.001788	0.001382	-0.001381	0.245368	0.013698	0.969333	0.087562	-0.996126	-0.008088	0.965467	0.086862	-0.245617
28899	9.489691	-0.095695	-2.434524	-0.002841	0.003223	-0.000481	0.245358	0.013680	0.969336	0.087534	-0.996129	-0.008098	0.965473	0.086836	-0.245605
28900	9.534073	-0.073873	-2.400462	0.002149	0.001235	-0.004412	0.245363	0.013703	0.969335	0.087564	-0.996126	-0.008083	0.965469	0.086862	-0.245612
28901	9.501863	-0.092984	-2.381055	-0.004541	0.000233	-0.000564	0.245381	0.013689	0.969330	0.087519	-0.996130	-0.008087	0.965468	0.086819	-0.245629
28902	9.545565	-0.078080	-2.447556	0.001968	0.001308	-0.002897	0.245387	0.013698	0.969329	0.087543	-0.996128	-0.008085	0.965464	0.086842	-0.245636
28903	9.534168	-0.073310	-2.400102	-0.003022	0.003296	0.001034	0.245377	0.013665	0.969332	0.087509	-0.996131	-0.008109	0.965470	0.086815	-0.245623
28904	9.531273	-0.097331	-2.398203	-0.001059	0.001464	-0.003272	0.245380	0.013677	0.969330	0.087504	-0.996131	-0.008096	0.965470	0.086807	-0.245628
28905	9.522173	-0.074992	-2.452924	-0.002573	0.001542	-0.003460	0.245383	0.013691	0.969329	0.087485	-0.996133	-0.008077	0.965471	0.086784	-0.245632
28906	9.516483	-0.072462	-2.429161	0.000093	0.001533	-0.000053	0.245390	0.013671	0.969328	0.087484	-0.996133	-0.008098	0.965469	0.086788	-0.245637
28907	9.540087	-0.074753	-2.422990	-0.000966	0.002997	-0.003325	0.245379	0.013683	0.969331	0.087481	-0.996133	-0.008084	0.965472	0.086781	-0.245627
28908	9.519968	-0.091598	-2.350401	-0.001245	-0.001603	-0.003167	0.245413	0.013697	0.969322	0.087473	-0.996134	-0.008071	0.965464	0.086770	-0.245662
28909	9.531464	-0.096022	-2.397497	0.000460	0.004527	-0.001674	0.245388	0.013690	0.969328	0.087479	-0.996134	-0.008077	0.965470	0.086778	-0.245637
28910	9.510958	-0.069376	-2.404759	0.000005	0.003141	0.001410	0.245379	0.013653	0.969331	0.087474	-0.996134	-0.008113	0.965473	0.086782	-0.245625
28911	9.516725	-0.071426	-2.428244	0.000904	-0.000368	-0.007579	0.245397	0.013710	0.969326	0.087499	-0.996132	-0.008062	0.965466	0.086794	-0.245647
28912	9.513810	-0.095306	-2.426450	0.003213	0.002912	0.000271	0.245389	0.013685	0.969328	0.087528	-0.996129	-0.008095	0.965465	0.086830	-0.245637
28913	9.511100	-0.068651	-2.404220	-0.002479	0.003075	-0.003513	0.245378	0.013698	0.969331	0.087510	-0.996131	-0.008076	0.965470	0.086808	-0.245627
28914	9.537471	-0.097422	-2.420061	0.000000	0.000000	0.000000	0.245378	0.013697	0.969331	0.087510	-0.996131	-0.008076	0.965469	0.086808	-0.245628
28915	9.511174	-0.068311	-2.403936	0.000548	0.002920	-0.003137	0.245368	0.013707	0.969333	0.087521	-0.996130	-0.008068	0.965471	0.086817	-0.245619
28916	9.531831	-0.094679	-2.396090	-0.002753	0.001615	-0.001945	0.245373	0.013706	0.969332	0.087496	-0.996132	-0.008063	0.965472	0.086791	-0.245623
28917	9.537622	-0.096908	-2.419487	0.001700	0.002989	0.000083	0.245365	0.013684	0.969334	0.087510	-0.996131	-0.008089	0.965473	0.086811	-0.245613
28918	9.505466	-0.116109	-2.399881	0.000729	0.002846	-0.004653	0.245353	0.013708	0.969337	0.087525	-0.996130	-0.008067	0.965475	0.086820	-0.245603
28919	9.543523	-0.098666	-2.442472	-0.000873	0.004531	-0.003378	0.245327	0.013719	0.969343	0.087523	-0.996130	-0.008053	0.965481	0.086815	-0.245578
28920	9.535088	-0.069582	-2.396553	0.000367	0.002993	-0.001621	0.245318	0.013713	0.969346	0.087528	-0.996129	-0.008059	0.965483	0.086822	-0.245569
28921	9.514390	-0.093464	-2.424245	-0.001240	0.001537	-0.001757	0.245322	0.013710	0.969345	0.087518	-0.996130	-0.008060	0.965483	0.086813	-0.245573
28922	9.535180	-0.069267	-2.396197	0.001788	0.001382	-0.001380	0.245329	0.013704	0.969343	0.087535	-0.996129	-0.008072	0.965480	0.086832	-0.245579
28923	9.508745	-0.090819	-2.400275	-0.002660	0.003148	-0.001998	0.245318	0.013702	0.969346	0.087512	-0.996131	-0.008067	0.965485	0.086809	-0.245568
28924	9.514504	-0.092954	-2.423818	0.000088	-0.001607	-0.001463	0.245353	0.013699	0.969337	0.087514	-0.996131	-0.008074	0.965476	0.086811	-0.245602
28925	9.517448	-0.068581	-2.425489	-0.002753	0.001615	-0.001945	0.245356	0.013697	0.969336	0.087490	-0.996133	-0.008069	0.965477	0.086787	-0.245606
28926	9.511707	-0.066069	-2.401887	0.004810	-0.001913	-0.002414	0.245394	0.013704	0.969327	0.087539	-0.996128	-0.008078	0.965463	0.086837	-0.245643
28927	9.514538	-0.092349	-2.423706	-0.000873	0.004531	-0.003378	0.245368	0.013714	0.969333	0.087537	-0.996129	-0.008065	0.965470	0.086831	-0.245618
28928	9.558767	-0.121232	-2.409814	-0.001421	0.001611	-0.000241	0.245373	0.013696	0.969332	0.087522	-0.996130	-0.008080	0.965470	0.086820	-0.245622
28929	9.520534	-0.043622	-2.426613	0.000455	0.001387	-0.003084	0.245378	0.013706	0.969331	0.087531	-0.996129	-0.008073	0.965468	0.086828	-0.245627
28930	9.514709	-0.091738	-2.423061	-0.001147	0.003071	-0.001809	0.245367	0.013702	0.969333	0.087523	-0.996130	-0.008074	0.965471	0.086820	-0.245617
28931	9.514745	-0.091596	-2.422922	0.001695	-0.000151	-0.001327	0.245389	0.013696	0.969328	0.087540	-0.996128	-0.008087	0.965464	0.086840	-0.245637
28932	9.541267	-0.069682	-2.418493	0.000548	0.002920	-0.003137	0.245378	0.013705	0.969331	0.087551	-0.996127	-0.008079	0.965466	0.086848	-0.245628
28933	9.509115	-0.088715	-2.398887	-0.003993	0.003152	-0.003702	0.245365	0.013720	0.969334	0.087519	-0.996130	-0.008054	0.965472	0.086811	-0.245617
28934	9.538424	-0.093297	-2.416462	0.001421	-0.001611	0.000241	0.245402	0.013699	0.969325	0.087530	-0.996129	-0.008081	0.965462	0.086828	-0.245651
28935	9.497094	-0.090628	-2.451939	-0.002660	0.003148	-0.001998	0.245391	0.013697	0.969327	0.087507	-0.996131	-0.008077	0.965467	0.086805	-0.245640
28936	9.538502	-0.092902	-2.416171	-0.001058	0.001464	-0.003272	0.245394	0.013709	0.969327	0.087502	-0.996132	-0.008064	0.965466	0.086797	-0.245644
28937	9.535732	-0.066015	-2.394093	0.000636	0.001313	-0.004600	0.245398	0.013734	0.969325	0.087517	-0.996131	-0.008042	0.965464	0.086806	-0.245650
28938	9.532796	-0.089887	-2.392435	-0.001425	-0.001530	-0.001651	0.245433	0.013733	0.969316	0.087505	-0.996132	-0.008043	0.965456	0.086794	-0.245685
28939	9.491447	-0.087083	-2.427994	0.000455	0.001387	-0.003084	0.245438	0.013743	0.969315	0.087515	-0.996131	-0.008036	0.965454	0.086802	-0.245691
28940	9.538596	-0.091804	-2.415841	-0.001328	0.003144	-0.000294	0.245427	0.013724	0.969318	0.087500	-0.996132	-0.008051	0.965458	0.086791	-0.245679
28941	9.512332	-0.062609	-2.399506	0.000822	0.004380	-0.004705	0.245402	0.013748	0.969324	0.087517	-0.996131	-0.008028	0.965463	0.086802	-0.245656
28942	9.547426	-0.069367	-2.440552	-0.002846	0.000081	-0.001893	0.245421	0.013748	0.969319	0.087491	-0.996133	-0.008024	0.965460	0.086776	-0.245675
28943	9.477247	-0.105622	-2.378250	0.001969	0.001310	-0.002896	0.245427	0.013756	0.969318	0.087515	-0.996131	-0.008022	0.965457	0.086799	-0.245681
28944	9.541733	-0.066616	-2.416740	0.000274	0.001460	-0.001568	0.245432	0.013751	0.969316	0.087520	-0.996130	-0.008029	0.965455	0.086805	-0.245685
28945	9.518126	-0.114687	-2.442773	-0.001147	0.003071	-0.001809	0.245421	0.013747	0.969319	0.087511	-0.996131	-0.008030	0.965459	0.086797	-0.245675
28946	9.518317	-0.063926	-2.422206	0.001699	0.002990	0.000083	0.245414	0.013725	0.969321	0.087524	-0.996130	-0.008055	0.965459	0.086816	-0.245665
28947	9.512509	-0.112212	-2.418656	-0.001240	0.001537	-0.001757	0.245418	0.013721	0.969320	0.087514	-0.996131	-0.008056	0.965459	0.086807	-0.245669
28948	9.509728	-0.085494	-2.396574	0.001969	0.001310	-0.002896	0.245425	0.013730	0.969318	0.087538	-0.996129	-0.008054	0.965455	0.086828	-0.245677
28949	9.509784	-0.085156	-2.396363	-0.003993	0.003152	-0.003702	0.245412	0.013745	0.969321	0.087506	-0.996132	-0.008029	0.965461	0.086792	-0.245666
28950	9.515554	-0.087145	-2.419911	0.001784	-0.001757	-0.002790	0.245447	0.013755	0.969312	0.087527	-0.996130	-0.008027	0.965450	0.086812	-0.245702
28951	9.504089	-0.082214	-2.372552	-0.000873	0.004531	-0.003378	0.245422	0.013766	0.969319	0.087525	-0.996130	-0.008014	0.965457	0.086806	-0.245677
28952	9.515665	-0.086593	-2.419490	-0.001240	0.001537	-0.001757	0.245426	0.013763	0.969318	0.087515	-0.996131	-0.008015	0.965457	0.086797	-0.245681
28953	9.539267	-0.088861	-2.413300	0.000366	0.002994	-0.001621	0.245416	0.013757	0.969320	0.087520	-0.996130	-0.008021	0.965459	0.086804	-0.245671
28954	9.518723	-0.062096	-2.420657	0.000366	0.002994	-0.001621	0.245407	0.013751	0.969322	0.087525	-0.996130	-0.008028	0.965461	0.086810	-0.245661
28955	9.533626	-0.086221	-2.389259	-0.001332	0.000004	-0.001704	0.245427	0.013749	0.969318	0.087514	-0.996131	-0.008029	0.965457	0.086800	-0.245681
28956	9.524530	-0.064038	-2.444064	0.001969	0.001310	-0.002895	0.245432	0.013757	0.969316	0.087538	-0.996129	-0.008027	0.965453	0.086822	-0.245687
28957	9.533679	-0.085823	-2.389063	0.000274	0.001460	-0.001568	0.245438	0.013752	0.969315	0.087542	-0.996128	-0.008033	0.965452	0.086827	-0.245691
28958	9.539450	-0.088005	-2.412609	0.000182	-0.000073	-0.001516	0.245458	0.013748	0.969310	0.087545	-0.996128	-0.008041	0.965446	0.086832	-0.245712
28959	9.548071	-0.116635	-2.458022	-0.002661	0.003148	-0.001998	0.245447	0.013746	0.969313	0.087522	-0.996130	-0.008036	0.965451	0.086809	-0.245700
28960	9.486702	-0.080387	-2.400585	-0.001240	0.001537	-0.001757	0.245453	0.013743	0.969311	0.087513	-0.996131	-0.008037	0.965450	0.086800	-0.245706
28961	9.539583	-0.087369	-2.412106	0.001969	0.001310	-0.002895	0.245459	0.013751	0.969310	0.087537	-0.996129	-0.008035	0.965447	0.086823	-0.245712
28962	9.521848	-0.087042	-2.441487	-0.001147	0.003071	-0.001809	0.245449	0.013747	0.969312	0.087528	-0.996130	-0.008037	0.965450	0.086815	-0.245702
28963	9.536789	-0.111162	-2.409942	0.000366	0.002994	-0.001621	0.245440	0.013741	0.969314	0.087533	-0.996129	-0.008043	0.965452	0.086822	-0.245692
28964	9.530658	-0.064824	-2.466271	0.001969	0.001310	-0.002895	0.245446	0.013749	0.969313	0.087558	-0.996127	-0.008042	0.965448	0.086845	-0.245700
28965	9.516257	-0.084175	-2.417248	0.000274	0.001460	-0.001568	0.245452	0.013744	0.969311	0.087562	-0.996127	-0.008048	0.965446	0.086850	-0.245705
28966	9.539841	-0.086313	-2.411123	-0.004085	0.001617	-0.003650	0.245456	0.013760	0.969310	0.087530	-0.996130	-0.008025	0.965448	0.086814	-0.245710
28967	9.492790	-0.081250	-2.422939	0.001606	0.001457	0.000136	0.245463	0.013738	0.969309	0.087543	-0.996128	-0.008051	0.965445	0.086833	-0.245715
28968	9.566298	-0.114908	-2.426803	-0.001058	0.001464	-0.003273	0.245468	0.013750	0.969307	0.087539	-0.996129	-0.008038	0.965444	0.086825	-0.245722
28969	9.492865	-0.080842	-2.422659	-0.001240	0.001537	-0.001757	0.245473	0.013747	0.969306	0.087529	-0.996130	-0.008039	0.965444	0.086816	-0.245726
28970	9.545752	-0.087828	-2.434161	-0.001240	0.001537	-0.001757	0.245477	0.013744	0.969305	0.087518	-0.996130	-0.008039	0.965444	0.086805	-0.245730
28971	9.516486	-0.082906	-2.416390	0.000274	0.001460	-0.001568	0.245483	0.013740	0.969304	0.087522	-0.996130	-0.008046	0.965442	0.086811	-0.245735
28972	9.516507	-0.082850	-2.416311	-0.003209	0.000227	0.001138	0.245503	0.013709	0.969299	0.087486	-0.996133	-0.008070	0.965440	0.086781	-0.245753
28973	9.540108	-0.085082	-2.410109	0.000822	0.004381	-0.004704	0.245478	0.013733	0.969305	0.087503	-0.996132	-0.008047	0.965445	0.086792	-0.245730
28974	9.501772	-0.058172	-2.447072	0.001606	0.001457	0.000136	0.245364	0.013659	0.969335	0.087584	-0.996124	-0.008134	0.965466	0.086894	-0.245609
28975	9.516710	-0.082458	-2.415522	-0.001237	0.004678	-0.000346	0.245339	0.013639	0.969341	0.087571	-0.996125	-0.008149	0.965474	0.086885	-0.245583
28976	9.548992	-0.062925	-2.434592	0.000182	-0.000073	-0.001516	0.245359	0.013635	0.969337	0.087573	-0.996125	-0.008155	0.965469	0.086889	-0.245602
28977	9.525466	-0.060354	-2.440511	0.000274	0.001460	-0.001568	0.245364	0.013630	0.969335	0.087577	-0.996124	-0.008162	0.965467	0.086894	-0.245607
28978	9.546147	-0.086821	-2.432649	0.000366	0.002994	-0.001621	0.245355	0.013624	0.969338	0.087582	-0.996124	-0.008168	0.965469	0.086901	-0.245597
28979	9.496268	-0.055247	-2.422466	0.000456	0.001387	-0.003084	0.245360	0.013634	0.969336	0.087592	-0.996123	-0.008160	0.965467	0.086908	-0.245603
28980	9.540477	-0.084089	-2.408684	-0.002935	0.001687	-0.000430	0.245364	0.013618	0.969335	0.087563	-0.996126	-0.008171	0.965468	0.086882	-0.245606
28981	9.534751	-0.081502	-2.384932	0.000638	0.001314	-0.004599	0.245369	0.013643	0.969334	0.087578	-0.996124	-0.008149	0.965466	0.086892	-0.245612
28982	9.525688	-0.059345	-2.439669	0.001606	0.001457	0.000136	0.245376	0.013621	0.969332	0.087591	-0.996123	-0.008176	0.965463	0.086911	-0.245617
28983	9.540588	-0.083632	-2.408262	-0.001422	0.001610	-0.000241	0.245381	0.013602	0.969331	0.087576	-0.996124	-0.008191	0.965463	0.086900	-0.245621
28984	9.514186	-0.105259	-2.412365	-0.001148	0.003071	-0.001810	0.245372	0.013598	0.969334	0.087566	-0.996125	-0.008192	0.965466	0.086891	-0.245612
28985	9.549402	-0.061440	-2.433020	-0.001148	0.003071	-0.001810	0.245361	0.013594	0.969336	0.087557	-0.996126	-0.008193	0.965470	0.086883	-0.245601
28986	9.511485	-0.078359	-2.389836	-0.001148	0.003071	-0.001810	0.245351	0.013590	0.969339	0.087548	-0.996127	-0.008194	0.965473	0.086874	-0.245590
28987	9.523077	-0.082796	-2.436836	-0.001240	0.001537	-0.001757	0.245355	0.013587	0.969338	0.087538	-0.996127	-0.008195	0.965473	0.086865	-0.245595
28988	9.540874	-0.082821	-2.407155	-0.003209	0.000226	0.001138	0.245375	0.013555	0.969333	0.087503	-0.996130	-0.008220	0.965471	0.086836	-0.245612
28989	9.496643	-0.104372	-2.441083	0.001878	-0.000223	-0.002842	0.245396	0.013565	0.969328	0.087526	-0.996128	-0.008218	0.965464	0.086858	-0.245633
28990	9.540894	-0.082387	-2.407090	-0.004085	0.001617	-0.003651	0.245397	0.013580	0.969328	0.087493	-0.996131	-0.008194	0.965466	0.086820	-0.245636
28991	9.514496	-0.103850	-2.411201	0.000366	0.002994	-0.001620	0.245388	0.013574	0.969330	0.087498	-0.996131	-0.008201	0.965468	0.086827	-0.245626
28992	9.517464	-0.079523	-2.412650	0.000274	0.001461	-0.001568	0.245395	0.013569	0.969328	0.087503	-0.996130	-0.008208	0.965466	0.086834	-0.245632
28993	9.520412	-0.055225	-2.414174	0.001788	0.001384	-0.001379	0.245401	0.013562	0.969327	0.087522	-0.996129	-0.008220	0.965463	0.086854	-0.245638
28994	9.520430	-0.054986	-2.414108	-0.002663	0.000007	-0.003409	0.245419	0.013577	0.969322	0.087503	-0.996131	-0.008202	0.965460	0.086831	-0.245657
28995	9.546851	-0.083641	-2.429996	0.000274	0.001461	-0.001568	0.245424	0.013572	0.969321	0.087507	-0.996130	-0.008209	0.965458	0.086837	-0.245662
28996	9.523345	-0.081076	-2.435848	0.000274	0.001461	-0.001568	0.245431	0.013567	0.969319	0.087511	-0.996130	-0.008216	0.965456	0.086842	-0.245668
28997	9.494068	-0.076196	-2.418093	0.000274	0.001461	-0.001568	0.245436	0.013562	0.969318	0.087515	-0.996129	-0.008222	0.965454	0.086848	-0.245673
28998	9.538299	-0.105079	-2.404235	0.000366	0.002994	-0.001620	0.245427	0.013556	0.969320	0.087520	-0.996129	-0.008229	0.965456	0.086854	-0.245664
28999	9.514832	-0.102457	-2.409937	-0.002661	0.003147	-0.001999	0.245416	0.013554	0.969323	0.087497	-0.996131	-0.008224	0.965461	0.086831	-0.245652
29000	9.512007	-0.075665	-2.387843	-0.001149	-0.000070	-0.003220	0.245435	0.013566	0.969318	0.087492	-0.996131	-0.008211	0.965457	0.086823	-0.245672
29001	9.544208	-0.106604	-2.427335	-0.002753	0.001613	-0.001946	0.245438	0.013565	0.969317	0.087468	-0.996134	-0.008207	0.965458	0.086798	-0.245676
29002	9.520767	-0.053278	-2.412817	-0.001148	0.003071	-0.001809	0.245429	0.013561	0.969320	0.087459	-0.996134	-0.008208	0.965461	0.086790	-0.245666
29003	9.541439	-0.079711	-2.405021	0.000182	-0.000073	-0.001516	0.245449	0.013557	0.969315	0.087462	-0.996134	-0.008215	0.965456	0.086795	-0.245686
29004	9.529481	-0.081705	-2.458097	0.000548	0.002921	-0.003136	0.245439	0.013566	0.969317	0.087474	-0.996133	-0.008207	0.965457	0.086804	-0.245677
29005	9.509327	-0.098723	-2.385320	-0.004357	0.003296	-0.000672	0.245428	0.013551	0.969320	0.087431	-0.996137	-0.008211	0.965464	0.086764	-0.245664
29006	9.523824	-0.079009	-2.434042	0.000182	-0.000073	-0.001516	0.245449	0.013546	0.969315	0.087435	-0.996136	-0.008220	0.965458	0.086770	-0.245685
29007	9.515179	-0.100738	-2.408637	0.000366	0.002995	-0.001620	0.245440	0.013540	0.969317	0.087440	-0.996136	-0.008226	0.965460	0.086776	-0.245675
29008	9.515218	-0.100611	-2.408489	-0.003027	0.000153	-0.000379	0.245459	0.013524	0.969313	0.087410	-0.996138	-0.008237	0.965458	0.086749	-0.245693
29009	9.521087	-0.052018	-2.411581	-0.000874	0.004532	-0.003377	0.245433	0.013534	0.969319	0.087408	-0.996139	-0.008223	0.965465	0.086744	-0.245668
29010	9.541799	-0.078349	-2.403638	-0.001239	0.001537	-0.001757	0.245437	0.013531	0.969318	0.087398	-0.996140	-0.008224	0.965465	0.086735	-0.245672
29011	9.518294	-0.075762	-2.409494	0.000274	0.001461	-0.001568	0.245442	0.013526	0.969317	0.087402	-0.996139	-0.008231	0.965463	0.086740	-0.245676
29012	9.550546	-0.106784	-2.448836	-0.002661	0.003147	-0.001999	0.245432	0.013524	0.969319	0.087379	-0.996141	-0.008226	0.965468	0.086717	-0.245667
29013	9.524224	-0.077672	-2.432519	0.000457	0.004528	-0.001672	0.245408	0.013517	0.969326	0.087385	-0.996141	-0.008232	0.965473	0.086725	-0.245642
29014	9.536261	-0.075464	-2.379084	-0.000182	0.000073	0.001516	0.245429	0.013482	0.969321	0.087378	-0.996141	-0.008269	0.965469	0.086726	-0.245660
29015	9.530078	-0.079933	-2.455840	0.001970	0.001312	-0.002894	0.245435	0.013490	0.969319	0.087402	-0.996139	-0.008267	0.965465	0.086749	-0.245666
29016	9.518572	-0.075030	-2.408420	-0.000965	0.002998	-0.003325	0.245426	0.013501	0.969321	0.087399	-0.996139	-0.008254	0.965468	0.086744	-0.245658
29017	9.539248	-0.101389	-2.400624	0.000182	-0.000073	-0.001516	0.245446	0.013497	0.969316	0.087402	-0.996139	-0.008261	0.965462	0.086748	-0.245678
29018	9.521524	-0.101099	-2.430100	0.002062	0.002846	-0.002946	0.245437	0.013504	0.969318	0.087428	-0.996137	-0.008260	0.965462	0.086773	-0.245669
29019	9.512935	-0.072053	-2.384257	-0.002661	0.003147	-0.001999	0.245426	0.013502	0.969321	0.087405	-0.996139	-0.008255	0.965467	0.086750	-0.245658
29020	9.515854	-0.098447	-2.406063	0.001513	-0.000076	0.000189	0.245447	0.013481	0.969316	0.087416	-0.996137	-0.008281	0.965461	0.086766	-0.245677
29021	9.518809	-0.074076	-2.407512	0.000822	0.004383	-0.004703	0.245421	0.013505	0.969323	0.087433	-0.996136	-0.008259	0.965466	0.086778	-0.245654
29022	9.524630	-0.076145	-2.430979	-0.001605	-0.001458	-0.000137	0.245456	0.013489	0.969314	0.087415	-0.996138	-0.008274	0.965459	0.086763	-0.245687
29023	9.524649	-0.076046	-2.430907	0.000366	0.002995	-0.001620	0.245446	0.013483	0.969316	0.087420	-0.996137	-0.008280	0.965460	0.086770	-0.245677
29024	9.518939	-0.073495	-2.407015	-0.000965	0.002998	-0.003325	0.245435	0.013493	0.969319	0.087417	-0.996137	-0.008268	0.965464	0.086764	-0.245667
29025	9.521883	-0.099692	-2.428749	-0.002753	0.001613	-0.001947	0.245439	0.013492	0.969318	0.087393	-0.996140	-0.008263	0.965465	0.086740	-0.245670
29026	9.542595	-0.075384	-2.400570	-0.001148	0.003071	-0.001809	0.245429	0.013488	0.969321	0.087384	-0.996140	-0.008264	0.965468	0.086731	-0.245660
29027	9.522000	-0.099267	-2.428310	-0.001239	0.001537	-0.001757	0.245433	0.013485	0.969320	0.087374	-0.996141	-0.008265	0.965468	0.086722	-0.245664
29028	9.519147	-0.072562	-2.406221	0.001970	0.001312	-0.002894	0.245438	0.013494	0.969318	0.087397	-0.996139	-0.008263	0.965464	0.086744	-0.245670
29029	9.519145	-0.072520	-2.406228	-0.000274	-0.001461	0.001568	0.245475	0.013460	0.969310	0.087389	-0.996140	-0.008298	0.965456	0.086744	-0.245703
29030	9.522054	-0.098871	-2.428114	0.000731	0.002849	-0.004651	0.245464	0.013484	0.969312	0.087405	-0.996139	-0.008276	0.965457	0.086754	-0.245695
29031	9.525008	-0.074249	-2.429556	-0.004084	0.001616	-0.003652	0.245466	0.013500	0.969311	0.087372	-0.996142	-0.008252	0.965460	0.086716	-0.245698
29032	9.519258	-0.071746	-2.405805	0.001605	0.001458	0.000137	0.245473	0.013478	0.969310	0.087385	-0.996140	-0.008279	0.965457	0.086736	-0.245703
29033	9.522187	-0.098122	-2.427621	0.000457	0.001388	-0.003083	0.245478	0.013488	0.969308	0.087395	-0.996139	-0.008272	0.965455	0.086743	-0.245709
29034	9.507386	-0.073622	-2.458679	0.000365	0.002995	-0.001620	0.245468	0.013483	0.969311	0.087400	-0.996139	-0.008277	0.965457	0.086749	-0.245699
29035	9.540067	-0.097933	-2.397509	0.000183	0.003068	-0.000104	0.245459	0.013462	0.969313	0.087400	-0.996139	-0.008298	0.965459	0.086754	-0.245688
29036	9.519495	-0.071265	-2.404882	0.000365	0.002995	-0.001620	0.245450	0.013455	0.969316	0.087404	-0.996138	-0.008305	0.965461	0.086761	-0.245678
29037	9.522447	-0.097613	-2.426622	0.000274	0.001461	-0.001568	0.245455	0.013450	0.969315	0.087409	-0.996138	-0.008311	0.965459	0.086767	-0.245683
29038	9.548936	-0.075549	-2.422058	0.000731	0.002849	-0.004651	0.245446	0.013475	0.969317	0.087425	-0.996137	-0.008290	0.965460	0.086778	-0.245676
29039	9.525469	-0.072998	-2.427783	-0.000000	0.003140	0.001411	0.245438	0.013439	0.969319	0.087420	-0.996137	-0.008324	0.965463	0.086781	-0.245664
29040	9.525526	-0.072897	-2.427565	-0.001056	0.001464	-0.003273	0.245442	0.013451	0.969318	0.087415	-0.996137	-0.008311	0.965462	0.086773	-0.245669
29041	9.516877	-0.094397	-2.402175	0.000640	0.001316	-0.004599	0.245446	0.013476	0.969317	0.087430	-0.996136	-0.008289	0.965460	0.086782	-0.245676
29042	9.522727	-0.096391	-2.425571	-0.001148	0.003071	-0.001810	0.245435	0.013472	0.969319	0.087422	-0.996137	-0.008291	0.965463	0.086774	-0.245665
29043	9.525675	-0.072007	-2.427005	-0.001239	0.001537	-0.001757	0.245440	0.013469	0.969318	0.087412	-0.996138	-0.008292	0.965463	0.086765	-0.245669
29044	9.525730	-0.071793	-2.426796	0.002062	0.002846	-0.002945	0.245431	0.013477	0.969320	0.087437	-0.996136	-0.008289	0.965463	0.086789	-0.245661
29045	9.520005	-0.069257	-2.402920	0.002062	0.002846	-0.002945	0.245422	0.013484	0.969323	0.087461	-0.996133	-0.008287	0.965463	0.086812	-0.245652
29046	9.537841	-0.119927	-2.393307	-0.003027	0.003292	0.001031	0.245411	0.013452	0.969326	0.087426	-0.996136	-0.008311	0.965469	0.086784	-0.245639
29047	9.511062	-0.097756	-2.477729	0.001788	-0.001755	-0.002789	0.245447	0.013462	0.969317	0.087448	-0.996134	-0.008309	0.965458	0.086804	-0.245675
29048	9.522987	-0.044632	-2.404214	-0.002753	0.001613	-0.001947	0.245452	0.013460	0.969315	0.087424	-0.996137	-0.008305	0.965459	0.086779	-0.245680
29049	9.517268	-0.092709	-2.400692	-0.000965	0.002998	-0.003325	0.245440	0.013472	0.969318	0.087420	-0.996137	-0.008291	0.965462	0.086773	-0.245670
29050	9.540864	-0.094840	-2.394461	-0.001239	0.001537	-0.001757	0.245445	0.013468	0.969317	0.087409	-0.996138	-0.008293	0.965462	0.086763	-0.245675
29051	9.526066	-0.070317	-2.425520	0.000548	0.002922	-0.003135	0.245435	0.013478	0.969319	0.087420	-0.996137	-0.008285	0.965463	0.086771	-0.245665
29052	9.514504	-0.065400	-2.378178	-0.001147	-0.000070	-0.003221	0.245455	0.013490	0.969314	0.087415	-0.996138	-0.008272	0.965459	0.086763	-0.245686
29053	9.552612	-0.098652	-2.441106	0.000456	0.004529	-0.001672	0.245430	0.013483	0.969320	0.087421	-0.996137	-0.008279	0.965464	0.086771	-0.245661
29054	9.488226	-0.086802	-2.381976	0.000365	0.002995	-0.001620	0.245421	0.013478	0.969323	0.087426	-0.996137	-0.008285	0.965466	0.086777	-0.245651
29055	9.523385	-0.093567	-2.423097	-0.001238	-0.001604	-0.003169	0.245454	0.013491	0.969314	0.087420	-0.996137	-0.008272	0.965458	0.086768	-0.245685
29056	9.499885	-0.090904	-2.428974	-0.001057	0.004605	-0.001862	0.245428	0.013487	0.969321	0.087411	-0.996138	-0.008272	0.965466	0.086760	-0.245659
29057	9.544120	-0.069005	-2.394691	-0.001239	0.001537	-0.001758	0.245433	0.013484	0.969320	0.087401	-0.996139	-0.008273	0.965466	0.086750	-0.245664
29058	9.482300	-0.090396	-2.458025	0.002153	0.004381	-0.002997	0.245409	0.013491	0.969326	0.087427	-0.996137	-0.008271	0.965469	0.086775	-0.245641
29059	9.541383	-0.092831	-2.392472	-0.001422	0.001609	-0.000242	0.245414	0.013472	0.969325	0.087412	-0.996138	-0.008286	0.965469	0.086764	-0.245644
29060	9.526568	-0.068311	-2.423607	0.000641	0.001316	-0.004598	0.245417	0.013497	0.969324	0.087428	-0.996137	-0.008265	0.965467	0.086774	-0.245649
29061	9.526623	-0.067930	-2.423401	-0.000965	0.002998	-0.003325	0.245406	0.013508	0.969326	0.087424	-0.996137	-0.008252	0.965470	0.086768	-0.245639
29062	9.529622	-0.094316	-2.445061	-0.000001	0.003140	0.001411	0.245396	0.013472	0.969329	0.087418	-0.996137	-0.008286	0.965473	0.086770	-0.245626
29063	9.515106	-0.063126	-2.375833	-0.001238	-0.001604	-0.003169	0.245430	0.013486	0.969321	0.087411	-0.996138	-0.008274	0.965465	0.086760	-0.245661
29064	9.550294	-0.069755	-2.416871	-0.002388	0.004607	-0.003567	0.245402	0.013498	0.969327	0.087395	-0.996140	-0.008254	0.965474	0.086740	-0.245634
29065	9.529740	-0.093652	-2.444629	0.000000	0.000000	0.000000	0.245402	0.013498	0.969327	0.087395	-0.996140	-0.008254	0.965474	0.086740	-0.245634
29066	9.523969	-0.091307	-2.420887	0.001878	0.002920	-0.001429	0.245394	0.013490	0.969330	0.087414	-0.996138	-0.008266	0.965474	0.086761	-0.245625
29067	9.521096	-0.064605	-2.398726	-0.001056	0.001464	-0.003273	0.245398	0.013502	0.969328	0.087409	-0.996138	-0.008253	0.965474	0.086754	-0.245630
29068	9.518254	-0.088483	-2.396941	0.000457	0.001389	-0.003083	0.245403	0.013512	0.969327	0.087419	-0.996138	-0.008245	0.965472	0.086761	-0.245636
29069	9.526993	-0.066339	-2.421989	0.002062	0.002847	-0.002945	0.245393	0.013520	0.969329	0.087444	-0.996135	-0.008243	0.965472	0.086785	-0.245627
29070	9.524153	-0.090286	-2.420201	-0.002843	0.000078	-0.001896	0.245413	0.013519	0.969324	0.087420	-0.996137	-0.008240	0.965469	0.086761	-0.245647
29071	9.547730	-0.092477	-2.414029	0.000365	0.002995	-0.001619	0.245404	0.013513	0.969327	0.087426	-0.996137	-0.008247	0.965471	0.086768	-0.245637
29072	9.518417	-0.087701	-2.396321	0.003210	-0.000223	-0.001135	0.245426	0.013505	0.969321	0.087457	-0.996134	-0.008265	0.965462	0.086802	-0.245658
29073	9.521329	-0.063468	-2.397831	-0.001332	0.003143	-0.000294	0.245416	0.013486	0.969324	0.087443	-0.996135	-0.008280	0.965466	0.086792	-0.245647
29074	9.503656	-0.063167	-2.427250	0.002154	0.001241	-0.004408	0.245420	0.013509	0.969323	0.087471	-0.996133	-0.008264	0.965462	0.086816	-0.245653
29075	9.547910	-0.091844	-2.413339	-0.001149	0.003071	-0.001810	0.245410	0.013505	0.969325	0.087462	-0.996134	-0.008265	0.965466	0.086808	-0.245642
29076	9.533116	-0.067398	-2.444401	0.000274	0.001461	-0.001567	0.245416	0.013500	0.969324	0.087466	-0.996133	-0.008272	0.965464	0.086813	-0.245648
29077	9.524468	-0.089089	-2.419006	-0.002753	0.001612	-0.001948	0.245419	0.013499	0.969323	0.087442	-0.996135	-0.008267	0.965465	0.086788	-0.245651
29078	9.542269	-0.088878	-2.389085	-0.000874	0.004532	-0.003377	0.245392	0.013509	0.969330	0.087439	-0.996136	-0.008253	0.965472	0.086783	-0.245625
29079	9.524618	-0.088506	-2.418437	0.001971	0.001314	-0.002892	0.245398	0.013517	0.969328	0.087463	-0.996134	-0.008251	0.965469	0.086805	-0.245631
29080	9.551065	-0.066364	-2.413915	-0.004083	0.001615	-0.003654	0.245401	0.013533	0.969327	0.087430	-0.996137	-0.008228	0.965471	0.086767	-0.245636
29081	9.506975	-0.087761	-2.447781	-0.001239	0.001537	-0.001758	0.245405	0.013529	0.969326	0.087420	-0.996138	-0.008229	0.965471	0.086758	-0.245640
29082	9.521865	-0.111838	-2.416358	-0.001239	0.001537	-0.001758	0.245411	0.013526	0.969325	0.087409	-0.996138	-0.008230	0.965470	0.086748	-0.245646
29083	9.524791	-0.087506	-2.417793	0.001878	0.002920	-0.001429	0.245402	0.013519	0.969327	0.087429	-0.996137	-0.008242	0.965471	0.086769	-0.245636
29084	9.519047	-0.085020	-2.393914	0.000548	0.002923	-0.003135	0.245393	0.013528	0.969329	0.087440	-0.996136	-0.008234	0.965472	0.086778	-0.245627
29085	9.522012	-0.111295	-2.415803	0.000093	-0.001606	-0.001463	0.245428	0.013525	0.969321	0.087442	-0.996136	-0.008241	0.965463	0.086782	-0.245662
29086	9.521915	-0.060482	-2.395578	0.000184	-0.000073	-0.001515	0.245448	0.013520	0.969315	0.087447	-0.996135	-0.008249	0.965457	0.086789	-0.245682
29087	9.548436	-0.089206	-2.411358	0.000365	0.002995	-0.001619	0.245439	0.013514	0.969318	0.087453	-0.996134	-0.008256	0.965459	0.086796	-0.245672
29088	9.501419	-0.084274	-2.423209	-0.001239	0.001537	-0.001758	0.245444	0.013511	0.969317	0.087443	-0.996135	-0.008257	0.965459	0.086787	-0.245676
29089	9.524994	-0.086386	-2.417033	-0.001056	0.001464	-0.003273	0.245447	0.013523	0.969316	0.087439	-0.996136	-0.008244	0.965458	0.086779	-0.245681
29090	9.542749	-0.086186	-2.387267	0.001971	0.001314	-0.002892	0.245452	0.013531	0.969314	0.087462	-0.996134	-0.008242	0.965455	0.086801	-0.245686
29091	9.501549	-0.083512	-2.422726	-0.001149	0.003071	-0.001810	0.245441	0.013527	0.969317	0.087453	-0.996135	-0.008243	0.965459	0.086793	-0.245676
29092	9.525162	-0.085662	-2.416397	-0.002662	0.003146	-0.002000	0.245430	0.013525	0.969320	0.087430	-0.996137	-0.008238	0.965464	0.086769	-0.245664
29093	9.525239	-0.085505	-2.416099	-0.001332	0.003143	-0.000294	0.245420	0.013506	0.969323	0.087415	-0.996138	-0.008253	0.965467	0.086759	-0.245653
29094	9.525259	-0.085309	-2.416027	-0.001236	-0.001604	-0.003169	0.245455	0.013520	0.969314	0.087409	-0.996138	-0.008240	0.965459	0.086749	-0.245688
29095	9.557500	-0.065552	-2.435169	0.000365	0.002996	-0.001619	0.245445	0.013514	0.969316	0.087414	-0.996138	-0.008247	0.965461	0.086756	-0.245678
29096	9.507656	-0.084744	-2.445239	-0.000875	0.004532	-0.003377	0.245418	0.013524	0.969323	0.087410	-0.996138	-0.008233	0.965468	0.086749	-0.245653
29097	9.554785	-0.089255	-2.432951	0.000184	-0.000072	-0.001515	0.245439	0.013520	0.969318	0.087414	-0.996138	-0.008240	0.965463	0.086754	-0.245673
29098	9.534132	-0.062520	-2.440565	-0.001239	0.001537	-0.001758	0.245445	0.013516	0.969316	0.087404	-0.996139	-0.008242	0.965462	0.086745	-0.245679
29099	9.528364	-0.060082	-2.416754	0.001878	0.002921	-0.001429	0.245436	0.013509	0.969319	0.087423	-0.996137	-0.008254	0.965463	0.086766	-0.245669
29100	9.552033	-0.113015	-2.430886	0.000184	-0.000072	-0.001515	0.245458	0.013504	0.969313	0.087428	-0.996137	-0.008262	0.965457	0.086773	-0.245690
29101	9.507762	-0.033163	-2.424163	-0.000965	0.002998	-0.003325	0.245447	0.013515	0.969316	0.087424	-0.996137	-0.008248	0.965460	0.086766	-0.245680
29102	9.546323	-0.110237	-2.406863	0.000364	0.002996	-0.001619	0.245437	0.013509	0.969318	0.087430	-0.996136	-0.008255	0.965462	0.086774	-0.245670
29103	9.502186	-0.081155	-2.420303	0.000364	0.002996	-0.001619	0.245427	0.013503	0.969321	0.087435	-0.996136	-0.008262	0.965464	0.086781	-0.245659
29104	9.555140	-0.088023	-2.431603	-0.001239	0.001537	-0.001758	0.245432	0.013500	0.969320	0.087425	-0.996137	-0.008262	0.965464	0.086771	-0.245664
29105	9.517147	-0.105013	-2.388593	0.000548	0.002923	-0.003134	0.245422	0.013509	0.969322	0.087436	-0.996136	-0.008255	0.965465	0.086779	-0.245655
29106	9.531716	-0.085195	-2.437223	0.000274	0.001462	-0.001567	0.245429	0.013504	0.969321	0.087440	-0.996136	-0.008262	0.965463	0.086785	-0.245661
29107	9.520098	-0.080466	-2.389889	0.000274	0.001462	-0.001567	0.245434	0.013499	0.969319	0.087445	-0.996135	-0.008269	0.965461	0.086791	-0.245666
29108	9.534669	-0.060760	-2.438509	-0.001333	0.003143	-0.000295	0.245424	0.013480	0.969322	0.087430	-0.996136	-0.008284	0.965465	0.086781	-0.245655
29109	9.523199	-0.106648	-2.411332	-0.000965	0.002998	-0.003325	0.245413	0.013491	0.969325	0.087426	-0.996137	-0.008270	0.965468	0.086774	-0.245645
29110	9.526132	-0.082215	-2.412690	0.000364	0.002996	-0.001619	0.245403	0.013486	0.969327	0.087432	-0.996136	-0.008276	0.965470	0.086781	-0.245634
29111	9.532016	-0.084321	-2.436081	0.001972	0.001315	-0.002892	0.245409	0.013494	0.969326	0.087455	-0.996134	-0.008274	0.965467	0.086803	-0.245640
29112	9.526241	-0.081717	-2.412275	-0.002478	0.003073	-0.003516	0.245397	0.013507	0.969328	0.087437	-0.996136	-0.008255	0.965471	0.086781	-0.245630
29113	9.526317	-0.081349	-2.411988	-0.000965	0.002998	-0.003325	0.245386	0.013519	0.969331	0.087434	-0.996136	-0.008241	0.965474	0.086775	-0.245620
29114	9.529368	-0.107589	-2.433655	0.000364	0.002996	-0.001619	0.245376	0.013513	0.969334	0.087440	-0.996136	-0.008248	0.965477	0.086782	-0.245609
29115	9.573518	-0.085713	-2.399386	-0.002937	0.001683	-0.000434	0.245380	0.013496	0.969333	0.087410	-0.996138	-0.008258	0.965478	0.086756	-0.245612
29116	9.505808	-0.054293	-2.419022	0.000274	0.001462	-0.001567	0.245386	0.013492	0.969332	0.087415	-0.996138	-0.008264	0.965476	0.086762	-0.245617
29117	9.550058	-0.082934	-2.405151	0.000642	0.001317	-0.004598	0.245390	0.013517	0.969330	0.087430	-0.996137	-0.008243	0.965474	0.086772	-0.245623
29118	9.523707	-0.104379	-2.409424	-0.001055	0.001464	-0.003273	0.245394	0.013529	0.969329	0.087426	-0.996137	-0.008229	0.965473	0.086764	-0.245628
29119	9.526635	-0.079848	-2.410782	-0.000875	0.004532	-0.003377	0.245368	0.013540	0.969336	0.087424	-0.996137	-0.008216	0.965480	0.086759	-0.245604
29120	9.532544	-0.081923	-2.434095	0.001788	0.001387	-0.001376	0.245374	0.013533	0.969334	0.087443	-0.996136	-0.008228	0.965477	0.086780	-0.245609
29121	9.497394	-0.074808	-2.392739	-0.002662	0.003145	-0.002001	0.245363	0.013531	0.969337	0.087420	-0.996138	-0.008223	0.965482	0.086757	-0.245598
29122	9.541667	-0.103528	-2.378778	0.000274	0.001462	-0.001567	0.245368	0.013526	0.969336	0.087424	-0.996137	-0.008229	0.965480	0.086763	-0.245603
29123	9.521002	-0.076762	-2.386407	0.000368	-0.000145	-0.003031	0.245387	0.013537	0.969331	0.087433	-0.996136	-0.008222	0.965474	0.086769	-0.245623
29124	9.532732	-0.081169	-2.433382	-0.001243	0.004677	-0.000346	0.245364	0.013517	0.969337	0.087421	-0.996137	-0.008238	0.965481	0.086761	-0.245598
29125	9.556344	-0.083373	-2.427032	-0.002752	0.001611	-0.001949	0.245367	0.013515	0.969336	0.087397	-0.996140	-0.008234	0.965483	0.086737	-0.245601
29126	9.524124	-0.102622	-2.407850	-0.001235	-0.001604	-0.003170	0.245403	0.013529	0.969327	0.087391	-0.996140	-0.008221	0.965474	0.086728	-0.245638
29127	9.524164	-0.102230	-2.407706	-0.003902	0.004682	-0.003759	0.245375	0.013543	0.969334	0.087360	-0.996143	-0.008197	0.965484	0.086692	-0.245612
29128	9.509394	-0.077792	-2.438705	0.003117	0.001385	0.000330	0.245383	0.013520	0.969332	0.087387	-0.996140	-0.008228	0.965480	0.086726	-0.245618
29129	9.529990	-0.053557	-2.410487	-0.000965	0.002998	-0.003325	0.245372	0.013531	0.969335	0.087383	-0.996141	-0.008215	0.965483	0.086719	-0.245608
29130	9.524349	-0.101657	-2.407001	0.001972	0.001315	-0.002891	0.245378	0.013540	0.969333	0.087407	-0.996139	-0.008212	0.965479	0.086741	-0.245614
29131	9.527232	-0.077252	-2.408505	-0.001239	0.001536	-0.001758	0.245383	0.013536	0.969332	0.087397	-0.996140	-0.008213	0.965479	0.086732	-0.245619
29132	9.533111	-0.079229	-2.431964	0.000643	0.001318	-0.004598	0.245386	0.013562	0.969331	0.087412	-0.996139	-0.008191	0.965477	0.086741	-0.245624
29133	9.530321	-0.103180	-2.430112	-0.001334	0.003143	-0.000295	0.245376	0.013543	0.969333	0.087398	-0.996140	-0.008206	0.965480	0.086731	-0.245612
29134	9.533205	-0.078887	-2.431606	0.000184	-0.000072	-0.001515	0.245396	0.013539	0.969328	0.087401	-0.996139	-0.008213	0.965475	0.086735	-0.245632
29135	9.530398	-0.102882	-2.429821	-0.002663	0.003145	-0.002001	0.245384	0.013537	0.969331	0.087377	-0.996141	-0.008208	0.965480	0.086712	-0.245620
29136	9.533299	-0.078378	-2.431251	0.002156	0.001243	-0.004406	0.245390	0.013561	0.969330	0.087407	-0.996139	-0.008192	0.965476	0.086736	-0.245627
29137	9.551043	-0.078164	-2.401394	-0.001149	0.003070	-0.001810	0.245379	0.013557	0.969332	0.087398	-0.996140	-0.008193	0.965480	0.086728	-0.245617
29138	9.504052	-0.073183	-2.413221	-0.000965	0.002998	-0.003325	0.245369	0.013567	0.969335	0.087395	-0.996140	-0.008180	0.965482	0.086722	-0.245607
29139	9.524799	-0.099462	-2.405309	-0.001239	0.001536	-0.001758	0.245373	0.013564	0.969334	0.087385	-0.996141	-0.008181	0.965482	0.086713	-0.245611
29140	9.510011	-0.074861	-2.436388	-0.000780	0.002926	-0.004840	0.245362	0.013590	0.969336	0.087387	-0.996141	-0.008154	0.965485	0.086708	-0.245602
29141	9.521924	-0.072431	-2.382860	0.001693	0.002994	0.000088	0.245354	0.013567	0.969339	0.087401	-0.996140	-0.008180	0.965486	0.086728	-0.245592
29142	9.536533	-0.052899	-2.431392	-0.000005	0.003140	0.001412	0.245346	0.013531	0.969341	0.087396	-0.996140	-0.008215	0.965488	0.086732	-0.245581
29143	9.527900	-0.074706	-2.405942	-0.001054	0.001464	-0.003273	0.245350	0.013543	0.969340	0.087391	-0.996140	-0.008202	0.965488	0.086724	-0.245586
29144	9.516123	-0.076694	-2.458967	-0.002847	0.003217	-0.000486	0.245339	0.013526	0.969343	0.087362	-0.996143	-0.008211	0.965493	0.086698	-0.245575
29145	9.542840	-0.098518	-2.374280	-0.001144	-0.000070	-0.003222	0.245358	0.013539	0.969338	0.087356	-0.996143	-0.008198	0.965489	0.086689	-0.245594
29146	9.507512	-0.098111	-2.433448	-0.001149	0.003071	-0.001810	0.245347	0.013535	0.969341	0.087347	-0.996144	-0.008199	0.965492	0.086681	-0.245583
29147	9.533940	-0.076127	-2.428810	0.001788	0.001388	-0.001376	0.245353	0.013528	0.969339	0.087365	-0.996142	-0.008211	0.965489	0.086701	-0.245589
29148	9.533975	-0.075941	-2.428677	0.000459	0.001390	-0.003082	0.245357	0.013538	0.969338	0.087374	-0.996142	-0.008203	0.965487	0.086708	-0.245593
29149	9.525342	-0.097680	-2.403231	-0.001334	0.003143	-0.000295	0.245347	0.013519	0.969341	0.087360	-0.996143	-0.008218	0.965491	0.086698	-0.245582
29150	9.510574	-0.073176	-2.434239	0.000733	0.002852	-0.004649	0.245335	0.013544	0.969344	0.087376	-0.996142	-0.008196	0.965493	0.086708	-0.245572
29151	9.534180	-0.075381	-2.427889	-0.000006	0.003140	0.001412	0.245327	0.013508	0.969346	0.087370	-0.996142	-0.008231	0.965495	0.086711	-0.245561
29152	9.528367	-0.073041	-2.404145	-0.002842	0.000076	-0.001898	0.245346	0.013507	0.969341	0.087345	-0.996144	-0.008227	0.965493	0.086685	-0.245580
29153	9.510690	-0.072751	-2.433800	-0.001329	0.000002	-0.001707	0.245366	0.013505	0.969337	0.087334	-0.996145	-0.008228	0.965489	0.086675	-0.245599
29154	9.534241	-0.074862	-2.427669	0.000459	0.001390	-0.003082	0.245370	0.013515	0.969335	0.087343	-0.996144	-0.008220	0.965487	0.086682	-0.245604
29155	9.531442	-0.098816	-2.425894	-0.001239	0.001536	-0.001758	0.245374	0.013512	0.969334	0.087333	-0.996145	-0.008221	0.965487	0.086672	-0.245608
29156	9.525645	-0.096336	-2.402084	-0.001150	0.003071	-0.001810	0.245364	0.013508	0.969337	0.087324	-0.996146	-0.008223	0.965490	0.086664	-0.245598
29157	9.534391	-0.074251	-2.427095	0.000274	0.001462	-0.001567	0.245369	0.013503	0.969336	0.087329	-0.996146	-0.008229	0.965488	0.086670	-0.245603
29158	9.534391	-0.074014	-2.427102	-0.001233	-0.001604	-0.003170	0.245403	0.013517	0.969327	0.087322	-0.996146	-0.008216	0.965480	0.086660	-0.245638
29159	9.519922	-0.093308	-2.377999	-0.000696	0.007601	-0.003480	0.245348	0.013526	0.969341	0.087322	-0.996146	-0.008202	0.965494	0.086657	-0.245583
29160	9.508213	-0.095303	-2.430822	0.001788	0.001388	-0.001375	0.245353	0.013519	0.969340	0.087340	-0.996145	-0.008214	0.965491	0.086677	-0.245588
29161	9.511063	-0.070996	-2.432393	0.000185	-0.000072	-0.001515	0.245373	0.013514	0.969335	0.087343	-0.996144	-0.008221	0.965486	0.086682	-0.245607
29162	9.552287	-0.073265	-2.396598	0.000274	0.001462	-0.001567	0.245379	0.013510	0.969333	0.087347	-0.996144	-0.008228	0.965484	0.086687	-0.245613
29163	9.508303	-0.094933	-2.430483	0.001877	0.002922	-0.001427	0.245371	0.013502	0.969335	0.087366	-0.996142	-0.008240	0.965484	0.086709	-0.245604
29164	9.526031	-0.095020	-2.400606	-0.000095	0.001606	0.001464	0.245378	0.013467	0.969334	0.087361	-0.996142	-0.008275	0.965483	0.086712	-0.245608
29165	9.537628	-0.048767	-2.427181	0.000823	0.004387	-0.004700	0.245353	0.013491	0.969340	0.087378	-0.996141	-0.008253	0.965488	0.086724	-0.245585
29166	9.520300	-0.092451	-2.376517	-0.000185	0.000072	0.001515	0.245374	0.013456	0.969335	0.087370	-0.996141	-0.008288	0.965483	0.086724	-0.245603
29167	9.532036	-0.096967	-2.423631	0.001973	0.001316	-0.002890	0.245380	0.013464	0.969334	0.087394	-0.996139	-0.008286	0.965480	0.086747	-0.245609
29168	9.508560	-0.094368	-2.429499	0.000549	0.002924	-0.003134	0.245370	0.013475	0.969336	0.087402	-0.996139	-0.008277	0.965481	0.086753	-0.245600
29169	9.534997	-0.072246	-2.424775	-0.002663	0.003144	-0.002002	0.245359	0.013472	0.969339	0.087379	-0.996141	-0.008272	0.965486	0.086730	-0.245589
29170	9.532225	-0.096144	-2.422921	-0.001054	0.001464	-0.003274	0.245362	0.013484	0.969338	0.087374	-0.996141	-0.008259	0.965486	0.086722	-0.245593
29171	9.526402	-0.093597	-2.399189	-0.001239	0.001536	-0.001758	0.245366	0.013481	0.969337	0.087364	-0.996142	-0.008260	0.965486	0.086712	-0.245597
29172	9.529268	-0.069093	-2.400688	0.000644	0.001318	-0.004597	0.245371	0.013507	0.969335	0.087379	-0.996141	-0.008239	0.965483	0.086721	-0.245605
29173	9.526475	-0.093005	-2.398921	0.000274	0.001462	-0.001567	0.245377	0.013502	0.969334	0.087383	-0.996141	-0.008245	0.965481	0.086727	-0.245610
29174	9.526513	-0.092905	-2.398775	-0.001424	0.001608	-0.000243	0.245373	0.013582	0.969334	0.087510	-0.996130	-0.008195	0.965471	0.086838	-0.245612
29175	9.499983	-0.063810	-2.382761	0.002343	0.001173	-0.005920	0.245377	0.013620	0.969332	0.087545	-0.996127	-0.008164	0.965467	0.086864	-0.245619
29176	9.532468	-0.094547	-2.422029	-0.001150	0.003070	-0.001810	0.245367	0.013617	0.969335	0.087538	-0.996128	-0.008165	0.965470	0.086857	-0.245609
29177	9.538390	-0.096626	-2.445400	-0.001239	0.001536	-0.001758	0.245372	0.013614	0.969333	0.087528	-0.996129	-0.008166	0.965470	0.086847	-0.245613
29178	9.532581	-0.094134	-2.421601	0.002062	0.002851	-0.002942	0.245364	0.013622	0.969335	0.087553	-0.996126	-0.008164	0.965469	0.086871	-0.245606
29179	9.503260	-0.089276	-2.403803	-0.002663	0.003144	-0.002002	0.245352	0.013620	0.969338	0.087530	-0.996128	-0.008159	0.965474	0.086848	-0.245595
29180	9.512027	-0.067062	-2.428736	-0.000965	0.002998	-0.003325	0.245342	0.013633	0.969341	0.087528	-0.996129	-0.008144	0.965477	0.086842	-0.245585
29181	9.553515	-0.119923	-2.413022	-0.001335	0.003142	-0.000295	0.245332	0.013614	0.969343	0.087513	-0.996130	-0.008159	0.965481	0.086832	-0.245574
29182	9.503449	-0.088680	-2.403077	0.000185	-0.000072	-0.001515	0.245353	0.013610	0.969338	0.087516	-0.996130	-0.008166	0.965476	0.086836	-0.245594
29183	9.559216	-0.071248	-2.416081	0.001973	0.001317	-0.002890	0.245358	0.013618	0.969337	0.087540	-0.996128	-0.008163	0.965472	0.086859	-0.245600
29184	9.512248	-0.066390	-2.427887	0.000542	0.006065	-0.001721	0.245318	0.013610	0.969347	0.087548	-0.996127	-0.008170	0.965482	0.086868	-0.245559
29185	9.541741	-0.070896	-2.445030	-0.001424	0.001608	-0.000243	0.245323	0.013592	0.969346	0.087532	-0.996128	-0.008185	0.965482	0.086857	-0.245562
29186	9.530056	-0.066199	-2.397641	0.002062	0.002851	-0.002941	0.245314	0.013599	0.969348	0.087558	-0.996126	-0.008184	0.965482	0.086882	-0.245554
29187	9.500938	-0.111973	-2.400250	-0.001054	0.001464	-0.003274	0.245318	0.013611	0.969347	0.087554	-0.996126	-0.008170	0.965481	0.086875	-0.245559
29188	9.541928	-0.070267	-2.444319	-0.001246	0.004676	-0.000347	0.245293	0.013591	0.969354	0.087541	-0.996127	-0.008186	0.965489	0.086866	-0.245533
29189	9.539145	-0.094362	-2.442540	0.000096	-0.001606	-0.001464	0.245328	0.013588	0.969345	0.087543	-0.996127	-0.008193	0.965479	0.086869	-0.245567
29190	9.512545	-0.065280	-2.426754	0.000556	-0.000216	-0.004545	0.245346	0.013614	0.969340	0.087557	-0.996126	-0.008171	0.965474	0.086877	-0.245587
29191	9.539185	-0.093787	-2.442408	-0.004273	0.004824	-0.000731	0.245319	0.013598	0.969347	0.087515	-0.996130	-0.008175	0.965484	0.086838	-0.245560
29192	9.527516	-0.089078	-2.394935	0.000274	0.001462	-0.001567	0.245326	0.013592	0.969345	0.087522	-0.996129	-0.008182	0.965482	0.086846	-0.245566
29193	9.527553	-0.088768	-2.394800	-0.000868	0.001392	-0.004789	0.245329	0.013620	0.969344	0.087523	-0.996129	-0.008155	0.965481	0.086840	-0.245572
29194	9.527609	-0.088430	-2.394588	-0.001150	0.003070	-0.001810	0.245320	0.013615	0.969346	0.087517	-0.996130	-0.008157	0.965484	0.086835	-0.245563
29195	9.506973	-0.061705	-2.402012	-0.001150	0.003070	-0.001810	0.245310	0.013612	0.969349	0.087508	-0.996130	-0.008158	0.965487	0.086827	-0.245552
29196	9.536694	-0.116731	-2.439554	0.000549	0.002925	-0.003133	0.245299	0.013621	0.969352	0.087517	-0.996130	-0.008149	0.965489	0.086834	-0.245542
29197	9.527776	-0.087776	-2.393948	0.000097	-0.001606	-0.001464	0.245334	0.013618	0.969343	0.087520	-0.996129	-0.008156	0.965480	0.086838	-0.245576
29198	9.524691	-0.068031	-2.472432	0.001602	0.001461	0.000141	0.245339	0.013596	0.969342	0.087532	-0.996128	-0.008182	0.965477	0.086855	-0.245580
29199	9.507363	-0.111635	-2.421784	-0.002292	0.003000	-0.005032	0.245327	0.013625	0.969345	0.087520	-0.996129	-0.008149	0.965482	0.086836	-0.245570
29200	9.560070	-0.067630	-2.412804	-0.000089	-0.001534	0.000051	0.245362	0.013606	0.969336	0.087516	-0.996130	-0.008170	0.965473	0.086837	-0.245603
29201	9.527868	-0.087085	-2.393607	0.000549	0.002925	-0.003133	0.245351	0.013615	0.969339	0.087526	-0.996129	-0.008163	0.965475	0.086845	-0.245593
29202	9.533801	-0.089047	-2.416984	-0.001053	0.001464	-0.003274	0.245355	0.013628	0.969337	0.087522	-0.996129	-0.008149	0.965474	0.086838	-0.245598
29203	9.527963	-0.086549	-2.393250	-0.002938	0.001681	-0.000436	0.245360	0.013611	0.969337	0.087492	-0.996132	-0.008159	0.965476	0.086811	-0.245601
29204	9.536692	-0.064427	-2.418320	0.000460	0.001391	-0.003082	0.245363	0.013621	0.969336	0.087501	-0.996131	-0.008151	0.965474	0.086817	-0.245606
29205	9.531123	-0.112649	-2.414846	-0.001336	0.003142	-0.000295	0.245353	0.013602	0.969338	0.087486	-0.996132	-0.008166	0.965478	0.086807	-0.245594
29206	9.542703	-0.066424	-2.441398	0.000363	0.002997	-0.001618	0.245344	0.013596	0.969341	0.087491	-0.996132	-0.008172	0.965480	0.086814	-0.245584
29207	9.504678	-0.083414	-2.398402	-0.002292	0.003000	-0.005032	0.245331	0.013625	0.969344	0.087479	-0.996133	-0.008139	0.965484	0.086794	-0.245574
29208	9.534126	-0.087714	-2.415753	-0.001513	0.000073	-0.000192	0.245351	0.013608	0.969339	0.087463	-0.996134	-0.008154	0.965481	0.086782	-0.245593
29209	9.510637	-0.085333	-2.421692	-0.001336	0.003142	-0.000295	0.245342	0.013589	0.969341	0.087449	-0.996136	-0.008169	0.965484	0.086772	-0.245582
29210	9.510712	-0.085161	-2.421403	0.000549	0.002925	-0.003133	0.245331	0.013598	0.969344	0.087459	-0.996135	-0.008161	0.965486	0.086780	-0.245572
29211	9.540197	-0.089510	-2.438612	-0.001150	0.003070	-0.001810	0.245321	0.013595	0.969347	0.087450	-0.996135	-0.008162	0.965490	0.086772	-0.245562
29212	9.543065	-0.065184	-2.440018	-0.001425	0.001608	-0.000244	0.245327	0.013577	0.969345	0.087436	-0.996137	-0.008176	0.965489	0.086762	-0.245566
29213	9.528508	-0.084646	-2.391147	-0.001142	-0.000070	-0.003222	0.245346	0.013590	0.969340	0.087431	-0.996137	-0.008164	0.965485	0.086753	-0.245586
29214	9.557956	-0.088856	-2.408507	0.000734	0.002854	-0.004648	0.245333	0.013615	0.969343	0.087445	-0.996136	-0.008140	0.965487	0.086761	-0.245575
29215	9.510938	-0.084072	-2.420554	-0.000186	0.000072	0.001515	0.245354	0.013580	0.969338	0.087437	-0.996137	-0.008176	0.965482	0.086762	-0.245593
29216	9.534504	-0.086265	-2.414312	-0.002478	0.003072	-0.003517	0.245343	0.013593	0.969341	0.087420	-0.996138	-0.008157	0.965487	0.086741	-0.245584
29217	9.540465	-0.088192	-2.437612	0.000549	0.002926	-0.003133	0.245333	0.013603	0.969343	0.087431	-0.996137	-0.008149	0.965488	0.086750	-0.245575
29218	9.508283	-0.107493	-2.418359	-0.001142	-0.000070	-0.003222	0.245352	0.013615	0.969339	0.087426	-0.996138	-0.008137	0.965484	0.086742	-0.245594
29219	9.569953	-0.092255	-2.454829	0.001876	0.002924	-0.001425	0.245343	0.013608	0.969341	0.087446	-0.996136	-0.008149	0.965484	0.086764	-0.245585
29220	9.505293	-0.080630	-2.396058	0.000460	0.001391	-0.003081	0.245347	0.013618	0.969340	0.087454	-0.996135	-0.008141	0.965483	0.086770	-0.245589
29221	9.517124	-0.084994	-2.443013	-0.001336	0.003142	-0.000295	0.245337	0.013599	0.969343	0.087439	-0.996136	-0.008156	0.965487	0.086759	-0.245578
29222	9.537624	-0.060647	-2.414739	-0.001053	0.001464	-0.003274	0.245339	0.013610	0.969342	0.087434	-0.996137	-0.008143	0.965486	0.086751	-0.245582
29223	9.529008	-0.082183	-2.389238	-0.003902	0.004679	-0.003761	0.245312	0.013624	0.969349	0.087404	-0.996140	-0.008118	0.965496	0.086716	-0.245556
29224	9.517336	-0.084129	-2.442216	0.001788	0.001390	-0.001374	0.245320	0.013618	0.969347	0.087423	-0.996138	-0.008131	0.965492	0.086738	-0.245563
29225	9.511481	-0.081679	-2.418499	0.000460	0.001391	-0.003081	0.245324	0.013628	0.969345	0.087433	-0.996137	-0.008123	0.965490	0.086746	-0.245568
29226	9.535044	-0.083781	-2.412264	0.000274	0.001463	-0.001566	0.245329	0.013623	0.969344	0.087438	-0.996137	-0.008130	0.965489	0.086752	-0.245572
29227	9.511574	-0.081295	-2.418147	-0.001150	0.003070	-0.001810	0.245319	0.013619	0.969347	0.087429	-0.996138	-0.008131	0.965492	0.086744	-0.245562
29228	9.529302	-0.081142	-2.388099	-0.001062	0.004605	-0.001861	0.245294	0.013615	0.969353	0.087421	-0.996138	-0.008131	0.965499	0.086737	-0.245537
29229	9.517616	-0.083146	-2.441158	0.001885	-0.000216	-0.002837	0.245314	0.013624	0.969348	0.087444	-0.996136	-0.008129	0.965492	0.086758	-0.245558
29230	9.541178	-0.085274	-2.434924	0.000363	0.002997	-0.001618	0.245304	0.013618	0.969351	0.087449	-0.996136	-0.008136	0.965494	0.086764	-0.245547
29231	9.503140	-0.102290	-2.391949	-0.002292	0.003000	-0.005033	0.245291	0.013646	0.969353	0.087437	-0.996137	-0.008102	0.965498	0.086744	-0.245537
29232	9.511891	-0.079921	-2.416946	-0.001053	0.001464	-0.003274	0.245296	0.013658	0.969352	0.087432	-0.996138	-0.008090	0.965498	0.086737	-0.245542
29233	9.515045	-0.106185	-2.438687	-0.001337	0.003142	-0.000295	0.245286	0.013639	0.969355	0.087418	-0.996139	-0.008104	0.965501	0.086727	-0.245531
29234	9.538308	-0.057691	-2.412109	0.001885	-0.000216	-0.002837	0.245306	0.013648	0.969350	0.087439	-0.996137	-0.008102	0.965494	0.086747	-0.245552
29235	9.538626	-0.108099	-2.432387	0.000460	0.001391	-0.003081	0.245310	0.013658	0.969348	0.087449	-0.996136	-0.008095	0.965492	0.086754	-0.245557
29236	9.526627	-0.059416	-2.465182	-0.001239	0.001536	-0.001759	0.245314	0.013656	0.969347	0.087439	-0.996137	-0.008095	0.965492	0.086744	-0.245561
29237	9.559128	-0.083535	-2.404042	0.000274	0.001463	-0.001566	0.245319	0.013651	0.969346	0.087443	-0.996137	-0.008102	0.965491	0.086750	-0.245565
29238	9.512131	-0.078773	-2.416038	0.000363	0.002997	-0.001617	0.245311	0.013645	0.969349	0.087450	-0.996136	-0.008108	0.965492	0.086758	-0.245556
29239	9.538813	-0.107358	-2.431685	0.001974	0.001319	-0.002889	0.245316	0.013654	0.969347	0.087474	-0.996134	-0.008106	0.965489	0.086781	-0.245562
29240	9.515016	-0.054106	-2.417323	-0.001053	0.001464	-0.003274	0.245321	0.013666	0.969346	0.087470	-0.996134	-0.008093	0.965488	0.086774	-0.245568
29241	9.565190	-0.084916	-2.427002	-0.001327	0.000001	-0.001708	0.245341	0.013664	0.969341	0.087459	-0.996135	-0.008094	0.965484	0.086764	-0.245587
29242	9.506362	-0.075581	-2.391975	-0.001239	0.001536	-0.001759	0.245345	0.013661	0.969340	0.087448	-0.996136	-0.008095	0.965484	0.086752	-0.245592
29243	9.535843	-0.079881	-2.409237	-0.000964	0.002999	-0.003325	0.245334	0.013673	0.969342	0.087444	-0.996137	-0.008081	0.965487	0.086746	-0.245582
29244	9.529999	-0.077237	-2.385449	0.000647	0.001320	-0.004596	0.245339	0.013698	0.969341	0.087459	-0.996136	-0.008059	0.965484	0.086755	-0.245589
29245	9.518347	-0.079312	-2.438434	0.000078	0.004675	0.001361	0.245316	0.013661	0.969347	0.087454	-0.996136	-0.008093	0.965491	0.086759	-0.245562
29246	9.547847	-0.083831	-2.455622	0.001974	0.001319	-0.002888	0.245322	0.013669	0.969345	0.087478	-0.996134	-0.008092	0.965487	0.086782	-0.245569
29247	9.503824	-0.098714	-2.389380	0.001798	-0.001750	-0.002786	0.245357	0.013680	0.969336	0.087500	-0.996132	-0.008090	0.965476	0.086802	-0.245605
29248	9.530176	-0.076535	-2.384763	-0.000876	0.004533	-0.003376	0.245331	0.013690	0.969343	0.087500	-0.996132	-0.008077	0.965483	0.086798	-0.245580
29249	9.512646	-0.076224	-2.414092	-0.001151	0.003070	-0.001810	0.245320	0.013686	0.969345	0.087491	-0.996133	-0.008077	0.965486	0.086790	-0.245569
29250	9.539342	-0.104719	-2.429726	-0.001052	0.001464	-0.003274	0.245324	0.013698	0.969344	0.087485	-0.996133	-0.008064	0.965486	0.086782	-0.245574
29251	9.489214	-0.073512	-2.419848	0.001601	0.001462	0.000142	0.245331	0.013676	0.969343	0.087498	-0.996132	-0.008091	0.965483	0.086801	-0.245579
29252	9.565747	-0.082560	-2.424888	0.000549	0.002926	-0.003132	0.245321	0.013686	0.969345	0.087508	-0.996131	-0.008083	0.965484	0.086809	-0.245569
29253	9.542277	-0.080046	-2.430789	0.000274	0.001463	-0.001566	0.245326	0.013681	0.969344	0.087513	-0.996131	-0.008089	0.965483	0.086814	-0.245574
29254	9.512868	-0.075288	-2.413247	-0.002840	0.000074	-0.001901	0.245344	0.013681	0.969340	0.087487	-0.996133	-0.008084	0.965480	0.086788	-0.245592
29255	9.527702	-0.099332	-2.381933	0.000186	-0.000071	-0.001515	0.245364	0.013677	0.969335	0.087490	-0.996133	-0.008091	0.965475	0.086793	-0.245612
29256	9.518813	-0.077087	-2.436687	-0.002478	0.003071	-0.003518	0.245353	0.013690	0.969337	0.087472	-0.996134	-0.008072	0.965480	0.086770	-0.245602
29257	9.536489	-0.076856	-2.406779	0.000274	0.001463	-0.001566	0.245358	0.013685	0.969336	0.087476	-0.996134	-0.008078	0.965478	0.086776	-0.245607
29258	9.507076	-0.072060	-2.389244	-0.001140	-0.000070	-0.003223	0.245377	0.013698	0.969331	0.087472	-0.996134	-0.008066	0.965473	0.086769	-0.245626
29259	9.565958	-0.080908	-2.424113	-0.001239	0.001536	-0.001759	0.245381	0.013695	0.969330	0.087462	-0.996135	-0.008067	0.965473	0.086759	-0.245631
29260	9.507152	-0.071666	-2.388954	-0.001337	0.003142	-0.000295	0.245371	0.013677	0.969333	0.087446	-0.996137	-0.008081	0.965477	0.086747	-0.245619
29261	9.533855	-0.100181	-2.404589	0.000647	0.001321	-0.004596	0.245375	0.013702	0.969331	0.087461	-0.996135	-0.008059	0.965475	0.086756	-0.245625
29262	9.533891	-0.099856	-2.404461	0.001974	0.001319	-0.002888	0.245381	0.013711	0.969330	0.087487	-0.996133	-0.008057	0.965471	0.086780	-0.245631
29263	9.513223	-0.073215	-2.411911	-0.001250	0.004676	-0.000347	0.245356	0.013691	0.969336	0.087473	-0.996134	-0.008071	0.965479	0.086771	-0.245605
29264	9.513277	-0.073168	-2.411698	0.003213	-0.000216	-0.001129	0.245378	0.013684	0.969331	0.087504	-0.996131	-0.008089	0.965470	0.086805	-0.245626
29265	9.542745	-0.077565	-2.429032	0.000549	0.002926	-0.003132	0.245368	0.013693	0.969333	0.087515	-0.996130	-0.008081	0.965472	0.086814	-0.245617
29266	9.487080	-0.094676	-2.415777	-0.001151	0.003070	-0.001810	0.245357	0.013689	0.969336	0.087505	-0.996131	-0.008082	0.965475	0.086805	-0.245606
29267	9.542896	-0.077051	-2.428458	-0.000964	0.002999	-0.003325	0.245346	0.013700	0.969339	0.087502	-0.996132	-0.008068	0.965479	0.086799	-0.245596
29268	9.519447	-0.074418	-2.434290	-0.000964	0.002999	-0.003325	0.245334	0.013711	0.969342	0.087498	-0.996132	-0.008055	0.965482	0.086792	-0.245585
29269	9.513591	-0.071918	-2.410498	0.000274	0.001463	-0.001566	0.245340	0.013707	0.969340	0.087502	-0.996132	-0.008061	0.965480	0.086797	-0.245590
29270	9.490085	-0.069486	-2.416550	0.000187	-0.000071	-0.001515	0.245360	0.013702	0.969335	0.087505	-0.996131	-0.008069	0.965475	0.086801	-0.245610
29271	9.543082	-0.076184	-2.427753	0.000362	0.002998	-0.001617	0.245350	0.013696	0.969338	0.087510	-0.996131	-0.008075	0.965477	0.086808	-0.245600
29272	9.513719	-0.071490	-2.410007	0.000362	0.002998	-0.001617	0.245341	0.013690	0.969340	0.087515	-0.996130	-0.008082	0.965479	0.086815	-0.245590
29273	9.543212	-0.075867	-2.427251	-0.001239	0.001536	-0.001759	0.245345	0.013687	0.969339	0.087505	-0.996131	-0.008083	0.965478	0.086805	-0.245594
29274	9.513831	-0.071120	-2.409573	-0.001151	0.003070	-0.001810	0.245336	0.013683	0.969341	0.087497	-0.996132	-0.008084	0.965481	0.086798	-0.245585
29275	9.513868	-0.071047	-2.409431	0.001513	-0.000072	0.000193	0.245358	0.013662	0.969336	0.087509	-0.996131	-0.008110	0.965475	0.086816	-0.245604
29276	9.540566	-0.099794	-2.425122	-0.001338	0.003141	-0.000296	0.245349	0.013644	0.969339	0.087495	-0.996132	-0.008125	0.965478	0.086806	-0.245593
29277	9.511184	-0.095145	-2.407446	0.000274	0.001463	-0.001566	0.245354	0.013639	0.969338	0.087499	-0.996131	-0.008131	0.965477	0.086811	-0.245598
29278	9.517138	-0.097302	-2.430879	-0.001425	0.001607	-0.000244	0.245359	0.013621	0.969337	0.087484	-0.996133	-0.008147	0.965477	0.086800	-0.245602
29279	9.514017	-0.070605	-2.408854	0.000560	-0.000214	-0.004545	0.245378	0.013647	0.969331	0.087498	-0.996132	-0.008125	0.965471	0.086809	-0.245623
29280	9.543474	-0.074870	-2.426251	0.000274	0.001463	-0.001566	0.245383	0.013643	0.969330	0.087501	-0.996131	-0.008131	0.965469	0.086813	-0.245627
29281	9.508171	-0.067854	-2.385007	0.000549	0.002927	-0.003132	0.245372	0.013652	0.969333	0.087512	-0.996130	-0.008123	0.965471	0.086821	-0.245618
29282	9.517288	-0.096398	-2.430328	-0.001426	0.001607	-0.000244	0.245378	0.013634	0.969332	0.087497	-0.996132	-0.008138	0.965471	0.086810	-0.245621
29283	9.540868	-0.098556	-2.423983	-0.001151	0.003070	-0.001810	0.245367	0.013630	0.969334	0.087488	-0.996132	-0.008139	0.965474	0.086802	-0.245611
29284	9.487960	-0.091555	-2.412438	0.000274	0.001463	-0.001566	0.245372	0.013625	0.969333	0.087492	-0.996132	-0.008146	0.965473	0.086807	-0.245615
29285	9.543719	-0.074084	-2.425314	-0.001513	0.000072	-0.000193	0.245392	0.013608	0.969328	0.087475	-0.996133	-0.008161	0.965469	0.086795	-0.245633
29286	9.514686	-0.119961	-2.428061	0.000736	0.002856	-0.004647	0.245381	0.013632	0.969331	0.087492	-0.996132	-0.008140	0.965470	0.086806	-0.245625
29287	9.514349	-0.069019	-2.407589	0.000187	-0.000071	-0.001515	0.245401	0.013628	0.969326	0.087495	-0.996132	-0.008146	0.965465	0.086811	-0.245644
29288	9.517533	-0.095265	-2.429411	0.000549	0.002927	-0.003132	0.245392	0.013637	0.969328	0.087505	-0.996131	-0.008138	0.965467	0.086818	-0.245636
29289	9.490918	-0.066282	-2.413367	-0.001239	0.001535	-0.001759	0.245396	0.013634	0.969327	0.087495	-0.996132	-0.008139	0.965466	0.086809	-0.245640
29290	9.541169	-0.097136	-2.422857	0.000362	0.002998	-0.001617	0.245386	0.013629	0.969330	0.087501	-0.996131	-0.008145	0.965468	0.086816	-0.245630
29291	9.514550	-0.068209	-2.406819	0.001974	0.001320	-0.002887	0.245392	0.013637	0.969328	0.087525	-0.996129	-0.008143	0.965465	0.086839	-0.245636
29292	9.535375	-0.094311	-2.398794	-0.002203	0.004534	-0.005085	0.245364	0.013665	0.969335	0.087513	-0.996130	-0.008110	0.965473	0.086819	-0.245611
29293	9.520564	-0.069704	-2.430058	0.001712	-0.003284	-0.002734	0.245414	0.013675	0.969322	0.087534	-0.996129	-0.008108	0.965458	0.086839	-0.245661
29294	9.517813	-0.093765	-2.428373	-0.001251	0.004676	-0.000347	0.245390	0.013656	0.969328	0.087520	-0.996130	-0.008122	0.965466	0.086828	-0.245636
29295	9.520676	-0.069458	-2.429627	0.000362	0.002998	-0.001617	0.245381	0.013650	0.969331	0.087525	-0.996129	-0.008129	0.965468	0.086835	-0.245626
29296	9.529654	-0.091190	-2.374440	-0.000964	0.002999	-0.003325	0.245370	0.013662	0.969333	0.087523	-0.996129	-0.008115	0.965470	0.086830	-0.245616
29297	9.541580	-0.095498	-2.421302	-0.001338	0.003141	-0.000296	0.245360	0.013643	0.969336	0.087508	-0.996131	-0.008130	0.965474	0.086820	-0.245605
29298	9.512189	-0.090863	-2.403637	0.000274	0.001463	-0.001566	0.245364	0.013638	0.969335	0.087511	-0.996130	-0.008136	0.965473	0.086824	-0.245608
29299	9.538532	-0.068796	-2.398911	0.000362	0.002998	-0.001617	0.245355	0.013632	0.969338	0.087516	-0.996130	-0.008143	0.965475	0.086831	-0.245598
29300	9.518228	-0.092871	-2.426782	-0.001426	0.001607	-0.000245	0.245360	0.013615	0.969336	0.087501	-0.996131	-0.008158	0.965475	0.086820	-0.245602
29301	9.488855	-0.088042	-2.409048	-0.002203	0.004534	-0.005085	0.245333	0.013642	0.969343	0.087490	-0.996132	-0.008124	0.965483	0.086801	-0.245577
29302	9.544667	-0.070406	-2.421690	0.001600	0.001463	0.000143	0.245339	0.013621	0.969342	0.087505	-0.996131	-0.008150	0.965480	0.086822	-0.245582
29303	9.509722	-0.114139	-2.400874	-0.001051	0.001464	-0.003274	0.245343	0.013633	0.969340	0.087501	-0.996131	-0.008137	0.965479	0.086814	-0.245587
29304	9.518474	-0.092060	-2.425845	-0.001526	0.003212	0.001219	0.245334	0.013599	0.969343	0.087481	-0.996133	-0.008166	0.965483	0.086803	-0.245575
29305	9.518551	-0.091929	-2.425551	-0.000964	0.002999	-0.003325	0.245323	0.013610	0.969346	0.087478	-0.996133	-0.008153	0.965486	0.086796	-0.245565
29306	9.512675	-0.089436	-2.401764	0.000274	0.001464	-0.001566	0.245329	0.013605	0.969344	0.087484	-0.996133	-0.008161	0.965484	0.086804	-0.245570
29307	9.501054	-0.091479	-2.454916	0.001975	0.001321	-0.002887	0.245334	0.013613	0.969343	0.087508	-0.996130	-0.008159	0.965481	0.086827	-0.245576
29308	9.515528	-0.064792	-2.403044	0.000549	0.002927	-0.003132	0.245325	0.013623	0.969345	0.087519	-0.996129	-0.008151	0.965482	0.086836	-0.245567
29309	9.524648	-0.093289	-2.448514	0.000100	-0.001606	-0.001464	0.245360	0.013619	0.969336	0.087522	-0.996129	-0.008158	0.965473	0.086839	-0.245602
29310	9.518753	-0.090797	-2.424800	-0.000877	0.004534	-0.003376	0.245333	0.013629	0.969343	0.087518	-0.996130	-0.008144	0.965480	0.086833	-0.245577
29311	9.542347	-0.092926	-2.418377	0.001600	0.001463	0.000143	0.245340	0.013608	0.969342	0.087531	-0.996128	-0.008170	0.965477	0.086852	-0.245581
29312	9.515690	-0.064082	-2.402420	0.000462	0.001392	-0.003081	0.245344	0.013618	0.969340	0.087540	-0.996128	-0.008163	0.965475	0.086859	-0.245586
29313	9.539284	-0.066042	-2.395999	-0.000877	0.004534	-0.003376	0.245319	0.013628	0.969347	0.087538	-0.996128	-0.008149	0.965482	0.086853	-0.245562
29314	9.519014	-0.089955	-2.423808	-0.001239	0.001535	-0.001760	0.245323	0.013625	0.969346	0.087528	-0.996129	-0.008151	0.965482	0.086844	-0.245565
29315	9.515894	-0.063301	-2.401631	-0.001151	0.003070	-0.001811	0.245312	0.013621	0.969348	0.087519	-0.996129	-0.008151	0.965486	0.086836	-0.245555
29316	9.542665	-0.091742	-2.417170	0.002249	0.002784	-0.004453	0.245303	0.013644	0.969350	0.087551	-0.996127	-0.008135	0.965485	0.086864	-0.245548
29317	9.501637	-0.089236	-2.452743	-0.001339	0.003141	-0.000296	0.245293	0.013625	0.969353	0.087537	-0.996128	-0.008150	0.965489	0.086854	-0.245536
29318	9.542776	-0.091426	-2.416741	0.000187	-0.000071	-0.001515	0.245315	0.013621	0.969348	0.087541	-0.996127	-0.008157	0.965483	0.086859	-0.245557
29319	9.545569	-0.066994	-2.418229	0.003763	0.002713	-0.004259	0.245305	0.013641	0.969350	0.087586	-0.996124	-0.008147	0.965481	0.086900	-0.245549
29320	9.487110	-0.108456	-2.403576	0.000000	-0.000000	0.000000	0.245327	0.013622	0.969345	0.087585	-0.996124	-0.008168	0.965476	0.086904	-0.245569
29321	9.539700	-0.064513	-2.394382	0.000362	0.002998	-0.001617	0.245318	0.013616	0.969347	0.087591	-0.996123	-0.008175	0.965478	0.086911	-0.245559
29322	9.525376	-0.090833	-2.445771	0.001875	0.002927	-0.001423	0.245308	0.013608	0.969350	0.087608	-0.996121	-0.008186	0.965479	0.086931	-0.245548
29323	9.519492	-0.088438	-2.421985	-0.001239	0.001535	-0.001760	0.245312	0.013605	0.969349	0.087598	-0.996122	-0.008187	0.965478	0.086922	-0.245553
29324	9.539899	-0.064105	-2.393599	0.001962	0.004461	-0.001474	0.245289	0.013597	0.969355	0.087618	-0.996120	-0.008199	0.965483	0.086944	-0.245528
29325	9.513660	-0.086066	-2.397984	-0.000275	-0.001464	0.001566	0.245325	0.013563	0.969346	0.087609	-0.996121	-0.008234	0.965474	0.086944	-0.245562
29326	9.545917	-0.066225	-2.416877	-0.003903	0.004677	-0.003765	0.245297	0.013578	0.969353	0.087578	-0.996124	-0.008209	0.965484	0.086907	-0.245535
29327	9.534538	-0.112043	-2.389786	0.001975	0.001321	-0.002887	0.245303	0.013586	0.969351	0.087602	-0.996122	-0.008207	0.965480	0.086930	-0.245541
29328	9.496215	-0.085373	-2.427206	0.000188	-0.000071	-0.001515	0.245324	0.013583	0.969346	0.087605	-0.996121	-0.008213	0.965475	0.086934	-0.245563
29329	9.558112	-0.113954	-2.383436	-0.001152	0.003070	-0.001811	0.245314	0.013579	0.969349	0.087596	-0.996122	-0.008214	0.965478	0.086926	-0.245552
29330	9.469618	-0.056269	-2.410974	0.002062	0.002856	-0.002937	0.245304	0.013586	0.969351	0.087620	-0.996120	-0.008212	0.965478	0.086949	-0.245543
29331	9.555311	-0.093848	-2.461416	-0.002939	0.001678	-0.000439	0.245309	0.013570	0.969350	0.087591	-0.996123	-0.008221	0.965480	0.086923	-0.245546
29332	9.466958	-0.080273	-2.408995	0.001600	0.001463	0.000143	0.245314	0.013548	0.969349	0.087603	-0.996121	-0.008248	0.965477	0.086941	-0.245550
29333	9.543496	-0.089077	-2.413984	-0.002376	0.001465	-0.004983	0.245317	0.013577	0.969348	0.087590	-0.996123	-0.008215	0.965478	0.086921	-0.245555
29334	9.523229	-0.112928	-2.441877	0.000361	0.002998	-0.001617	0.245308	0.013571	0.969350	0.087597	-0.996122	-0.008222	0.965480	0.086929	-0.245545
29335	9.492898	-0.007000	-2.383700	-0.001600	-0.001463	-0.000143	0.245343	0.013555	0.969342	0.087580	-0.996123	-0.008237	0.965472	0.086916	-0.245579
29336	9.605755	-0.123944	-2.470284	0.000723	0.005997	-0.003233	0.245302	0.013562	0.969352	0.087593	-0.996122	-0.008229	0.965481	0.086927	-0.245539
29337	9.455341	-0.074549	-2.360795	-0.000776	0.002928	-0.004840	0.245290	0.013589	0.969354	0.087595	-0.996122	-0.008202	0.965484	0.086923	-0.245530
29338	9.599980	-0.121064	-2.446070	0.000087	0.001535	-0.000051	0.245297	0.013569	0.969353	0.087594	-0.996122	-0.008222	0.965483	0.086927	-0.245534
29339	9.440649	-0.049948	-2.391638	0.000636	0.004462	-0.003182	0.245272	0.013578	0.969359	0.087606	-0.996121	-0.008214	0.965488	0.086936	-0.245510
29340	9.588215	-0.116095	-2.398418	-0.005864	0.000214	-0.002292	0.245289	0.013581	0.969355	0.087552	-0.996126	-0.008198	0.965488	0.086880	-0.245528
29341	9.493747	-0.056058	-2.402474	0.003850	0.004249	-0.004309	0.245265	0.013601	0.969361	0.087597	-0.996122	-0.008187	0.965490	0.086922	-0.245505
29342	9.544078	-0.086883	-2.411765	-0.003040	0.003283	0.001024	0.245254	0.013568	0.969364	0.087562	-0.996125	-0.008211	0.965496	0.086893	-0.245492
29343	9.503049	-0.084566	-2.447430	0.005002	0.001179	-0.002498	0.245261	0.013573	0.969362	0.087614	-0.996121	-0.008220	0.965490	0.086946	-0.245499
29344	9.538234	-0.084375	-2.387771	-0.004178	0.003212	-0.002199	0.245250	0.013574	0.969365	0.087576	-0.996124	-0.008208	0.965496	0.086906	-0.245488
29345	9.520728	-0.084207	-2.417272	0.000087	0.001535	-0.000051	0.245256	0.013554	0.969364	0.087575	-0.996124	-0.008229	0.965495	0.086910	-0.245492
29346	9.538347	-0.084047	-2.387331	-0.000964	0.002999	-0.003326	0.245245	0.013565	0.969366	0.087572	-0.996124	-0.008216	0.965498	0.086905	-0.245483
29347	9.518094	-0.108000	-2.415231	0.000275	0.001464	-0.001566	0.245251	0.013560	0.969365	0.087577	-0.996124	-0.008223	0.965496	0.086911	-0.245488
29348	9.523604	-0.059351	-2.418392	-0.001137	-0.000071	-0.003224	0.245270	0.013572	0.969360	0.087573	-0.996124	-0.008211	0.965491	0.086903	-0.245508
29349	9.544432	-0.085571	-2.410409	0.000448	0.004533	-0.001667	0.245246	0.013566	0.969366	0.087579	-0.996124	-0.008217	0.965497	0.086911	-0.245483
29350	9.503427	-0.083118	-2.446014	0.001976	0.001322	-0.002886	0.245250	0.013574	0.969365	0.087603	-0.996122	-0.008215	0.965494	0.086934	-0.245488
29351	9.526999	-0.085327	-2.439643	-0.000015	0.003140	0.001413	0.245242	0.013538	0.969367	0.087597	-0.996122	-0.008250	0.965496	0.086937	-0.245477
29352	9.515160	-0.080732	-2.392212	-0.000964	0.002999	-0.003326	0.245230	0.013548	0.969370	0.087594	-0.996122	-0.008238	0.965500	0.086931	-0.245465
29353	9.544708	-0.084991	-2.409337	0.000361	0.002999	-0.001617	0.245220	0.013542	0.969373	0.087600	-0.996122	-0.008244	0.965502	0.086938	-0.245455
29354	9.497731	-0.080310	-2.421441	-0.001238	0.001535	-0.001760	0.245225	0.013539	0.969372	0.087589	-0.996123	-0.008245	0.965501	0.086928	-0.245460
29355	9.527281	-0.084665	-2.438564	0.001961	0.004462	-0.001473	0.245202	0.013531	0.969378	0.087609	-0.996121	-0.008257	0.965505	0.086951	-0.245436
29356	9.544946	-0.084510	-2.408410	0.002149	0.004391	-0.002988	0.245177	0.013537	0.969384	0.087635	-0.996118	-0.008254	0.965509	0.086976	-0.245412
29357	9.497971	-0.079805	-2.420516	-0.004539	0.000213	-0.000584	0.245195	0.013523	0.969379	0.087591	-0.996122	-0.008259	0.965509	0.086934	-0.245429
29358	9.548241	-0.110761	-2.430073	0.004626	0.001321	0.000533	0.245204	0.013497	0.969378	0.087632	-0.996118	-0.008297	0.965503	0.086983	-0.245435
29359	9.515598	-0.079624	-2.390505	-0.002288	0.002999	-0.005035	0.245191	0.013525	0.969380	0.087621	-0.996120	-0.008264	0.965507	0.086964	-0.245425
29360	9.551096	-0.086071	-2.431260	-0.001426	0.001606	-0.000245	0.245197	0.013507	0.969379	0.087605	-0.996121	-0.008280	0.965507	0.086953	-0.245429
29361	9.515712	-0.079130	-2.390070	-0.000964	0.002999	-0.003326	0.245186	0.013518	0.969382	0.087602	-0.996121	-0.008266	0.965510	0.086947	-0.245419
29362	9.539284	-0.081086	-2.383687	-0.002751	0.001606	-0.001955	0.245189	0.013516	0.969381	0.087578	-0.996123	-0.008262	0.965512	0.086923	-0.245422
29363	9.519050	-0.105086	-2.411590	0.000361	0.002999	-0.001616	0.245179	0.013511	0.969384	0.087584	-0.996123	-0.008269	0.965514	0.086929	-0.245412
29364	9.554085	-0.061010	-2.431917	-0.004366	0.003283	-0.000686	0.245170	0.013495	0.969386	0.087543	-0.996126	-0.008273	0.965520	0.086891	-0.245401
29365	9.521940	-0.080717	-2.412612	0.004712	0.002857	0.000482	0.245163	0.013469	0.969388	0.087585	-0.996122	-0.008310	0.965517	0.086941	-0.245392
29366	9.530700	-0.058610	-2.437577	-0.004076	0.001606	-0.003664	0.245167	0.013485	0.969387	0.087554	-0.996125	-0.008286	0.965519	0.086905	-0.245397
29367	9.522053	-0.080276	-2.412181	0.000361	0.002999	-0.001616	0.245157	0.013479	0.969390	0.087559	-0.996125	-0.008293	0.965521	0.086912	-0.245387
29368	9.530814	-0.058141	-2.437143	-0.001238	0.001535	-0.001760	0.245161	0.013475	0.969389	0.087548	-0.996126	-0.008294	0.965521	0.086902	-0.245391
29369	9.498631	-0.077644	-2.417998	0.001976	0.001322	-0.002885	0.245166	0.013484	0.969387	0.087572	-0.996124	-0.008292	0.965518	0.086925	-0.245397
29370	9.519463	-0.103886	-2.410010	-0.001152	0.003070	-0.001811	0.245156	0.013480	0.969390	0.087563	-0.996125	-0.008292	0.965521	0.086915	-0.245387
29371	9.519024	-0.053032	-2.389445	-0.001238	0.001535	-0.001760	0.245161	0.013477	0.969389	0.087553	-0.996125	-0.008293	0.965521	0.086906	-0.245391
29372	9.501997	-0.103527	-2.439451	-0.003026	0.000142	-0.000390	0.245179	0.013462	0.969384	0.087522	-0.996128	-0.008303	0.965519	0.086878	-0.245408
29373	9.551800	-0.083645	-2.428578	0.002063	0.002857	-0.002936	0.245170	0.013470	0.969387	0.087547	-0.996126	-0.008300	0.965519	0.086902	-0.245399
29374	9.498856	-0.076766	-2.417139	-0.001427	0.001606	-0.000246	0.245286	0.013526	0.969356	0.087509	-0.996130	-0.008244	0.965493	0.086850	-0.245520
29375	9.563987	-0.131623	-2.395191	-0.002288	0.002999	-0.005035	0.245274	0.013555	0.969359	0.087498	-0.996131	-0.008210	0.965497	0.086830	-0.245511
29376	9.490284	-0.098168	-2.391460	0.000173	0.003070	-0.000102	0.245264	0.013533	0.969362	0.087496	-0.996131	-0.008231	0.965500	0.086834	-0.245499
29377	9.546073	-0.080618	-2.404074	0.000275	0.001464	-0.001565	0.245269	0.013529	0.969361	0.087501	-0.996130	-0.008237	0.965498	0.086840	-0.245504
29378	9.522595	-0.078160	-2.410110	0.000463	0.001393	-0.003080	0.245273	0.013539	0.969360	0.087509	-0.996130	-0.008229	0.965496	0.086846	-0.245508
29379	9.528605	-0.080091	-2.433540	-0.001050	0.001464	-0.003275	0.245277	0.013551	0.969358	0.087505	-0.996130	-0.008216	0.965496	0.086838	-0.245513
29380	9.543470	-0.104103	-2.401975	-0.001340	0.003141	-0.000296	0.245269	0.013533	0.969361	0.087491	-0.996131	-0.008231	0.965499	0.086829	-0.245504
29381	9.519483	-0.051062	-2.387659	0.001890	-0.000212	-0.002834	0.245289	0.013542	0.969355	0.087514	-0.996129	-0.008229	0.965492	0.086851	-0.245525
29382	9.567039	-0.105922	-2.395600	-0.001050	0.001464	-0.003275	0.245293	0.013554	0.969354	0.087509	-0.996130	-0.008216	0.965491	0.086843	-0.245530
29383	9.493256	-0.072552	-2.392166	-0.001599	-0.001464	-0.000144	0.245328	0.013537	0.969346	0.087492	-0.996131	-0.008231	0.965484	0.086830	-0.245563
29384	9.526007	-0.103312	-2.431446	0.000550	0.002928	-0.003131	0.245319	0.013547	0.969348	0.087505	-0.996130	-0.008224	0.965485	0.086840	-0.245555
29385	9.522799	-0.076653	-2.409352	0.000189	-0.000071	-0.001515	0.245339	0.013543	0.969343	0.087508	-0.996130	-0.008231	0.965480	0.086845	-0.245575
29386	9.531522	-0.054543	-2.434458	0.000275	0.001464	-0.001565	0.245344	0.013538	0.969341	0.087512	-0.996129	-0.008237	0.965478	0.086850	-0.245580
29387	9.543656	-0.102747	-2.401293	0.000550	0.002928	-0.003131	0.245334	0.013548	0.969344	0.087523	-0.996129	-0.008229	0.965480	0.086859	-0.245570
29388	9.513706	-0.047388	-2.363331	-0.004453	0.001747	-0.000636	0.245335	0.013533	0.969344	0.087476	-0.996133	-0.008233	0.965484	0.086814	-0.245570
29389	9.552459	-0.080255	-2.426099	0.000652	0.001323	-0.004595	0.245339	0.013558	0.969342	0.087492	-0.996131	-0.008211	0.965481	0.086824	-0.245576
29390	9.496745	-0.097465	-2.413219	0.000189	-0.000071	-0.001515	0.245361	0.013555	0.969337	0.087496	-0.996131	-0.008218	0.965475	0.086830	-0.245598
29391	9.523022	-0.075354	-2.408510	0.000361	0.002999	-0.001616	0.245352	0.013549	0.969339	0.087502	-0.996130	-0.008224	0.965477	0.086837	-0.245588
29392	9.505562	-0.075152	-2.437961	-0.002665	0.003140	-0.002006	0.245341	0.013547	0.969342	0.087480	-0.996132	-0.008220	0.965482	0.086815	-0.245577
29393	9.523173	-0.074954	-2.407927	0.000361	0.002999	-0.001616	0.245332	0.013541	0.969345	0.087485	-0.996132	-0.008226	0.965484	0.086821	-0.245568
29394	9.526483	-0.101199	-2.429668	-0.002751	0.001606	-0.001955	0.245336	0.013539	0.969344	0.087462	-0.996134	-0.008223	0.965485	0.086798	-0.245572
29395	9.523250	-0.074531	-2.407634	-0.001324	0.000000	-0.001710	0.245355	0.013537	0.969339	0.087451	-0.996135	-0.008224	0.965481	0.086788	-0.245591
29396	9.520544	-0.098641	-2.405956	0.000086	0.001535	-0.000051	0.245361	0.013517	0.969337	0.087450	-0.996135	-0.008245	0.965479	0.086792	-0.245595
29397	9.529286	-0.076595	-2.430983	0.000275	0.001464	-0.001565	0.245367	0.013512	0.969336	0.087455	-0.996134	-0.008252	0.965478	0.086798	-0.245600
29398	9.526617	-0.100660	-2.429165	0.000361	0.002999	-0.001616	0.245358	0.013506	0.969338	0.087461	-0.996134	-0.008258	0.965479	0.086805	-0.245591
29399	9.544225	-0.100461	-2.399129	-0.002665	0.003140	-0.002006	0.245347	0.013504	0.969341	0.087438	-0.996136	-0.008253	0.965484	0.086782	-0.245580
29400	9.520789	-0.098067	-2.405012	-0.001341	0.003140	-0.000296	0.245337	0.013485	0.969344	0.087422	-0.996137	-0.008268	0.965488	0.086771	-0.245568
29401	9.520864	-0.097964	-2.404721	0.000361	0.002999	-0.001616	0.245328	0.013480	0.969346	0.087428	-0.996137	-0.008274	0.965490	0.086778	-0.245559
29402	9.491423	-0.093420	-2.387123	0.000086	0.001535	-0.000051	0.245335	0.013460	0.969345	0.087427	-0.996136	-0.008295	0.965488	0.086782	-0.245564
29403	9.523699	-0.073580	-2.405890	-0.001152	0.003070	-0.001811	0.245325	0.013457	0.969348	0.087418	-0.996137	-0.008295	0.965491	0.086773	-0.245554
29404	9.521032	-0.097520	-2.404071	-0.001049	0.001464	-0.003275	0.245329	0.013468	0.969346	0.087414	-0.996138	-0.008283	0.965491	0.086766	-0.245559
29405	9.527054	-0.099374	-2.427502	0.000653	0.001323	-0.004594	0.245333	0.013494	0.969345	0.087429	-0.996136	-0.008261	0.965488	0.086776	-0.245565
29406	9.535797	-0.077214	-2.452535	0.001599	0.001464	0.000145	0.245340	0.013472	0.969344	0.087443	-0.996135	-0.008287	0.965485	0.086795	-0.245570
29407	9.532607	-0.050626	-2.430289	-0.000877	0.004534	-0.003376	0.245314	0.013482	0.969350	0.087440	-0.996135	-0.008274	0.965492	0.086790	-0.245545
29408	9.521273	-0.096609	-2.403155	-0.001341	0.003140	-0.000296	0.245305	0.013463	0.969353	0.087426	-0.996137	-0.008289	0.965496	0.086780	-0.245534
29409	9.518044	-0.070067	-2.381049	0.000189	-0.000070	-0.001515	0.245325	0.013459	0.969348	0.087429	-0.996136	-0.008296	0.965490	0.086784	-0.245554
29410	9.527298	-0.098602	-2.426578	0.000189	-0.000070	-0.001515	0.245347	0.013455	0.969342	0.087435	-0.996136	-0.008303	0.965484	0.086791	-0.245575
29411	9.503805	-0.096229	-2.432698	0.000275	0.001464	-0.001565	0.245352	0.013450	0.969341	0.087439	-0.996135	-0.008310	0.965483	0.086797	-0.245580
29412	9.527353	-0.098179	-2.426379	0.000653	0.001323	-0.004594	0.245356	0.013476	0.969339	0.087454	-0.996134	-0.008287	0.965480	0.086806	-0.245586
29413	9.521402	-0.095804	-2.402676	-0.000103	0.001605	0.001464	0.245363	0.013441	0.969338	0.087447	-0.996134	-0.008322	0.965479	0.086808	-0.245590
29414	9.553676	-0.075914	-2.421442	0.000739	0.002858	-0.004645	0.245351	0.013465	0.969341	0.087461	-0.996133	-0.008300	0.965481	0.086816	-0.245580
29415	9.527483	-0.097610	-2.425893	0.000189	-0.000070	-0.001515	0.245371	0.013461	0.969336	0.087464	-0.996133	-0.008307	0.965476	0.086821	-0.245599
29416	9.494728	-0.066496	-2.386495	0.000464	0.001394	-0.003080	0.245376	0.013472	0.969334	0.087475	-0.996132	-0.008299	0.965473	0.086829	-0.245606
29417	9.533528	-0.099420	-2.449255	0.000275	0.001464	-0.001565	0.245382	0.013467	0.969333	0.087479	-0.996132	-0.008306	0.965471	0.086835	-0.245611
29418	9.500808	-0.068443	-2.409706	0.000172	0.003070	-0.000101	0.245374	0.013447	0.969335	0.087479	-0.996132	-0.008326	0.965473	0.086840	-0.245601
29419	9.539631	-0.101365	-2.472391	0.000653	0.001324	-0.004594	0.245378	0.013472	0.969334	0.087495	-0.996130	-0.008304	0.965471	0.086849	-0.245608
29420	9.492210	-0.089924	-2.384126	0.000361	0.002999	-0.001616	0.245369	0.013466	0.969336	0.087501	-0.996130	-0.008311	0.965473	0.086857	-0.245598
29421	9.524483	-0.070030	-2.402889	0.000275	0.001464	-0.001565	0.245374	0.013462	0.969335	0.087505	-0.996129	-0.008317	0.965471	0.086862	-0.245603
29422	9.557304	-0.100775	-2.442068	-0.004453	0.001746	-0.000637	0.245377	0.013447	0.969334	0.087461	-0.996133	-0.008321	0.965474	0.086820	-0.245605
29423	9.524560	-0.069678	-2.402592	0.001977	0.001324	-0.002884	0.245383	0.013456	0.969333	0.087485	-0.996131	-0.008319	0.965471	0.086843	-0.245611
29424	9.504366	-0.093584	-2.430607	-0.002562	0.001535	-0.003471	0.245386	0.013470	0.969332	0.087464	-0.996133	-0.008299	0.965472	0.086819	-0.245615
29425	9.548181	-0.071350	-2.395979	0.001959	0.004464	-0.001471	0.245363	0.013461	0.969338	0.087485	-0.996131	-0.008311	0.965476	0.086842	-0.245591
29426	9.507228	-0.068917	-2.431642	-0.001049	0.001464	-0.003275	0.245368	0.013472	0.969336	0.087483	-0.996131	-0.008300	0.965475	0.086837	-0.245597
29427	9.554306	-0.073166	-2.419038	-0.001342	0.003140	-0.000297	0.245358	0.013454	0.969339	0.087469	-0.996133	-0.008315	0.965478	0.086827	-0.245586
29428	9.522146	-0.092765	-2.399844	-0.002751	0.001605	-0.001956	0.245361	0.013452	0.969338	0.087446	-0.996135	-0.008311	0.965480	0.086804	-0.245589
29429	9.533584	-0.046336	-2.426541	0.001891	-0.000211	-0.002833	0.245382	0.013461	0.969333	0.087469	-0.996133	-0.008309	0.965472	0.086826	-0.245610
29430	9.516262	-0.090096	-2.375853	-0.004111	0.007885	-0.000839	0.245327	0.013444	0.969347	0.087430	-0.996136	-0.008311	0.965490	0.086789	-0.245554
29431	9.525062	-0.067871	-2.400656	0.003594	-0.000351	-0.004152	0.245347	0.013467	0.969342	0.087472	-0.996132	-0.008301	0.965481	0.086827	-0.245577
29432	9.528367	-0.094127	-2.422555	-0.001427	0.001605	-0.000246	0.245354	0.013448	0.969340	0.087459	-0.996133	-0.008318	0.965480	0.086819	-0.245581
29433	9.531115	-0.069719	-2.424010	-0.001049	0.001464	-0.003275	0.245357	0.013460	0.969339	0.087455	-0.996134	-0.008304	0.965480	0.086811	-0.245586
29434	9.525153	-0.067181	-2.400314	0.000464	0.001394	-0.003079	0.245362	0.013470	0.969338	0.087465	-0.996133	-0.008297	0.965478	0.086819	-0.245592
29435	9.519792	-0.115361	-2.396901	-0.001153	0.003070	-0.001811	0.245352	0.013466	0.969341	0.087457	-0.996134	-0.008298	0.965481	0.086811	-0.245581
29436	9.505045	-0.091043	-2.428049	0.003301	0.001325	-0.001174	0.245359	0.013458	0.969339	0.087488	-0.996131	-0.008315	0.965476	0.086846	-0.245587
29437	9.528611	-0.093021	-2.421639	-0.003989	0.003139	-0.003717	0.245347	0.013473	0.969342	0.087457	-0.996134	-0.008290	0.965482	0.086809	-0.245576
29438	9.537358	-0.070743	-2.446654	0.000189	-0.000070	-0.001514	0.245367	0.013469	0.969337	0.087460	-0.996133	-0.008298	0.965477	0.086815	-0.245596
29439	9.522666	-0.090314	-2.397874	0.001977	0.001324	-0.002884	0.245372	0.013477	0.969335	0.087484	-0.996131	-0.008296	0.965473	0.086837	-0.245602
29440	9.528723	-0.092329	-2.421224	-0.001153	0.003070	-0.001811	0.245362	0.013473	0.969338	0.087475	-0.996132	-0.008296	0.965477	0.086829	-0.245591
29441	9.531502	-0.067903	-2.422541	0.002063	0.002859	-0.002934	0.245352	0.013481	0.969340	0.087500	-0.996130	-0.008294	0.965477	0.086852	-0.245582
29442	9.531540	-0.067705	-2.422396	-0.004539	0.000210	-0.000587	0.245372	0.013467	0.969336	0.087457	-0.996134	-0.008299	0.965476	0.086812	-0.245601
29443	9.528876	-0.091830	-2.420642	0.000171	0.003070	-0.000101	0.245363	0.013446	0.969338	0.087457	-0.996134	-0.008319	0.965478	0.086817	-0.245590
29444	9.537640	-0.069674	-2.445584	-0.001048	0.001464	-0.003275	0.245367	0.013459	0.969337	0.087452	-0.996134	-0.008305	0.965478	0.086808	-0.245595
29445	9.528970	-0.091419	-2.420287	0.000275	0.001465	-0.001565	0.245372	0.013454	0.969336	0.087456	-0.996134	-0.008312	0.965476	0.086814	-0.245600
29446	9.523041	-0.089035	-2.396430	-0.004283	0.004815	-0.000739	0.245345	0.013438	0.969343	0.087414	-0.996137	-0.008315	0.965487	0.086774	-0.245572
29447	9.543886	-0.115264	-2.388485	0.001807	-0.001745	-0.002783	0.245381	0.013448	0.969334	0.087436	-0.996135	-0.008314	0.965476	0.086794	-0.245608
29448	9.537812	-0.068796	-2.444941	-0.000963	0.002999	-0.003326	0.245370	0.013459	0.969336	0.087432	-0.996136	-0.008300	0.965479	0.086788	-0.245598
29449	9.502968	-0.112467	-2.424107	0.000550	0.002930	-0.003130	0.245359	0.013469	0.969339	0.087443	-0.996135	-0.008292	0.965480	0.086796	-0.245589
29450	9.537960	-0.068366	-2.444375	0.001683	0.003000	0.000095	0.245351	0.013446	0.969341	0.087457	-0.996134	-0.008318	0.965481	0.086816	-0.245579
29451	9.526624	-0.114516	-2.417333	0.000360	0.003000	-0.001615	0.245342	0.013441	0.969343	0.087462	-0.996133	-0.008325	0.965483	0.086823	-0.245569
29452	9.508572	-0.063667	-2.426525	0.000465	0.001395	-0.003079	0.245346	0.013451	0.969342	0.087470	-0.996132	-0.008316	0.965481	0.086829	-0.245574
29453	9.550246	-0.116147	-2.410704	-0.003989	0.003139	-0.003717	0.245334	0.013466	0.969345	0.087439	-0.996135	-0.008292	0.965487	0.086793	-0.245563
29454	9.517392	-0.041031	-2.451261	0.005003	0.001185	-0.002492	0.245341	0.013472	0.969343	0.087491	-0.996131	-0.008300	0.965481	0.086845	-0.245571
29455	9.535520	-0.091622	-2.441791	-0.003215	0.000210	0.001123	0.245361	0.013441	0.969339	0.087455	-0.996134	-0.008324	0.965479	0.086816	-0.245588
29456	9.520823	-0.111230	-2.393000	-0.001048	0.001464	-0.003275	0.245366	0.013454	0.969337	0.087451	-0.996134	-0.008310	0.965478	0.086809	-0.245594
29457	9.529586	-0.088959	-2.417949	0.002063	0.002860	-0.002934	0.245356	0.013461	0.969339	0.087476	-0.996132	-0.008308	0.965478	0.086832	-0.245585
29458	9.523612	-0.086592	-2.394252	-0.001513	0.000070	-0.000196	0.245375	0.013444	0.969335	0.087459	-0.996133	-0.008324	0.965475	0.086819	-0.245602
29459	9.532358	-0.064504	-2.419261	0.000360	0.003000	-0.001615	0.245366	0.013438	0.969337	0.087464	-0.996133	-0.008330	0.965477	0.086826	-0.245592
29460	9.521025	-0.110656	-2.392221	0.001683	0.003000	0.000095	0.245358	0.013415	0.969340	0.087478	-0.996131	-0.008357	0.965478	0.086847	-0.245583
29461	9.505681	-0.035666	-2.402938	-0.000963	0.002999	-0.003326	0.245347	0.013426	0.969342	0.087475	-0.996132	-0.008343	0.965481	0.086840	-0.245573
29462	9.532523	-0.064170	-2.418622	0.001428	-0.001605	0.000246	0.245383	0.013406	0.969333	0.087486	-0.996131	-0.008371	0.965470	0.086857	-0.245607
29463	9.529863	-0.088240	-2.416884	-0.000878	0.004535	-0.003376	0.245358	0.013416	0.969340	0.087484	-0.996131	-0.008357	0.965477	0.086852	-0.245582
29464	9.523924	-0.085746	-2.393039	-0.001238	0.001535	-0.001761	0.245363	0.013414	0.969338	0.087474	-0.996132	-0.008357	0.965477	0.086843	-0.245587
29465	9.512484	-0.087746	-2.446224	0.000465	0.001395	-0.003079	0.245368	0.013424	0.969337	0.087484	-0.996131	-0.008350	0.965475	0.086850	-0.245593
29466	9.506488	-0.085285	-2.422601	-0.001323	-0.000001	-0.001710	0.245387	0.013422	0.969332	0.087472	-0.996132	-0.008351	0.965471	0.086839	-0.245612
29467	9.550849	-0.113684	-2.408435	-0.002666	0.003139	-0.002007	0.245376	0.013420	0.969335	0.087449	-0.996134	-0.008346	0.965476	0.086816	-0.245601
29468	9.500586	-0.082665	-2.398609	0.001873	0.002930	-0.001419	0.245369	0.013412	0.969337	0.087471	-0.996132	-0.008358	0.965476	0.086840	-0.245593
29469	9.536181	-0.089199	-2.439300	0.000275	0.001465	-0.001565	0.245374	0.013408	0.969336	0.087475	-0.996132	-0.008365	0.965474	0.086845	-0.245598
29470	9.530182	-0.086835	-2.415677	0.000190	-0.000070	-0.001514	0.245396	0.013404	0.969330	0.087478	-0.996131	-0.008371	0.965468	0.086849	-0.245619
29471	9.553728	-0.088842	-2.409319	-0.002666	0.003139	-0.002007	0.245384	0.013403	0.969333	0.087455	-0.996133	-0.008366	0.965473	0.086826	-0.245608
29472	9.530278	-0.086438	-2.415313	0.000275	0.001465	-0.001565	0.245390	0.013398	0.969332	0.087459	-0.996133	-0.008372	0.965471	0.086832	-0.245613
29473	9.524280	-0.083951	-2.391688	-0.002646	-0.000001	-0.003421	0.245408	0.013413	0.969327	0.087440	-0.996135	-0.008354	0.965468	0.086808	-0.245632
29474	9.556535	-0.063867	-2.410481	-0.001153	0.003070	-0.001811	0.245399	0.013410	0.969329	0.087431	-0.996136	-0.008354	0.965471	0.086800	-0.245623
29475	9.530412	-0.085844	-2.414804	-0.000020	0.003140	0.001414	0.245391	0.013374	0.969332	0.087425	-0.996136	-0.008389	0.965474	0.086803	-0.245612
29476	9.533176	-0.061583	-2.416113	0.002063	0.002860	-0.002933	0.245383	0.013381	0.969334	0.087452	-0.996133	-0.008388	0.965474	0.086829	-0.245604
29477	9.554068	-0.087798	-2.408010	-0.004369	0.003279	-0.000689	0.245372	0.013366	0.969337	0.087410	-0.996137	-0.008391	0.965480	0.086789	-0.245592
29478	9.509763	-0.059040	-2.421970	0.004834	-0.001884	-0.002390	0.245411	0.013373	0.969327	0.087461	-0.996133	-0.008401	0.965466	0.086840	-0.245631
29479	9.554103	-0.087613	-2.407876	-0.003046	0.003279	0.001021	0.245401	0.013341	0.969330	0.087427	-0.996135	-0.008424	0.965471	0.086813	-0.245619
29480	9.501126	-0.080790	-2.396535	0.000655	0.001325	-0.004593	0.245405	0.013366	0.969328	0.087442	-0.996134	-0.008402	0.965469	0.086822	-0.245626
29481	9.536751	-0.087119	-2.437146	-0.001068	0.004605	-0.001862	0.245380	0.013362	0.969335	0.087434	-0.996135	-0.008402	0.965476	0.086815	-0.245600
29482	9.536826	-0.086946	-2.436857	0.000275	0.001465	-0.001565	0.245386	0.013357	0.969333	0.087438	-0.996134	-0.008409	0.965474	0.086820	-0.245605
29483	9.501291	-0.080166	-2.395899	0.000190	-0.000070	-0.001514	0.245406	0.013353	0.969328	0.087442	-0.996134	-0.008415	0.965469	0.086825	-0.245625
29484	9.560387	-0.088890	-2.430435	0.001873	0.002931	-0.001419	0.245398	0.013346	0.969330	0.087461	-0.996132	-0.008427	0.965469	0.086847	-0.245616
29485	9.498678	-0.103998	-2.394026	-0.004158	0.000068	-0.003618	0.245415	0.013362	0.969326	0.087428	-0.996135	-0.008403	0.965468	0.086808	-0.245635
29486	9.530915	-0.083867	-2.412891	0.001978	0.001326	-0.002883	0.245420	0.013371	0.969325	0.087451	-0.996133	-0.008401	0.965464	0.086830	-0.245640
29487	9.539644	-0.061634	-2.437974	-0.002835	0.000069	-0.001907	0.245439	0.013370	0.969320	0.087426	-0.996136	-0.008397	0.965462	0.086805	-0.245659
29488	9.530972	-0.083430	-2.412680	0.000360	0.003000	-0.001615	0.245429	0.013365	0.969322	0.087431	-0.996135	-0.008403	0.965464	0.086812	-0.245649
29489	9.554552	-0.085455	-2.406170	-0.001153	0.003070	-0.001811	0.245419	0.013361	0.969325	0.087423	-0.996136	-0.008404	0.965467	0.086803	-0.245638
29490	9.507616	-0.080860	-2.418320	-0.001153	0.003070	-0.001811	0.245408	0.013357	0.969328	0.087415	-0.996137	-0.008405	0.965471	0.086797	-0.245628
29491	9.543215	-0.087225	-2.459066	-0.001132	-0.000071	-0.003225	0.245427	0.013370	0.969323	0.087410	-0.996137	-0.008392	0.965466	0.086788	-0.245648
29492	9.527834	-0.056077	-2.389936	0.001978	0.001326	-0.002883	0.245432	0.013378	0.969321	0.087433	-0.996135	-0.008390	0.965463	0.086810	-0.245653
29493	9.511074	-0.106406	-2.439869	-0.003988	0.003138	-0.003719	0.245420	0.013393	0.969324	0.087401	-0.996138	-0.008365	0.965469	0.086773	-0.245642
29494	9.507768	-0.079681	-2.417763	0.000190	-0.000070	-0.001514	0.245439	0.013388	0.969319	0.087405	-0.996138	-0.008373	0.965464	0.086778	-0.245662
29495	9.560825	-0.086242	-2.428805	0.001597	0.001466	0.000146	0.245446	0.013366	0.969318	0.087418	-0.996136	-0.008399	0.965461	0.086797	-0.245666
29496	9.484316	-0.077329	-2.423782	0.000465	0.001395	-0.003079	0.245450	0.013376	0.969317	0.087427	-0.996136	-0.008392	0.965459	0.086804	-0.245671
29497	9.534731	-0.107905	-2.433085	-0.001153	0.003070	-0.001811	0.245440	0.013372	0.969320	0.087418	-0.996136	-0.008393	0.965462	0.086796	-0.245661
29498	9.531439	-0.081136	-2.410912	-0.000857	0.001395	-0.004790	0.245443	0.013399	0.969318	0.087421	-0.996136	-0.008366	0.965461	0.086792	-0.245667
29499	9.528815	-0.105039	-2.409110	0.000360	0.003000	-0.001615	0.245434	0.013394	0.969321	0.087426	-0.996136	-0.008372	0.965463	0.086799	-0.245657
29500	9.531585	-0.080663	-2.410352	0.003660	0.004327	-0.002786	0.245410	0.013398	0.969327	0.087465	-0.996132	-0.008375	0.965466	0.086837	-0.245633
29501	9.531677	-0.080350	-2.409996	-0.003988	0.003138	-0.003719	0.245398	0.013414	0.969330	0.087433	-0.996135	-0.008350	0.965472	0.086801	-0.245622
29502	9.529020	-0.104368	-2.408332	0.001428	-0.001604	0.000247	0.245433	0.013394	0.969321	0.087443	-0.996134	-0.008376	0.965462	0.086816	-0.245655
29503	9.529002	-0.104272	-2.408406	-0.002835	0.000068	-0.001907	0.245451	0.013393	0.969316	0.087418	-0.996137	-0.008372	0.965459	0.086790	-0.245674
29504	9.529040	-0.103962	-2.408270	0.002253	0.002792	-0.004447	0.245440	0.013415	0.969319	0.087448	-0.996134	-0.008357	0.965459	0.086817	-0.245664
29505	9.504908	-0.050776	-2.393924	-0.001047	0.001464	-0.003275	0.245444	0.013427	0.969318	0.087444	-0.996134	-0.008343	0.965459	0.086809	-0.245669
29506	9.525774	-0.076939	-2.385966	0.000275	0.001465	-0.001565	0.245448	0.013421	0.969317	0.087449	-0.996134	-0.008351	0.965457	0.086815	-0.245673
29507	9.540536	-0.056985	-2.434594	-0.001322	-0.000001	-0.001711	0.245467	0.013419	0.969312	0.087438	-0.996135	-0.008353	0.965453	0.086805	-0.245692
29508	9.531845	-0.078774	-2.409386	0.001978	0.001326	-0.002882	0.245473	0.013427	0.969311	0.087462	-0.996133	-0.008351	0.965450	0.086827	-0.245698
29509	9.523171	-0.100590	-2.384108	0.000275	0.001465	-0.001565	0.245478	0.013422	0.969309	0.087466	-0.996132	-0.008357	0.965448	0.086833	-0.245703
29510	9.531935	-0.078445	-2.409039	0.000359	0.003001	-0.001615	0.245467	0.013417	0.969312	0.087469	-0.996132	-0.008363	0.965451	0.086838	-0.245691
29511	9.502487	-0.073941	-2.391351	-0.001260	0.004675	-0.000347	0.245442	0.013397	0.969319	0.087456	-0.996133	-0.008377	0.965458	0.086829	-0.245665
29512	9.505908	-0.100242	-2.413091	-0.001322	-0.000001	-0.001711	0.245462	0.013395	0.969314	0.087445	-0.996134	-0.008378	0.965454	0.086818	-0.245685
29513	9.502544	-0.073646	-2.391134	0.000191	-0.000070	-0.001514	0.245483	0.013391	0.969309	0.087448	-0.996134	-0.008385	0.965449	0.086823	-0.245704
29514	9.555627	-0.080086	-2.402085	0.000359	0.003001	-0.001615	0.245471	0.013385	0.969311	0.087452	-0.996133	-0.008392	0.965451	0.086828	-0.245693
29515	9.535544	-0.104019	-2.430067	-0.000857	0.001395	-0.004790	0.245474	0.013412	0.969310	0.087453	-0.996133	-0.008364	0.965450	0.086823	-0.245698
29516	9.502671	-0.072842	-2.390656	0.001978	0.001327	-0.002882	0.245479	0.013421	0.969309	0.087477	-0.996131	-0.008362	0.965447	0.086845	-0.245704
29517	9.535639	-0.103328	-2.429725	-0.003988	0.003137	-0.003719	0.245467	0.013436	0.969312	0.087445	-0.996134	-0.008337	0.965453	0.086808	-0.245693
29518	9.511489	-0.050219	-2.415381	0.005004	0.001189	-0.002489	0.245474	0.013441	0.969310	0.087497	-0.996130	-0.008346	0.965446	0.086861	-0.245700
29519	9.553233	-0.102867	-2.399448	-0.004286	0.004812	-0.000741	0.245448	0.013425	0.969317	0.087455	-0.996133	-0.008349	0.965457	0.086821	-0.245673
29520	9.508970	-0.074132	-2.413207	0.000275	0.001465	-0.001564	0.245453	0.013419	0.969316	0.087459	-0.996133	-0.008356	0.965455	0.086827	-0.245677
29521	9.532529	-0.076099	-2.406764	0.000550	0.002931	-0.003129	0.245442	0.013429	0.969318	0.087470	-0.996132	-0.008348	0.965457	0.086835	-0.245668
29522	9.523875	-0.097931	-2.381407	-0.001429	0.001604	-0.000247	0.245449	0.013410	0.969317	0.087456	-0.996133	-0.008364	0.965457	0.086826	-0.245673
29523	9.532642	-0.075798	-2.406326	-0.001154	0.003070	-0.001811	0.245438	0.013407	0.969319	0.087447	-0.996134	-0.008365	0.965460	0.086817	-0.245662
29524	9.538756	-0.077850	-2.429599	0.005088	0.002724	-0.002538	0.245431	0.013410	0.969321	0.087501	-0.996129	-0.008374	0.965457	0.086872	-0.245654
29525	9.556268	-0.077686	-2.399610	0.000275	0.001465	-0.001564	0.245436	0.013405	0.969320	0.087505	-0.996129	-0.008381	0.965455	0.086878	-0.245659
29526	9.512695	-0.099614	-2.433830	0.000359	0.003001	-0.001615	0.245427	0.013399	0.969323	0.087510	-0.996128	-0.008387	0.965457	0.086884	-0.245649
29527	9.518067	-0.051124	-2.436860	-0.003216	0.000207	0.001120	0.245447	0.013369	0.969318	0.087474	-0.996131	-0.008411	0.965455	0.086854	-0.245666
29528	9.536258	-0.101746	-2.427360	0.000084	0.001535	-0.000050	0.245452	0.013349	0.969317	0.087472	-0.996131	-0.008431	0.965454	0.086857	-0.245670
29529	9.512115	-0.048877	-2.412942	0.001956	0.004467	-0.001468	0.245429	0.013341	0.969323	0.087492	-0.996129	-0.008443	0.965458	0.086880	-0.245646
29530	9.536387	-0.101555	-2.426860	-0.001322	-0.000001	-0.001711	0.245446	0.013338	0.969318	0.087480	-0.996130	-0.008445	0.965455	0.086869	-0.245663
29531	9.515570	-0.075062	-2.434616	0.000084	0.001535	-0.000050	0.245452	0.013318	0.969317	0.087479	-0.996130	-0.008465	0.965454	0.086872	-0.245667
29532	9.533064	-0.074998	-2.404678	-0.001429	0.001604	-0.000247	0.245455	0.013299	0.969317	0.087463	-0.996132	-0.008481	0.965454	0.086861	-0.245669
29533	9.515662	-0.075083	-2.434254	0.004707	0.002864	0.000491	0.245449	0.013272	0.969319	0.087505	-0.996128	-0.008518	0.965452	0.086911	-0.245660
29534	9.527105	-0.072652	-2.380781	-0.002453	-0.000072	-0.004937	0.245466	0.013302	0.969314	0.087493	-0.996129	-0.008487	0.965449	0.086891	-0.245680
29535	9.527162	-0.072356	-2.380563	-0.001260	0.004675	-0.000348	0.245442	0.013282	0.969320	0.087479	-0.996130	-0.008501	0.965456	0.086882	-0.245654
29536	9.507119	-0.096477	-2.408469	-0.001238	0.001534	-0.001761	0.245446	0.013279	0.969319	0.087470	-0.996131	-0.008502	0.965456	0.086873	-0.245658
29537	9.539392	-0.076519	-2.427144	-0.001345	0.003139	-0.000297	0.245437	0.013260	0.969322	0.087456	-0.996132	-0.008517	0.965460	0.086863	-0.245647
29538	9.533416	-0.074162	-2.403309	0.002063	0.002862	-0.002932	0.245427	0.013267	0.969324	0.087480	-0.996130	-0.008515	0.965460	0.086886	-0.245637
29539	9.536857	-0.100403	-2.425061	0.000275	0.001466	-0.001564	0.245432	0.013262	0.969323	0.087484	-0.996129	-0.008522	0.965458	0.086892	-0.245642
29540	9.510004	-0.071492	-2.409209	-0.000856	0.001395	-0.004790	0.245434	0.013289	0.969322	0.087485	-0.996130	-0.008495	0.965458	0.086886	-0.245646
29541	9.545665	-0.077874	-2.449853	0.001681	0.003002	0.000097	0.245426	0.013266	0.969325	0.087499	-0.996128	-0.008521	0.965459	0.086906	-0.245636
29542	9.513485	-0.097522	-2.430825	0.000573	-0.000209	-0.004543	0.245443	0.013292	0.969320	0.087512	-0.996127	-0.008500	0.965453	0.086914	-0.245656
29543	9.539704	-0.075097	-2.425964	-0.000879	0.004535	-0.003376	0.245417	0.013302	0.969326	0.087510	-0.996127	-0.008486	0.965460	0.086908	-0.245631
29544	9.537119	-0.099183	-2.424080	-0.001620	0.001674	0.001267	0.245423	0.013269	0.969325	0.087490	-0.996129	-0.008516	0.965460	0.086896	-0.245634
29545	9.486761	-0.068215	-2.414467	-0.000855	0.001395	-0.004790	0.245426	0.013296	0.969324	0.087491	-0.996129	-0.008488	0.965459	0.086891	-0.245640
29546	9.539837	-0.074459	-2.425461	0.000191	-0.000070	-0.001514	0.245447	0.013292	0.969319	0.087496	-0.996129	-0.008496	0.965453	0.086896	-0.245660
29547	9.531124	-0.096299	-2.400328	-0.001322	-0.000001	-0.001711	0.245467	0.013290	0.969314	0.087485	-0.996130	-0.008497	0.965449	0.086886	-0.245679
29548	9.537214	-0.098324	-2.423742	0.003576	0.002794	-0.002734	0.245457	0.013295	0.969316	0.087524	-0.996126	-0.008501	0.965448	0.086925	-0.245670
29549	9.513767	-0.096136	-2.429777	-0.000107	0.001605	0.001464	0.245464	0.013260	0.969315	0.087517	-0.996126	-0.008536	0.965447	0.086927	-0.245674
29550	9.539944	-0.073947	-2.425052	0.000574	-0.000209	-0.004543	0.245481	0.013286	0.969310	0.087530	-0.996125	-0.008514	0.965442	0.086934	-0.245693
29551	9.516482	-0.071580	-2.431154	-0.003049	0.003277	0.001019	0.245471	0.013254	0.969313	0.087496	-0.996128	-0.008537	0.965447	0.086907	-0.245680
29552	9.531327	-0.095628	-2.399549	0.000466	0.001396	-0.003079	0.245477	0.013263	0.969312	0.087508	-0.996127	-0.008531	0.965445	0.086916	-0.245687
29553	9.537401	-0.097556	-2.423036	0.000382	-0.000139	-0.003028	0.245496	0.013274	0.969307	0.087517	-0.996127	-0.008524	0.965439	0.086923	-0.245707
29554	9.525307	-0.092900	-2.375875	-0.001238	0.001534	-0.001762	0.245504	0.013272	0.969305	0.087508	-0.996127	-0.008525	0.965438	0.086915	-0.245715
29555	9.516613	-0.070762	-2.430665	0.000275	0.001466	-0.001564	0.245509	0.013267	0.969303	0.087512	-0.996127	-0.008531	0.965436	0.086921	-0.245719
29556	9.537498	-0.097019	-2.422679	-0.002942	0.001672	-0.000445	0.245513	0.013250	0.969303	0.087483	-0.996129	-0.008541	0.965438	0.086894	-0.245722
29557	9.516727	-0.070364	-2.430228	0.000825	0.004397	-0.004693	0.245487	0.013274	0.969309	0.087500	-0.996128	-0.008519	0.965443	0.086906	-0.245698
29558	9.537609	-0.096563	-2.422257	0.001429	-0.001604	0.000247	0.245524	0.013254	0.969300	0.087511	-0.996127	-0.008546	0.965432	0.086923	-0.245733
29559	9.540302	-0.072148	-2.423699	-0.003904	0.004672	-0.003771	0.245496	0.013268	0.969307	0.087481	-0.996130	-0.008521	0.965442	0.086887	-0.245707
29560	9.508165	-0.091765	-2.404522	0.000084	0.001535	-0.000050	0.245502	0.013248	0.969306	0.087479	-0.996130	-0.008542	0.965441	0.086891	-0.245711
29561	9.546476	-0.073983	-2.446811	0.000466	0.001396	-0.003078	0.245507	0.013259	0.969304	0.087489	-0.996129	-0.008534	0.965439	0.086899	-0.245716
29562	9.510892	-0.067235	-2.405827	-0.001429	0.001604	-0.000247	0.245511	0.013240	0.969303	0.087474	-0.996130	-0.008550	0.965439	0.086888	-0.245719
29563	9.514338	-0.093490	-2.427644	0.000466	0.001396	-0.003078	0.245516	0.013250	0.969302	0.087484	-0.996129	-0.008542	0.965437	0.086895	-0.245725
29564	9.531851	-0.093205	-2.397560	-0.001070	0.004605	-0.001862	0.245492	0.013245	0.969308	0.087478	-0.996130	-0.008544	0.965444	0.086890	-0.245701
29565	9.517157	-0.068813	-2.428590	0.002063	0.002863	-0.002931	0.245483	0.013253	0.969310	0.087503	-0.996128	-0.008541	0.965444	0.086914	-0.245692
29566	9.544164	-0.097058	-2.443937	-0.003904	0.004672	-0.003771	0.245455	0.013267	0.969317	0.087472	-0.996131	-0.008517	0.965454	0.086879	-0.245666
29567	9.493789	-0.066113	-2.434342	0.001429	-0.001604	0.000248	0.245491	0.013246	0.969308	0.087483	-0.996129	-0.008544	0.965443	0.086896	-0.245700
29568	9.514657	-0.092379	-2.426437	0.000550	0.002932	-0.003128	0.245482	0.013255	0.969311	0.087494	-0.996128	-0.008536	0.965445	0.086904	-0.245691
29569	9.532166	-0.092023	-2.396353	-0.000962	0.003000	-0.003326	0.245471	0.013267	0.969313	0.087491	-0.996129	-0.008522	0.965448	0.086898	-0.245681
29570	9.541706	-0.120382	-2.441644	-0.001238	0.001534	-0.001762	0.245475	0.013264	0.969312	0.087479	-0.996130	-0.008523	0.965448	0.086886	-0.245685
29571	9.508761	-0.089424	-2.402252	0.000275	0.001466	-0.001564	0.245480	0.013259	0.969311	0.087483	-0.996129	-0.008529	0.965446	0.086892	-0.245690
29572	9.534944	-0.067084	-2.397448	0.000658	0.001327	-0.004593	0.245486	0.013284	0.969309	0.087501	-0.996128	-0.008508	0.965443	0.086904	-0.245698
29573	9.532354	-0.091005	-2.395645	-0.004371	0.003275	-0.000693	0.245474	0.013269	0.969312	0.087458	-0.996132	-0.008512	0.965450	0.086863	-0.245685
29574	9.517588	-0.066636	-2.426960	0.001812	-0.001743	-0.002781	0.245362	0.013426	0.969339	0.087526	-0.996127	-0.008358	0.965472	0.086893	-0.245587
29575	9.555891	-0.092924	-2.389248	-0.000024	0.003140	0.001414	0.245354	0.013390	0.969341	0.087520	-0.996127	-0.008393	0.965475	0.086896	-0.245576
29576	9.514996	-0.090766	-2.425168	0.001896	-0.000207	-0.002831	0.245374	0.013399	0.969336	0.087541	-0.996126	-0.008390	0.965468	0.086916	-0.245596
29577	9.538513	-0.092783	-2.418843	-0.001429	0.001604	-0.000248	0.245379	0.013381	0.969335	0.087526	-0.996127	-0.008405	0.965468	0.086905	-0.245600
29578	9.517698	-0.066209	-2.426541	-0.001046	0.001464	-0.003276	0.245384	0.013394	0.969333	0.087523	-0.996127	-0.008392	0.965467	0.086898	-0.245606
29579	9.529877	-0.114403	-2.393423	-0.001429	0.001604	-0.000248	0.245389	0.013377	0.969332	0.087508	-0.996128	-0.008406	0.965467	0.086887	-0.245609
29580	9.515146	-0.090184	-2.424598	0.003384	0.002865	-0.001219	0.245380	0.013366	0.969335	0.087541	-0.996125	-0.008424	0.965466	0.086923	-0.245599
29581	9.547433	-0.070138	-2.443187	-0.000962	0.003000	-0.003326	0.245369	0.013378	0.969337	0.087537	-0.996126	-0.008411	0.965470	0.086917	-0.245589
29582	9.515295	-0.089894	-2.424026	-0.000025	0.003140	0.001414	0.245360	0.013341	0.969340	0.087532	-0.996126	-0.008446	0.965472	0.086920	-0.245577
29583	9.511922	-0.063426	-2.401853	0.001980	0.001328	-0.002881	0.245366	0.013350	0.969339	0.087556	-0.996124	-0.008444	0.965469	0.086943	-0.245583
29584	9.521459	-0.091882	-2.447215	-0.002942	0.001672	-0.000445	0.245369	0.013333	0.969338	0.087525	-0.996126	-0.008453	0.965471	0.086915	-0.245585
29585	9.515445	-0.089549	-2.423449	0.000359	0.003001	-0.001614	0.245359	0.013328	0.969341	0.087530	-0.996126	-0.008460	0.965473	0.086922	-0.245575
29586	9.515519	-0.089334	-2.423167	0.000550	0.002932	-0.003128	0.245349	0.013338	0.969343	0.087540	-0.996125	-0.008451	0.965474	0.086929	-0.245566
29587	9.536430	-0.115452	-2.415115	0.001980	0.001328	-0.002881	0.245354	0.013346	0.969342	0.087564	-0.996123	-0.008449	0.965471	0.086952	-0.245572
29588	9.547824	-0.068934	-2.441694	-0.001046	0.001464	-0.003276	0.245357	0.013358	0.969341	0.087558	-0.996124	-0.008435	0.965471	0.086943	-0.245576
29589	9.515630	-0.088601	-2.422758	-0.001513	0.000068	-0.000198	0.245377	0.013341	0.969336	0.087542	-0.996125	-0.008451	0.965467	0.086931	-0.245594
29590	9.533072	-0.088411	-2.392883	0.001980	0.001328	-0.002880	0.245382	0.013349	0.969335	0.087564	-0.996123	-0.008449	0.965464	0.086952	-0.245599
29591	9.515667	-0.088222	-2.422625	-0.002834	0.000066	-0.001910	0.245400	0.013349	0.969330	0.087539	-0.996125	-0.008444	0.965461	0.086927	-0.245618
29592	9.518345	-0.063736	-2.424067	0.000550	0.002932	-0.003128	0.245389	0.013358	0.969333	0.087549	-0.996125	-0.008436	0.965463	0.086934	-0.245608
29593	9.539296	-0.089820	-2.415865	0.000634	0.004467	-0.003178	0.245364	0.013367	0.969339	0.087561	-0.996124	-0.008427	0.965469	0.086944	-0.245583
29594	9.535932	-0.063156	-2.393620	-0.001238	0.001534	-0.001762	0.245368	0.013364	0.969338	0.087550	-0.996124	-0.008428	0.965468	0.086934	-0.245587
29595	9.509851	-0.085082	-2.398090	0.001871	0.002934	-0.001416	0.245359	0.013357	0.969340	0.087570	-0.996123	-0.008440	0.965469	0.086956	-0.245578
29596	9.512542	-0.060747	-2.399464	0.000275	0.001466	-0.001564	0.245365	0.013352	0.969339	0.087573	-0.996122	-0.008446	0.965467	0.086961	-0.245583
29597	9.530802	-0.111332	-2.389882	-0.000109	0.001605	0.001464	0.245371	0.013317	0.969338	0.087567	-0.996123	-0.008481	0.965466	0.086963	-0.245586
29598	9.548289	-0.067012	-2.439928	0.001126	0.002723	-0.007670	0.245359	0.013373	0.969340	0.087593	-0.996121	-0.008430	0.965467	0.086976	-0.245579
29599	9.492633	-0.084354	-2.427133	-0.001429	0.001603	-0.000248	0.245364	0.013355	0.969339	0.087578	-0.996122	-0.008444	0.965467	0.086965	-0.245582
29600	9.563166	-0.090640	-2.408175	-0.002750	0.001602	-0.001960	0.245367	0.013353	0.969338	0.087555	-0.996124	-0.008441	0.965468	0.086941	-0.245586
29601	9.510148	-0.083919	-2.396951	-0.001154	0.003069	-0.001812	0.245357	0.013349	0.969341	0.087546	-0.996125	-0.008441	0.965472	0.086933	-0.245575
29602	9.501524	-0.061752	-2.451597	-0.001154	0.003069	-0.001812	0.245348	0.013346	0.969343	0.087539	-0.996125	-0.008441	0.965475	0.086926	-0.245566
29603	9.539858	-0.087894	-2.413716	0.000275	0.001466	-0.001564	0.245353	0.013342	0.969342	0.087543	-0.996125	-0.008448	0.965473	0.086932	-0.245571
29604	9.507699	-0.107722	-2.394649	0.001679	0.003003	0.000098	0.245346	0.013319	0.969344	0.087558	-0.996123	-0.008474	0.965474	0.086952	-0.245561
29605	9.563464	-0.089947	-2.407016	0.000275	0.001466	-0.001564	0.245351	0.013315	0.969343	0.087562	-0.996123	-0.008480	0.965472	0.086958	-0.245565
29606	9.489601	-0.056932	-2.403576	-0.004288	0.004810	-0.000744	0.245325	0.013298	0.969350	0.087521	-0.996126	-0.008485	0.965482	0.086920	-0.245539
29607	9.546204	-0.089641	-2.436240	0.001980	0.001329	-0.002880	0.245330	0.013307	0.969348	0.087546	-0.996124	-0.008482	0.965478	0.086943	-0.245545
29608	9.519292	-0.060892	-2.420420	0.000275	0.001466	-0.001564	0.245335	0.013302	0.969347	0.087548	-0.996124	-0.008488	0.965477	0.086947	-0.245549
29609	9.540211	-0.087113	-2.412351	0.000358	0.003002	-0.001614	0.245325	0.013296	0.969350	0.087553	-0.996124	-0.008495	0.965479	0.086954	-0.245538
29610	9.514137	-0.109045	-2.416830	0.000275	0.001466	-0.001564	0.245331	0.013291	0.969348	0.087558	-0.996123	-0.008502	0.965477	0.086960	-0.245543
29611	9.528149	-0.082470	-2.364837	-0.001346	0.003139	-0.000298	0.245321	0.013272	0.969351	0.087544	-0.996124	-0.008516	0.965481	0.086950	-0.245532
29612	9.540379	-0.086668	-2.411699	-0.001045	0.001464	-0.003276	0.245324	0.013285	0.969350	0.087539	-0.996125	-0.008503	0.965481	0.086942	-0.245537
29613	9.537844	-0.110491	-2.409755	-0.003821	0.006206	-0.003822	0.245282	0.013298	0.969361	0.087509	-0.996128	-0.008477	0.965494	0.086907	-0.245496
29614	9.517056	-0.083970	-2.417315	-0.000192	0.000069	0.001514	0.245302	0.013264	0.969356	0.087499	-0.996128	-0.008512	0.965490	0.086906	-0.245512
29615	9.517093	-0.083827	-2.417176	0.000743	0.002863	-0.004642	0.245291	0.013288	0.969359	0.087515	-0.996127	-0.008490	0.965491	0.086916	-0.245504
29616	9.517148	-0.083614	-2.416966	0.000083	0.001536	-0.000050	0.245297	0.013269	0.969357	0.087514	-0.996127	-0.008510	0.965490	0.086920	-0.245508
29617	9.540717	-0.085610	-2.410401	0.000634	0.004468	-0.003178	0.245272	0.013278	0.969363	0.087526	-0.996126	-0.008502	0.965495	0.086930	-0.245484
29618	9.540772	-0.085466	-2.410188	0.000000	0.000000	0.000000	0.245271	0.013277	0.969364	0.087526	-0.996126	-0.008503	0.965495	0.086930	-0.245483
29619	9.540791	-0.085297	-2.410118	-0.001045	0.001464	-0.003276	0.245275	0.013289	0.969362	0.087522	-0.996126	-0.008489	0.965495	0.086923	-0.245488
29620	9.517353	-0.082888	-2.416183	-0.001154	0.003069	-0.001812	0.245263	0.013284	0.969366	0.087511	-0.996127	-0.008490	0.965499	0.086912	-0.245475
29621	9.534795	-0.082704	-2.386215	-0.001513	0.000068	-0.000198	0.245283	0.013267	0.969361	0.087495	-0.996129	-0.008506	0.965495	0.086900	-0.245494
29622	9.534830	-0.082519	-2.386081	0.003768	0.002728	-0.004245	0.245272	0.013287	0.969363	0.087538	-0.996125	-0.008496	0.965494	0.086940	-0.245485
29623	9.493967	-0.080212	-2.422054	0.000192	-0.000069	-0.001514	0.245292	0.013283	0.969358	0.087542	-0.996125	-0.008502	0.965489	0.086945	-0.245504
29624	9.540994	-0.084248	-2.409352	-0.000962	0.003000	-0.003326	0.245281	0.013295	0.969361	0.087539	-0.996125	-0.008488	0.965492	0.086938	-0.245495
29625	9.538442	-0.108254	-2.407489	0.001871	0.002934	-0.001415	0.245272	0.013287	0.969363	0.087558	-0.996123	-0.008500	0.965492	0.086960	-0.245485
29626	9.547200	-0.086059	-2.432465	-0.002833	0.000066	-0.001911	0.245291	0.013288	0.969358	0.087532	-0.996125	-0.008495	0.965490	0.086934	-0.245504
29627	9.494154	-0.079322	-2.421350	0.000551	0.002932	-0.003128	0.245281	0.013297	0.969361	0.087543	-0.996125	-0.008487	0.965491	0.086943	-0.245494
29628	9.541218	-0.083422	-2.408495	-0.001347	0.003139	-0.000298	0.245271	0.013278	0.969364	0.087529	-0.996126	-0.008502	0.965495	0.086932	-0.245483
29629	9.521252	-0.107601	-2.436519	0.000275	0.001466	-0.001564	0.245276	0.013274	0.969362	0.087533	-0.996125	-0.008508	0.965493	0.086938	-0.245488
29630	9.517854	-0.080942	-2.414274	-0.000879	0.004536	-0.003376	0.245250	0.013285	0.969369	0.087530	-0.996126	-0.008493	0.965500	0.086932	-0.245463
29631	9.544915	-0.109305	-2.429594	0.003383	0.002867	-0.001217	0.245242	0.013276	0.969371	0.087563	-0.996123	-0.008511	0.965499	0.086969	-0.245454
29632	9.485785	-0.100433	-2.394880	-0.002557	0.001532	-0.003475	0.245245	0.013290	0.969370	0.087544	-0.996124	-0.008492	0.965500	0.086945	-0.245458
29633	9.518039	-0.080245	-2.413567	-0.001237	0.001534	-0.001762	0.245249	0.013287	0.969369	0.087535	-0.996125	-0.008493	0.965500	0.086936	-0.245462
29634	9.518077	-0.080075	-2.413424	0.000275	0.001466	-0.001564	0.245255	0.013282	0.969368	0.087540	-0.996125	-0.008499	0.965498	0.086943	-0.245468
29635	9.538986	-0.106218	-2.405422	0.000468	0.001397	-0.003078	0.245260	0.013293	0.969366	0.087550	-0.996124	-0.008492	0.965496	0.086951	-0.245473
29636	9.515548	-0.103802	-2.411503	0.000551	0.002933	-0.003128	0.245249	0.013302	0.969369	0.087561	-0.996123	-0.008484	0.965498	0.086959	-0.245463
29637	9.524305	-0.081660	-2.436482	0.001513	-0.000067	0.000199	0.245271	0.013281	0.969364	0.087573	-0.996122	-0.008510	0.965491	0.086977	-0.245483
29638	9.512158	-0.077268	-2.389187	-0.001264	0.004674	-0.000348	0.245246	0.013262	0.969370	0.087558	-0.996123	-0.008524	0.965499	0.086967	-0.245456
29639	9.545309	-0.107864	-2.428108	0.001981	0.001330	-0.002879	0.245252	0.013270	0.969369	0.087582	-0.996121	-0.008522	0.965495	0.086989	-0.245462
29640	9.518389	-0.079006	-2.412230	-0.002474	0.003067	-0.003525	0.245240	0.013283	0.969371	0.087565	-0.996123	-0.008503	0.965500	0.086968	-0.245452
29641	9.548043	-0.082963	-2.429262	-0.001045	0.001464	-0.003276	0.245244	0.013296	0.969370	0.087561	-0.996123	-0.008489	0.965499	0.086961	-0.245457
29642	9.533275	-0.102460	-2.380398	-0.000962	0.003000	-0.003326	0.245233	0.013307	0.969373	0.087557	-0.996123	-0.008476	0.965502	0.086954	-0.245447
29643	9.495065	-0.075863	-2.417886	0.000468	0.001397	-0.003078	0.245237	0.013318	0.969372	0.087567	-0.996123	-0.008468	0.965500	0.086962	-0.245452
29644	9.542107	-0.079947	-2.405087	-0.001347	0.003138	-0.000298	0.245227	0.013299	0.969374	0.087552	-0.996124	-0.008482	0.965504	0.086950	-0.245441
29645	9.524794	-0.080007	-2.434623	0.001678	0.003004	0.000099	0.245219	0.013277	0.969377	0.087566	-0.996122	-0.008508	0.965505	0.086970	-0.245431
29646	9.522216	-0.103989	-2.432906	-0.002447	-0.000073	-0.004939	0.245235	0.013306	0.969372	0.087551	-0.996124	-0.008476	0.965502	0.086948	-0.245449
29647	9.495268	-0.075166	-2.417108	0.003383	0.002868	-0.001216	0.245227	0.013297	0.969375	0.087584	-0.996121	-0.008493	0.965501	0.086985	-0.245440
29648	9.548436	-0.081368	-2.427771	-0.003987	0.003134	-0.003724	0.245214	0.013312	0.969378	0.087553	-0.996124	-0.008469	0.965507	0.086949	-0.245429
