// General information: 
//  MT Manager version: 2019.2.0 
//  XDA version: 2019.2.0 build 3853 rev 94535 built on 2019-09-09
// Device information: 
//  DeviceId: 00B44112
//  ProductCode: MTW2-3A7G6
//  Firmware Version: 4.3.5
//  Hardware Version: 1.1.0
// Device settings: 
//  Filter Profile: human(46.1)
//  Option Flags: Orientation Smoother Disabled, AHS Disabled, ICC Disabled
// Coordinate system: ENU
PacketCounter	Acc_X	Acc_Y	Acc_Z	Gyr_X	Gyr_Y	Gyr_Z
25641	9.769494	0.090427	0.149447	-0.001348	-0.000415	0.002932
25642	9.810869	0.118489	0.127960	-0.000705	-0.000681	0.004947
25643	9.796961	0.123667	0.108831	-0.005892	0.002440	0.006710
25644	9.794290	0.075744	0.096703	-0.002053	-0.001096	0.007880
25645	9.814314	0.077616	0.082750	-0.001206	-0.002745	0.003287
25646	9.811258	0.070379	0.207002	-0.003259	0.002323	0.007808
25647	9.806872	0.044761	0.109710	-0.001348	-0.000415	0.002933
25648	9.819084	0.060991	0.043837	-0.000141	0.002329	-0.000354
25649	9.779047	0.056128	0.071643	-0.003197	0.003270	0.000845
25650	9.822119	0.062408	0.135729	-0.001206	0.003419	-0.000072
25651	9.782075	0.057499	0.163693	-0.005328	0.005450	0.001409
25652	9.802090	0.059769	0.150299	-0.004121	0.002031	0.001481
25653	9.776352	0.008475	0.060760	-0.001489	0.001914	0.002579
25654	9.806850	0.044030	0.112006	-0.003619	0.010258	-0.000215
25655	9.709419	0.079029	0.193726	-0.001630	0.004243	0.002226
25656	9.778613	0.095686	0.211112	-0.002554	0.003004	0.002861
25657	9.789506	0.088124	0.139168	-0.003338	-0.000565	0.003850
25658	9.761702	0.099292	0.100619	-0.002273	-0.001655	0.003568
25659	9.803096	0.127459	0.079286	-0.000564	0.003153	0.001944
25660	9.778305	0.140022	0.132242	-0.004686	-0.000981	0.006783
25661	9.790871	0.109931	0.145256	-0.002054	-0.001098	0.007882
25662	9.760370	0.073830	0.094589	-0.003055	0.000941	0.001200
25663	9.810899	0.111711	0.131636	-0.001488	0.001913	0.002580
25664	9.770851	0.106542	0.159440	-0.000987	0.003976	0.004242
25665	9.755601	0.088222	0.134262	-0.002696	-0.000832	0.005867
25666	9.806849	0.039602	0.113680	-0.003338	-0.000565	0.003851
25667	9.826877	0.041551	0.099802	-0.001631	-0.001922	0.005584
25668	9.794307	0.068306	0.100478	-0.002772	0.002447	-0.001451
25669	9.789538	0.083457	0.139758	-0.000204	0.001379	0.006612
25670	9.788185	0.059279	0.133732	-0.001771	0.000407	0.005232
25671	9.800729	0.029439	0.146885	-0.004403	0.000525	0.004134
25672	9.772931	0.040493	0.108484	-0.003761	0.000257	0.006150
25673	9.768164	0.055339	0.147777	-0.002976	0.003826	0.005162
25674	9.789550	0.081091	0.140327	0.000000	0.000000	0.000000
25675	9.829607	0.085492	0.112704	-0.002979	-0.002339	0.008519
25676	9.794326	0.064581	0.101081	-0.002836	0.001496	0.005515
25677	9.828251	0.060885	0.106614	-0.001990	-0.000149	0.000918
25678	9.770898	0.100597	0.160472	-0.002190	0.007394	0.004175
25679	9.758366	0.129519	0.147753	-0.001771	0.000406	0.005233
25680	9.790929	0.102109	0.147043	-0.002273	-0.001656	0.003570
25681	9.794331	0.062683	0.101768	-0.001771	0.000406	0.005233
25682	9.790937	0.101356	0.147052	-0.003055	0.000941	0.001201
25683	9.777043	0.106848	0.128014	-0.001910	0.002735	0.004881
25684	9.817105	0.111113	0.100490	-0.002557	-0.003163	0.006222
25685	9.812997	0.039752	0.082042	-0.002836	0.001496	0.005517
25686	9.774315	0.058023	0.115711	-0.000706	-0.000685	0.004951
25687	9.788211	0.051712	0.134972	-0.002835	0.001496	0.005517
25688	9.783452	0.066575	0.174163	-0.001771	0.000405	0.005234
25689	9.794352	0.058823	0.102128	-0.003761	0.000256	0.006153
25690	9.786839	0.026468	0.129008	-0.001771	0.000405	0.005235
25691	9.792977	0.034254	0.096090	-0.002413	0.000673	0.003218
25692	9.809628	0.075298	0.127683	0.001145	0.001793	0.003681
25693	9.774330	0.054820	0.116049	-0.003841	-0.002627	0.002190
25694	9.790984	0.095836	0.147584	-0.002974	0.003825	0.005166
25695	9.790985	0.095422	0.147806	-0.002413	0.000673	0.003218
25696	9.790986	0.095008	0.148029	-0.002974	0.003825	0.005166
25697	9.764593	0.129801	0.115941	-0.002413	0.000673	0.003219
25698	9.812404	0.120263	0.140700	-0.002413	0.000673	0.003219
25699	9.789392	0.115901	0.063302	-0.000626	0.002197	0.008917
25700	9.797141	0.101123	0.115668	-0.000203	0.001375	0.006617
25701	9.791004	0.092286	0.148551	-0.002558	-0.003164	0.006224
25702	9.777123	0.097634	0.129211	-0.002412	0.000673	0.003219
25703	9.794375	0.052513	0.103320	-0.003477	0.001763	0.003503
25704	9.774343	0.049676	0.117230	-0.002835	0.001495	0.005520
25705	9.788232	0.043215	0.136417	-0.000991	-0.002194	0.007606
25706	9.808269	0.044981	0.122580	-0.006393	0.000376	0.005058
25707	9.792990	0.026551	0.097247	0.001503	0.000014	0.008352
25708	9.760470	0.053061	0.098118	-0.006246	0.004213	0.002054
25709	9.829700	0.069552	0.115500	-0.001486	0.001912	0.002584
25710	9.774352	0.046624	0.117753	-0.001771	0.000404	0.005237
25711	9.791036	0.087448	0.149341	-0.002834	0.001494	0.005521
25712	9.775755	0.069141	0.124132	-0.002834	0.001494	0.005521
25713	9.783312	0.100529	0.097526	-0.002550	0.003002	0.002869
25714	9.811076	0.088428	0.136128	-0.003761	0.000255	0.006157
25715	9.777161	0.091471	0.130822	-0.000560	0.003151	0.001950
25716	9.777166	0.091099	0.130716	-0.000432	-0.005347	0.005657
25717	9.803363	0.101346	0.083844	-0.004118	0.002033	0.001487
25718	9.783329	0.098534	0.097867	-0.002330	0.003553	0.007188
25719	9.797211	0.092076	0.117336	-0.002834	0.001493	0.005522
25720	9.777178	0.089231	0.131129	-0.003339	-0.000567	0.003857
25721	9.815845	0.069960	0.097491	-0.001770	0.000403	0.005239
25722	9.815846	0.069673	0.097619	-0.002127	0.002181	0.000568
25723	9.760483	0.046801	0.099971	-0.005888	0.002435	0.006727
25724	9.795813	0.066209	0.111660	-0.002055	-0.001107	0.007892
25725	9.808277	0.036268	0.124774	-0.001485	0.001911	0.002586
25726	9.795818	0.065196	0.111855	-0.002192	0.001223	0.007542
25727	9.775782	0.062303	0.125638	-0.001349	-0.000418	0.002938
25728	9.755744	0.059593	0.139501	-0.004539	0.002853	0.003791
25729	9.795823	0.063984	0.112077	-0.002275	-0.001658	0.003573
25730	9.797246	0.087134	0.118166	-0.001770	0.000402	0.005240
25731	9.795830	0.062936	0.112044	-0.001129	0.000131	0.007258
25732	9.778637	0.107378	0.138093	-0.004622	-0.000026	-0.000178
25733	9.797256	0.085851	0.118269	-0.000202	0.001370	0.006623
25734	9.778645	0.106545	0.138203	-0.003339	-0.000567	0.003858
25735	9.832600	0.104978	0.129987	-0.002833	0.001492	0.005525
25736	9.777226	0.082067	0.132207	-0.002412	0.000672	0.003223
25737	9.784824	0.113460	0.105454	-0.001770	0.000401	0.005241
25738	9.777231	0.081281	0.132322	-0.000422	0.000820	0.002303
25739	9.797279	0.083057	0.118387	-0.004836	-0.004826	0.009802
25740	9.794423	0.035479	0.105965	-0.002768	0.002453	-0.001449
25741	9.775813	0.056343	0.126035	-0.004182	0.001072	0.008465
25742	9.789685	0.049841	0.145387	-0.000843	0.001640	0.004606
25743	9.795858	0.057540	0.112522	-0.003760	0.000252	0.006162
25744	9.760515	0.036877	0.100974	-0.002833	0.001491	0.005527
25745	9.795861	0.056466	0.112764	-0.000843	0.001639	0.004607
25746	9.795861	0.056112	0.112939	-0.001484	0.001910	0.002588
25747	9.783434	0.085073	0.099979	-0.001128	0.000129	0.007261
25748	9.777263	0.076296	0.132917	-0.003339	-0.000567	0.003860
25749	9.798748	0.101697	0.125486	-0.002327	0.003549	0.007196
25750	9.778705	0.098935	0.139561	-0.003188	0.003273	0.000855
25751	9.766281	0.128114	0.126745	-0.000843	0.001639	0.004607
25752	9.812615	0.094659	0.145440	-0.002833	0.001491	0.005528
25753	9.771028	0.111727	0.087931	-0.002833	0.001491	0.005528
25754	9.798756	0.099630	0.126545	0.000506	0.002058	0.001668
25755	9.798755	0.099279	0.126888	-0.004031	0.004911	0.005463
25756	9.797313	0.075123	0.120813	-0.002562	-0.003169	0.006229
25757	9.797317	0.074607	0.120853	-0.000978	0.003968	0.004258
25758	9.755777	0.045797	0.142367	-0.003760	0.000252	0.006165
25759	9.795872	0.049953	0.114931	-0.001770	0.000399	0.005244
25760	9.771094	0.062389	0.167765	-0.002698	-0.000840	0.005880
25761	9.829783	0.045401	0.120327	-0.003339	-0.000568	0.003861
25762	9.748114	0.057981	0.090146	-0.002411	0.000671	0.003225
25763	9.829787	0.044584	0.120380	-0.003760	0.000251	0.006166
25764	9.782025	0.053448	0.095657	-0.000707	-0.000692	0.004959
25765	9.812660	0.088398	0.146371	-0.003339	-0.000568	0.003861
25766	9.763441	0.073873	0.115560	-0.003474	0.001762	0.003511
25767	9.798805	0.093584	0.127336	-0.002411	0.000671	0.003226
25768	9.798809	0.093114	0.127383	0.000862	0.000274	0.006344
25769	9.818860	0.094996	0.113696	-0.002411	0.000671	0.003226
25770	9.800280	0.115724	0.133589	-0.004688	-0.000988	0.006803
25771	9.764917	0.095255	0.122041	-0.000555	0.003148	0.001955
25772	9.764920	0.094773	0.122142	-0.002056	-0.001113	0.007901
25773	9.798827	0.090685	0.127775	-0.003607	0.004092	0.003162
25774	9.812684	0.084405	0.147108	0.000355	-0.001784	0.004675
25775	9.784980	0.095708	0.108604	-0.001770	0.000398	0.005246
25776	9.797368	0.065738	0.121803	-0.001904	0.002728	0.004897
25777	9.777319	0.062976	0.135757	-0.003473	0.001762	0.003513
25778	9.797371	0.064859	0.122072	-0.002698	-0.000841	0.005882
25779	9.777327	0.061948	0.135669	-0.001636	-0.001932	0.005597
25780	9.809759	0.034364	0.134972	0.001149	0.001784	0.003690
25781	9.797380	0.063438	0.122098	-0.005463	0.001615	0.004435
25782	9.763480	0.066565	0.116719	0.000221	0.000545	0.004326
25783	9.797385	0.062618	0.122152	-0.002277	-0.001659	0.003577
25784	9.797387	0.062214	0.122151	-0.000841	0.001636	0.004612
25785	9.763488	0.065180	0.116805	-0.002190	0.001215	0.007554
25786	9.818920	0.087098	0.114848	-0.003052	0.000944	0.001208
25787	9.778822	0.081999	0.142363	-0.001128	0.000124	0.007268
25788	9.820409	0.109621	0.121163	-0.002831	0.001488	0.005534
25789	9.778827	0.081051	0.142511	-0.001990	-0.000147	0.000922
25790	9.785032	0.088996	0.109577	-0.001769	0.000397	0.005248
25791	9.800366	0.106256	0.135144	-0.002544	0.003000	0.002879
25792	9.800367	0.105840	0.135367	-0.002831	0.001488	0.005535
25793	9.805092	0.090003	0.096278	-0.000708	-0.000695	0.004962
25794	9.785043	0.087182	0.110108	-0.001903	0.002727	0.004899
25795	9.778836	0.078501	0.143330	-0.004534	0.002853	0.003801
25796	9.783558	0.062605	0.104287	-0.002057	-0.001116	0.007905
25797	9.817460	0.058506	0.109817	-0.001482	0.001909	0.002593
25798	9.775862	0.029768	0.131241	-0.002190	0.001213	0.007556
25799	9.772639	0.068093	0.176591	-0.003339	-0.000568	0.003865
25800	9.782074	0.037110	0.098334	-0.002410	0.000670	0.003229
25801	9.778854	0.075578	0.143706	-0.001769	0.000396	0.005250
25802	9.785067	0.083334	0.110916	-0.001902	0.002726	0.004901
25803	9.791285	0.090929	0.077991	-0.002986	-0.002356	0.008542
25804	9.800418	0.099769	0.136322	-0.001482	0.001909	0.002594
25805	9.780362	0.097102	0.150337	-0.000973	0.003964	0.004266
25806	9.780364	0.096716	0.150452	-0.002278	-0.001660	0.003579
25807	9.786584	0.104523	0.117502	-0.002830	0.001487	0.005537
25808	9.800428	0.098114	0.136822	-0.004400	0.000523	0.004153
25809	9.785089	0.079946	0.111507	-0.000199	0.001359	0.006636
25810	9.785089	0.079525	0.111728	-0.000552	0.003147	0.001959
25811	9.820494	0.098969	0.123453	-0.002986	-0.002357	0.008544
25812	9.798935	0.072673	0.130986	-0.000132	0.002330	-0.000349
25813	9.765042	0.075993	0.125452	-0.002566	-0.003174	0.006236
25814	9.783594	0.054234	0.105574	-0.000972	0.003964	0.004267
25815	9.817489	0.050152	0.111282	-0.001769	0.000395	0.005252
25816	9.797434	0.047328	0.124992	-0.000708	-0.000697	0.004965
25817	9.783601	0.052765	0.105760	-0.001769	0.000395	0.005252
25818	9.765058	0.073450	0.125712	-0.003759	0.000248	0.006175
25819	9.798959	0.069278	0.131017	0.000484	-0.004119	0.005027
25820	9.811282	0.039367	0.144038	-0.003602	0.004092	0.003169
25821	9.785126	0.074335	0.112067	-0.000199	0.001358	0.006638
25822	9.786648	0.097318	0.118350	-0.001769	0.000394	0.005253
25823	9.798968	0.067259	0.131351	-0.002698	-0.000844	0.005889
25824	9.800493	0.090276	0.137528	-0.001769	0.000394	0.005253
25825	9.785142	0.072141	0.112153	-0.001769	0.000394	0.005253
25826	9.786666	0.095320	0.118465	-0.001480	0.001908	0.002596
25827	9.780441	0.086595	0.151621	-0.005880	0.002431	0.006751
25828	9.805207	0.073029	0.098846	-0.000708	-0.000698	0.004967
25829	9.786677	0.093764	0.118809	-0.002829	0.001486	0.005541
25830	9.820573	0.089559	0.124338	-0.002698	-0.000845	0.005890
25831	9.780456	0.084473	0.151829	-0.003470	0.001761	0.003520
25832	9.783629	0.045164	0.106647	-0.002829	0.001485	0.005542
25833	9.786691	0.091858	0.119160	-0.002410	0.000669	0.003233
25834	9.778929	0.059689	0.146015	0.001151	0.001778	0.003695
25835	9.783631	0.043908	0.106974	-0.003759	0.000247	0.006178
25836	9.782099	0.019913	0.100876	-0.001480	0.001908	0.002597
25837	9.814357	0.078308	0.157983	-0.000708	-0.000699	0.004967
25838	9.798998	0.060090	0.132587	-0.002188	0.001209	0.007565
25839	9.766649	0.086680	0.133375	-0.001769	0.000393	0.005255
25840	9.785178	0.064988	0.113389	-0.002279	-0.001661	0.003582
25841	9.808320	0.113997	0.112135	-0.001899	0.002723	0.004907
25842	9.800549	0.081583	0.138952	-0.000068	-0.000976	0.006990
25843	9.788265	0.110695	0.126164	-0.005301	0.005460	0.001438
25844	9.771357	0.069141	0.094867	-0.000198	0.001354	0.006642
25845	9.806791	0.088518	0.106614	-0.003339	-0.000569	0.003870
25846	9.800556	0.079699	0.139530	-0.001128	0.000116	0.007279
25847	9.806801	0.087452	0.106634	-0.002409	0.000669	0.003234
25848	9.772915	0.090806	0.101203	-0.002409	0.000669	0.003234
25849	9.800565	0.078457	0.139637	-0.000709	-0.000700	0.004969
25850	9.783648	0.036764	0.108146	-0.004948	0.003669	0.006121
25851	9.785197	0.059862	0.114571	-0.002409	0.000669	0.003234
25852	9.800571	0.077042	0.139999	-0.000709	-0.000700	0.004969
25853	9.783648	0.035499	0.108525	-0.003599	0.004092	0.003175
25854	9.799019	0.052763	0.134189	-0.002409	0.000669	0.003235
25855	9.785201	0.058292	0.114965	-0.002699	-0.000847	0.005893
25856	9.800580	0.075289	0.140315	-0.002699	-0.000847	0.005894
25857	9.765142	0.054969	0.128593	-0.002409	0.000669	0.003235
25858	9.820653	0.076666	0.126639	-0.003758	0.000245	0.006182
25859	9.772950	0.085940	0.102090	-0.000548	0.003145	0.001963
25860	9.802146	0.097106	0.146960	-0.000197	0.001352	0.006645
25861	9.786773	0.079017	0.121567	-0.003340	-0.000569	0.003871
25862	9.808408	0.104299	0.113934	-0.000999	-0.002217	0.007629
25863	9.802163	0.095518	0.146852	-0.001479	0.001907	0.002600
25864	9.774531	0.107161	0.108541	-0.004399	0.000523	0.004160
25865	9.808420	0.103010	0.114036	-0.000709	-0.000701	0.004971
25866	9.786791	0.076761	0.121532	-0.002409	0.000669	0.003236
25867	9.766721	0.074240	0.135549	-0.005297	0.005462	0.001442
25868	9.786788	0.076129	0.122170	-0.000197	0.001351	0.006647
25869	9.785227	0.051940	0.115860	-0.002570	-0.003178	0.006243
25870	9.806866	0.077446	0.108321	-0.002119	0.002185	0.000577
25871	9.800612	0.068762	0.141419	-0.002187	0.001205	0.007572
25872	9.763591	0.024831	0.123563	-0.002409	0.000668	0.003236
25873	9.799044	0.044239	0.135396	-0.002828	0.001483	0.005549
25874	9.806874	0.075676	0.108858	-0.001478	0.001907	0.002601
25875	9.786806	0.073011	0.122685	-0.006389	0.000377	0.005086
25876	9.772997	0.078580	0.103576	0.001153	0.001774	0.003700
25877	9.788385	0.095842	0.128978	-0.003852	-0.002622	0.002197
25878	9.800625	0.065900	0.141914	-0.002827	0.001482	0.005549
25879	9.788393	0.094958	0.129079	-0.000837	0.001628	0.004625
25880	9.806888	0.073185	0.109294	-0.002827	0.001482	0.005550
25881	9.806890	0.072751	0.109401	-0.002409	0.000668	0.003237
25882	9.803786	0.111380	0.154928	-0.002118	0.002185	0.000578
25883	9.788403	0.093384	0.129476	-0.002990	-0.002366	0.008557
25884	9.793091	0.077509	0.090178	-0.003340	-0.000570	0.003874
25885	9.806901	0.071096	0.109562	-0.000965	0.003958	0.004279
25886	9.786829	0.068349	0.123486	-0.001768	0.000389	0.005262
25887	9.786832	0.067817	0.123579	-0.002827	0.001481	0.005551
25888	9.786834	0.067384	0.123686	-0.002409	0.000668	0.003238
25889	9.806910	0.069157	0.109962	-0.000069	-0.000983	0.006997
25890	9.786842	0.066182	0.123629	-0.001128	0.000110	0.007286
25891	9.800647	0.059908	0.143033	-0.001827	0.003702	-0.002082
25892	9.745104	0.037591	0.145135	-0.004689	-0.000995	0.006824
25893	9.806922	0.067266	0.110033	0.000059	-0.003314	0.007344
25894	9.805332	0.043229	0.103898	-0.002663	0.005329	0.002545
25895	9.788444	0.087673	0.130358	-0.001768	0.000388	0.005263
25896	9.786852	0.063637	0.124222	-0.000837	0.001626	0.004627
25897	9.808523	0.088988	0.116964	-0.001895	0.002719	0.004917
25898	9.774651	0.092113	0.111535	-0.002059	-0.001129	0.007924
25899	9.788460	0.085423	0.130602	-0.001641	-0.001943	0.005610
25900	9.788469	0.084922	0.130253	-0.003085	-0.005232	0.004569
25901	9.776274	0.114064	0.117215	-0.000963	0.003957	0.004281
25902	9.800677	0.054390	0.143209	-0.002572	-0.003181	0.006247
25903	9.774685	0.089416	0.110769	-0.001641	-0.001943	0.005611
25904	9.806961	0.061633	0.109914	-0.003340	-0.000570	0.003876
25905	9.805356	0.037718	0.103734	-0.003466	0.001760	0.003529
25906	9.773087	0.064687	0.104643	-0.003466	0.001760	0.003530
25907	9.780612	0.049938	0.157000	-0.001894	0.002718	0.004918
25908	9.793165	0.066101	0.091263	-0.003340	-0.000571	0.003876
25909	9.800686	0.051561	0.143594	-0.002243	0.004516	0.000233
25910	9.773089	0.063280	0.105338	-0.000069	-0.000986	0.007000
25911	9.786889	0.056772	0.124598	-0.001476	0.001905	0.002604
25912	9.768422	0.077787	0.144789	-0.002534	0.002998	0.002894
25913	9.817712	0.090978	0.175682	-0.000874	-0.004555	0.007983
25914	9.773104	0.061277	0.105112	-0.003505	-0.004420	0.006884
25915	9.774726	0.084099	0.111256	-0.003243	0.002292	0.007871
25916	9.768447	0.075201	0.144483	-0.000962	0.003955	0.004284
25917	9.819547	0.072369	0.045152	-0.003340	-0.000571	0.003877
25918	9.779390	0.067734	0.072993	-0.000504	0.009323	-0.001385
25919	9.782414	0.154449	0.222921	-0.002660	0.005329	0.002549
25920	9.788516	0.076209	0.132111	-0.002225	-0.004982	0.010935
25921	9.771486	0.034488	0.100303	-0.002534	0.002998	0.002895
25922	9.806976	0.054000	0.112534	-0.001728	0.006567	0.001913
25923	9.776367	-0.020318	-0.073673	-0.004111	0.022912	-0.008897
25924	9.820698	0.049499	0.136339	-0.000719	0.041032	-0.015823
25925	9.774264	0.124060	0.258343	-0.000465	0.036367	-0.015124
25926	9.777295	0.086071	0.215550	-0.003930	0.017258	-0.001197
25927	9.791428	0.040475	0.099584	-0.002746	0.013835	-0.001142
25928	9.793011	0.064453	0.107464	-0.000294	0.019346	-0.007728
25929	9.777180	0.087101	0.220272	0.000303	0.012887	-0.002354
25930	9.789843	0.103649	0.155231	-0.004527	0.002851	0.003820
25931	9.777619	0.047089	0.084615	-0.000546	0.003142	0.001971
25932	9.796178	0.111483	0.123098	-0.001730	0.006563	0.001918
25933	9.818952	0.114475	0.201054	-0.001991	-0.000145	0.000924
25934	9.794578	0.087574	0.117071	-0.002285	-0.001664	0.003583
25935	9.791448	0.125749	0.162297	-0.002999	-0.002370	0.008558
25936	9.796201	0.109693	0.122851	-0.001941	-0.003463	0.008268
25937	9.819444	0.072472	0.063605	-0.003763	0.000240	0.006190
25938	9.774498	0.082892	0.130567	-0.002492	0.009174	-0.000450
25939	9.789846	0.100422	0.157133	-0.003676	0.012596	-0.000502
25940	9.779212	0.067878	0.093776	0.001239	0.014124	-0.002984
25941	9.814657	0.087791	0.107432	0.002014	0.022880	-0.000305
25942	9.823714	0.040277	-0.189376	0.017594	0.044268	0.002590
25943	9.832124	0.089017	0.012365	0.018363	0.090426	-0.001110
25944	9.762183	0.044033	0.304481	0.018121	0.095064	-0.001750
25945	9.797370	0.063931	0.324111	0.025846	0.062886	0.000297
25946	9.745744	0.049453	0.206717	0.038922	0.042793	-0.002136
25947	9.806990	0.102525	0.091474	0.043932	0.047169	-0.000585
25948	9.818357	0.095651	0.025240	0.007938	0.071042	-0.002067
25949	9.823286	0.080861	-0.004846	0.005719	0.112907	-0.008145
25950	9.798075	0.094356	0.059831	0.012402	0.132425	-0.000792
25951	9.815052	0.112954	0.190534	0.018376	0.149345	0.000570
25952	9.761228	0.069176	0.382164	0.049165	0.133750	0.007671
25953	9.733674	0.080564	0.354968	0.094650	0.105214	0.010423
25954	9.802333	0.140614	0.212452	0.103887	0.093843	0.010591
25955	9.839648	0.119629	0.098350	0.085586	0.117422	0.003537
25956	9.825883	0.103240	0.176940	0.056001	0.146026	0.000619
25957	9.805271	0.101383	0.205749	0.040340	0.169442	-0.005297
25958	9.796475	0.069965	0.249369	0.057298	0.176475	0.002058
25959	9.802988	0.078237	0.234310	0.084282	0.187463	-0.002353
25960	9.815127	0.071083	0.181683	0.099534	0.204278	-0.000265
25961	9.810513	0.110644	0.248109	0.091433	0.234138	-0.003629
25962	9.831461	0.134876	0.174352	0.059898	0.270499	0.002154
25963	9.851404	0.137175	0.189759	0.033840	0.310744	-0.004002
25964	9.822542	0.128814	0.358668	0.015366	0.335025	0.007282
25965	9.784271	0.086245	0.464580	0.005342	0.347700	0.012365
25966	9.790213	0.093084	0.466375	0.001322	0.357896	0.010829
25967	9.829803	0.096275	0.476378	-0.000189	0.370241	0.010198
25968	9.799577	0.059921	0.461738	-0.002605	0.389739	0.006681
25969	9.825118	0.045921	0.449692	-0.008768	0.412712	0.002077
25970	9.804843	0.091251	0.516532	-0.006196	0.444280	-0.007294
25971	9.820522	0.095637	0.639921	-0.010930	0.464830	-0.002866
25972	9.753056	0.031052	0.854235	-0.012082	0.460993	-0.018689
25973	9.746442	0.070610	0.852009	-0.012147	0.448271	-0.027015
25974	9.731408	0.102568	0.880892	-0.011966	0.434381	-0.026421
25975	9.766424	0.134877	0.996069	-0.009668	0.429012	-0.030153
25976	9.719842	0.133271	1.060850	-0.008554	0.405766	-0.026596
25977	9.753870	0.130265	1.017129	-0.006022	0.396429	-0.025569
25978	9.739476	0.101427	1.081585	-0.002143	0.389259	-0.032079
25979	9.764836	0.090971	1.069257	-0.005046	0.387616	-0.029985
25980	9.735967	0.081807	1.059787	-0.003344	0.385982	-0.027489
25981	9.781007	0.087724	0.983821	-0.000391	0.401095	-0.040864
25982	9.777756	0.115113	1.030102	0.001520	0.419409	-0.036386
25983	9.750841	0.093044	1.077496	0.017521	0.443181	-0.037855
25984	9.718907	0.106394	1.282493	0.035074	0.454463	-0.038262
25985	9.673519	0.163125	1.419485	0.029745	0.437223	-0.037671
25986	9.669152	0.176793	1.519250	0.012634	0.407325	-0.035763
25987	9.692781	0.157332	1.449651	0.005281	0.389512	-0.039051
25988	9.696272	0.159251	1.396337	0.002430	0.385626	-0.036829
25989	9.744871	0.175222	1.380427	0.002743	0.391882	-0.034690
25990	9.729100	0.194678	1.456936	0.007219	0.399575	-0.042990
25991	9.721850	0.165366	1.431204	0.008825	0.411265	-0.039611
25992	9.694446	0.190631	1.488289	0.010118	0.418673	-0.037813
25993	9.676804	0.186711	1.560974	0.008401	0.428160	-0.043869
25994	9.680400	0.195147	1.682768	0.003722	0.432325	-0.043909
25995	9.618036	0.210498	1.782486	0.007297	0.422056	-0.043285
25996	9.608825	0.210666	1.933578	0.005295	0.395635	-0.039249
25997	9.568784	0.217766	1.959174	0.006793	0.370347	-0.034508
25998	9.616981	0.186645	1.929391	0.002379	0.343609	-0.036456
25999	9.669145	0.183051	1.792693	0.001703	0.335466	-0.034930
26000	9.686581	0.178940	1.756980	0.001150	0.350998	-0.035546
26001	9.682326	0.219779	1.745569	0.006289	0.376442	-0.034511
26002	9.671086	0.195673	1.888240	0.011863	0.390623	-0.032542
26003	9.619766	0.288620	1.970028	0.019832	0.392008	-0.025899
26004	9.592265	0.312511	2.215041	0.031054	0.380125	-0.010573
26005	9.559594	0.367564	2.329910	0.022576	0.333833	0.018264
26006	9.564057	0.232459	2.292360	0.014545	0.304503	0.019354
26007	9.614308	0.243264	2.078895	0.009555	0.293646	0.015743
26008	9.636930	0.247866	1.987064	-0.002961	0.312006	0.016710
26009	9.639902	0.216930	2.033909	0.000754	0.336454	0.016370
26010	9.541598	0.182943	2.288902	0.005454	0.334060	0.017731
26011	9.547343	0.213227	2.295256	0.028106	0.318867	0.018546
26012	9.579870	0.188637	2.220386	0.039440	0.310499	0.024650
26013	9.626307	0.195516	2.121302	0.043163	0.323997	0.023045
26014	9.605059	0.219050	2.057723	0.046173	0.362286	0.026619
26015	9.633317	0.203982	2.049403	0.043677	0.416336	0.026797
26016	9.619494	0.188679	2.144293	0.037950	0.462542	0.026598
26017	9.530742	0.200388	2.333432	0.036878	0.495574	0.026019
26018	9.517046	0.189804	2.514493	0.033709	0.506676	0.023220
26019	9.413310	0.222047	2.821384	0.022145	0.487178	0.024680
26020	9.351458	0.183508	3.008322	0.023609	0.431288	0.019650
26021	9.316541	0.203671	3.059248	0.026129	0.355590	0.023591
26022	9.371211	0.199947	2.904064	0.014109	0.304065	0.017336
26023	9.428030	0.196154	2.745758	0.009277	0.280577	0.018161
26024	9.449818	0.210551	2.711694	0.016670	0.279811	0.016416
26025	9.429002	0.182525	2.842804	0.013357	0.274213	0.015852
26026	9.398445	0.179183	2.875555	0.010465	0.255338	0.015723
26027	9.406051	0.209608	2.874850	0.005632	0.242449	0.011522
26028	9.429277	0.224183	2.837226	-0.001885	0.236628	0.012044
26029	9.421873	0.218419	2.779224	-0.009225	0.247713	0.009652
26030	9.392502	0.195881	2.884853	-0.008795	0.245167	0.012071
26031	9.438867	0.236039	2.846377	-0.009060	0.243119	0.010362
26032	9.409280	0.185311	2.865002	-0.012718	0.248613	0.009321
26033	9.409503	0.202100	2.917169	-0.011825	0.254113	0.009171
26034	9.410125	0.190697	2.883039	-0.012017	0.260646	0.009308
26035	9.441125	0.199201	2.871334	-0.015065	0.278620	0.014179
26036	9.378345	0.179588	2.965055	-0.011997	0.292798	0.015404
26037	9.361350	0.164499	3.044796	-0.015080	0.293295	0.010210
26038	9.375747	0.165169	3.064897	-0.013520	0.287483	0.012502
26039	9.359168	0.192877	3.075428	-0.013575	0.289574	0.012854
26040	9.368370	0.171040	2.986563	-0.010696	0.299565	0.012223
26041	9.414918	0.163567	2.944084	-0.010969	0.329770	0.016287
26042	9.373349	0.212715	2.973026	-0.011542	0.364295	0.011917
26043	9.310538	0.191920	3.176946	-0.013540	0.381090	0.017018
26044	9.248680	0.190213	3.306227	-0.005966	0.375851	0.015813
26045	9.279954	0.197203	3.408160	-0.007746	0.364552	0.017130
26046	9.197624	0.189125	3.460095	-0.001943	0.337493	0.014516
26047	9.260509	0.189615	3.390338	0.002374	0.318379	0.018469
26048	9.304255	0.207042	3.252047	0.006716	0.324839	0.019902
26049	9.299895	0.199784	3.306039	0.002366	0.345851	0.017026
26050	9.279660	0.204908	3.213177	-0.004585	0.375768	0.021230
26051	9.325323	0.197132	3.180168	-0.006680	0.420168	0.015746
26052	9.300110	0.181661	3.273339	-0.015509	0.468788	0.018575
26053	9.208254	0.176049	3.519527	-0.015796	0.487970	0.021788
26054	9.102648	0.156651	3.816734	-0.016451	0.473397	0.023060
26055	9.067489	0.146234	3.886762	-0.017015	0.437485	0.019884
26056	9.123945	0.152921	3.701590	-0.016790	0.411529	0.016345
26057	9.131594	0.176534	3.739931	-0.022711	0.414790	0.014313
26058	9.111098	0.156508	3.748725	-0.029848	0.414960	0.010419
26059	9.105909	0.166349	3.838618	-0.033808	0.412077	0.014247
26060	9.084608	0.169751	3.852965	-0.040252	0.409543	0.005877
26061	9.034210	0.177059	3.849001	-0.042631	0.409475	0.005092
26062	9.099310	0.153222	3.785265	-0.050617	0.418901	0.005741
26063	9.119338	0.190147	3.774827	-0.045848	0.445991	0.008173
26064	9.058414	0.201159	3.855350	-0.028204	0.471391	0.018495
26065	9.050600	0.163284	3.939281	-0.018993	0.492129	0.020157
26066	9.007911	0.134823	3.982740	-0.019185	0.504661	0.023802
26067	8.967299	0.147644	4.062436	-0.019803	0.517679	0.023406
26068	8.920304	0.135352	4.239639	-0.017008	0.516999	0.019817
26069	8.863245	0.134867	4.368880	-0.016424	0.495008	0.020181
26070	8.833259	0.144034	4.365193	-0.014799	0.474201	0.020218
26071	8.894821	0.102358	4.279779	-0.015941	0.468738	0.019177
26072	8.869294	0.129381	4.304518	-0.015135	0.476165	0.020357
26073	8.880331	0.154312	4.246769	-0.018012	0.493401	0.020645
26074	8.880066	0.135901	4.258676	-0.017728	0.518129	0.022887
26075	8.819246	0.135182	4.389107	-0.013523	0.549815	0.022779
26076	8.746040	0.132493	4.623138	-0.016497	0.543678	0.026558
26077	8.746299	0.107902	4.661164	-0.018839	0.537293	0.023818
26078	8.692726	0.132431	4.693057	-0.016311	0.522016	0.023824
26079	8.683750	0.125688	4.658997	-0.017720	0.521129	0.021090
26080	8.696157	0.126870	4.599172	-0.020423	0.531809	0.021409
26081	8.707361	0.151454	4.547129	-0.024575	0.554287	0.022827
26082	8.709619	0.121023	4.612009	-0.023007	0.592707	0.020273
26083	8.655868	0.139392	4.673252	-0.030544	0.622220	0.025309
26084	8.606914	0.122040	4.777596	-0.028607	0.651667	0.024759
26085	8.533514	0.138028	4.944828	-0.027235	0.670814	0.027992
26086	8.441287	0.093167	5.148615	-0.026419	0.661837	0.020826
26087	8.353475	0.071880	5.455794	-0.027185	0.621881	0.025955
26088	8.217477	0.064292	5.789690	-0.021235	0.538719	0.021746
26089	8.187777	0.085006	5.835483	-0.017380	0.430002	0.021285
26090	8.251392	0.072968	5.630698	-0.015116	0.333665	0.017324
26091	8.381079	0.090883	5.222323	-0.013833	0.300588	0.020925
26092	8.539249	0.104881	4.837516	-0.016543	0.339070	0.016930
26093	8.583255	0.114626	4.641860	-0.017341	0.419066	0.020969
26094	8.540829	0.109683	4.784192	-0.021677	0.531833	0.022897
26095	8.378507	0.076436	5.109582	-0.021040	0.599649	0.028822
26096	8.233565	0.080108	5.495516	-0.019807	0.619072	0.030231
26097	8.155930	0.072283	5.747686	-0.019106	0.593341	0.027085
26098	8.055327	0.027614	5.937068	-0.014126	0.542668	0.024628
26099	8.022100	0.066133	6.013732	-0.015041	0.476705	0.020873
26100	8.068615	0.046192	5.841685	-0.013860	0.416325	0.025415
26101	8.141058	0.052497	5.572535	-0.013614	0.404906	0.012307
26102	8.187235	0.103710	5.517803	-0.015647	0.426963	0.017995
26103	8.114787	0.085498	5.600962	-0.018009	0.456194	0.018426
26104	8.037888	0.084409	5.815504	-0.018572	0.467021	0.018679
26105	7.987499	0.049963	5.970085	-0.017835	0.445248	0.019003
26106	7.937262	0.057760	5.956779	-0.014741	0.419848	0.014277
26107	7.963706	0.041557	5.960541	-0.019278	0.393845	0.020664
26108	7.967887	0.059298	5.820817	-0.018145	0.391124	0.016720
26109	8.023216	0.051360	5.701116	-0.016880	0.410386	0.019817
26110	8.023804	0.068779	5.665916	-0.019014	0.460713	0.017085
26111	7.918536	0.047915	5.849243	-0.019683	0.498030	0.023207
26112	7.752274	0.016077	6.255558	-0.018601	0.495014	0.021733
26113	7.688715	0.010475	6.491401	-0.015165	0.435476	0.020422
26114	7.659811	0.025712	6.551599	-0.014288	0.362193	0.014964
26115	7.642436	0.011968	6.523239	-0.013535	0.287660	0.019418
26116	7.706972	0.034172	6.376456	-0.008280	0.241664	0.014727
26117	7.781721	0.063481	6.103349	-0.007345	0.220304	0.011793
26118	7.856433	0.051063	5.895974	-0.009850	0.251411	0.014731
26119	7.924966	0.085483	5.704769	-0.009607	0.319509	0.018831
26120	7.903127	0.077244	5.756943	-0.008923	0.401754	0.023231
26121	7.824309	0.082537	5.841091	-0.010188	0.477446	0.027267
26122	7.705043	0.037310	6.116665	-0.012791	0.533798	0.028919
26123	7.575733	0.003442	6.446608	-0.014232	0.539466	0.027068
26124	7.534216	0.005909	6.563090	-0.012299	0.514386	0.028413
26125	7.498744	0.026661	6.606831	-0.011440	0.492982	0.026087
26126	7.471229	0.006220	6.613330	-0.013904	0.467453	0.029457
26127	7.405925	0.030570	6.727104	-0.011646	0.443200	0.024163
26128	7.403866	0.006372	6.755337	-0.007921	0.406531	0.022790
26129	7.357781	0.014421	6.734306	-0.006754	0.373506	0.026195
26130	7.359980	0.019976	6.740115	-0.003529	0.347510	0.026322
26131	7.373431	-0.038968	6.703388	-0.003752	0.329325	0.023736
26132	7.366047	-0.004120	6.788831	-0.008343	0.315700	0.017970
26133	7.318620	0.015887	6.814072	-0.011640	0.296558	0.013169
26134	7.309429	-0.021028	6.776231	-0.012946	0.272238	0.015595
26135	7.328607	0.009050	6.681879	-0.015080	0.272365	0.013999
26136	7.331766	0.002791	6.728567	-0.013879	0.271594	0.012042
26137	7.316518	0.036710	6.707427	-0.013035	0.274819	0.012919
26138	7.327111	0.018820	6.702202	-0.014195	0.289165	0.020134
26139	7.083329	-0.158027	7.335277	-0.008269	0.277459	0.020123
26140	6.880079	-0.075010	7.752794	0.022267	0.109679	-0.014346
26141	7.256722	0.028351	6.792280	0.012869	0.057618	-0.002552
26142	7.266384	-0.028912	6.732411	0.015193	0.062759	-0.007970
26143	7.261230	-0.056792	6.755109	0.013941	0.075438	-0.013885
26144	7.318990	-0.020695	6.651376	0.018742	0.096951	-0.018457
26145	7.281342	-0.031572	6.702716	0.022399	0.124242	-0.026038
26146	7.221917	0.004431	6.866457	0.023815	0.137107	-0.023631
26147	7.118766	0.144366	7.101783	0.021198	0.120470	-0.022352
26148	6.985147	0.108179	7.309617	0.004318	0.050533	-0.001184
26149	7.100956	0.055975	7.059043	-0.001968	-0.013904	0.005838
26150	7.186435	0.012766	6.854617	-0.004956	-0.026541	0.009880
26151	7.242621	0.027501	6.813401	-0.001735	-0.022927	0.008315
26152	7.216717	0.018995	6.831706	-0.001979	-0.016289	0.007484
26153	7.241681	0.020015	6.834471	-0.002357	-0.009910	0.008697
26154	7.188274	0.033610	6.855705	0.002164	-0.004660	0.003196
26155	7.180389	0.074091	6.890125	-0.005831	-0.009270	0.011076
26156	7.175204	0.060712	6.935818	-0.004328	-0.023814	0.014547
26157	7.204556	0.067121	6.913891	-0.003847	-0.037091	0.016221
26158	7.206655	0.023328	6.773006	-0.006042	-0.039586	0.017960
26159	7.270822	-0.033337	6.714117	-0.004445	-0.019303	0.013321
26160	7.260085	0.000904	6.771735	-0.001298	-0.001636	0.003935
26161	7.215678	0.045296	6.879105	-0.001548	0.002617	0.004742
26162	7.119976	0.050191	7.019680	-0.005331	-0.017776	0.009477
26163	7.155599	0.068544	6.950869	-0.013369	-0.042901	0.015637
26164	7.191351	0.026933	6.916058	-0.014183	-0.055429	0.019620
26165	7.213046	0.001701	6.806465	-0.011643	-0.064087	0.019986
26166	7.270971	-0.014665	6.780146	-0.006885	-0.056893	0.025279
26167	7.258998	-0.029928	6.720223	-0.002993	-0.043398	0.023425
26168	7.276875	-0.018429	6.773800	0.000004	-0.030761	0.019359
26169	7.236056	-0.040506	6.735489	0.000043	-0.021216	0.012776
26170	7.285172	-0.037972	6.741670	0.000606	-0.006820	0.011241
26171	7.261711	-0.010640	6.720320	-0.001659	0.004744	0.005146
26172	7.264789	0.007622	6.853333	0.003506	0.012716	0.004269
26173	7.183848	0.043523	6.878118	0.001677	0.003842	0.004806
26174	7.210385	0.021241	6.876020	-0.001427	-0.001896	0.005991
26175	7.205322	0.038015	6.904686	-0.003398	-0.013415	0.010225
26176	7.182552	0.035221	6.899721	-0.005239	-0.024675	0.012413
26177	7.212113	0.041486	6.877366	-0.008913	-0.044809	0.015145
26178	7.253638	0.012201	6.795623	-0.011251	-0.049949	0.020597
26179	7.265280	-0.001033	6.739681	-0.006713	-0.039930	0.011773
26180	7.285838	-0.013142	6.787395	-0.006445	-0.035600	0.020932
26181	7.275335	-0.021687	6.705542	0.002080	-0.023761	0.016405
26182	7.273334	-0.028677	6.727872	0.004718	-0.007131	0.015161
26183	7.259055	-0.030023	6.827118	0.006793	-0.002511	0.013816
26184	7.262795	0.005111	6.785844	0.007695	-0.001655	0.016019
26185	7.238144	-0.026769	6.799951	0.003598	0.001040	0.010460
26186	7.268096	-0.013187	6.756819	0.005032	0.005322	0.002809
26187	7.296629	-0.058940	6.749327	-0.001887	0.008999	0.005946
26188	7.372664	-0.054439	6.558778	0.005158	0.032999	-0.000444
26189	7.279344	-0.064968	6.674842	0.013279	0.067660	-0.013269
26190	7.189911	0.032844	6.871841	0.011919	0.080081	-0.017144
26191	7.167826	0.057404	6.982164	0.009886	0.059017	-0.006284
26192	7.191247	0.036325	6.983234	0.005398	0.031130	-0.002858
26193	7.189190	0.024055	6.828998	-0.000589	0.013020	0.000359
26194	7.242037	0.009707	6.807988	0.000309	0.013877	0.002564
26195	7.240926	0.009740	6.809169	0.002518	0.018755	-0.000822
26196	7.190323	0.072384	6.946895	0.001714	0.010999	-0.000132
26197	7.182675	0.017931	6.856025	-0.002450	-0.000624	0.004191
26198	7.207273	0.018912	6.859114	-0.004311	-0.014268	0.008020
26199	7.244067	0.014313	6.785690	-0.004298	-0.011882	0.006374
26200	7.238478	0.001444	6.831917	-0.003507	-0.006513	0.007333
26201	7.211656	-0.007045	6.851353	-0.003627	-0.004386	0.007735
26202	7.207309	0.039254	6.862248	-0.005464	-0.013258	0.008271
26203	7.267717	0.006293	6.809912	-0.007674	-0.018136	0.011662
26204	7.261117	-0.048840	6.717821	-0.002210	-0.004878	0.003390
26205	7.255278	-0.031535	6.747326	0.001466	0.012866	0.002318
26206	7.239813	-0.002475	6.830503	0.002284	0.023008	-0.000019
26207	7.215081	0.025769	6.810564	0.002763	0.014501	-0.001625
26208	7.219652	0.008409	6.782425	0.001478	0.015252	0.000673
26209	7.266577	0.011683	6.791008	0.001118	0.021632	0.001881
26210	7.246337	-0.007346	6.760040	0.002190	0.029906	-0.002904
26211	7.205800	0.020691	6.840515	0.010804	0.032454	-0.002861
26212	7.200417	0.015302	6.866319	0.003100	0.033149	-0.002337
26213	7.195868	0.039412	6.874243	0.003595	0.027027	-0.005592
26214	7.196726	0.016003	6.870186	-0.000054	0.020256	0.003787
26215	7.231234	0.012171	6.799369	0.003310	0.024123	0.000160
26216	7.247201	0.001890	6.851824	0.001020	0.028530	-0.000990
26217	7.170554	0.020749	6.848574	0.002171	0.027519	-0.001233
26218	7.184208	0.034201	6.906550	0.004702	0.018858	-0.000885
26219	7.185801	0.010616	6.901731	-0.001652	0.007132	0.003509
26220	7.210127	0.041349	6.888193	-0.005003	0.005651	0.005489
26221	7.221215	0.005711	6.830074	-0.000393	0.001608	0.004504
26222	7.229638	-0.005977	6.777897	-0.000469	0.010892	-0.000027
26223	7.220436	0.035217	6.813947	0.001367	0.019763	-0.000546
26224	7.206463	0.010984	6.908986	0.000184	0.016002	0.002992
26225	7.179864	0.062399	6.894117	-0.001395	0.005264	0.001056
26226	7.175997	0.026390	6.935213	-0.003246	-0.005993	0.003219
26227	7.153447	0.053645	6.912980	-0.005371	-0.017768	0.009482
26228	7.205665	0.032155	6.912986	-0.008240	-0.027755	0.009845
26229	7.222239	0.001727	6.828994	-0.010320	-0.032372	0.011179
26230	7.268828	-0.014682	6.702173	-0.005100	-0.017250	0.005390
26231	7.301869	-0.024938	6.653062	-0.000586	0.013019	0.000377
26232	7.261569	0.002761	6.733108	0.004168	0.039035	-0.005440
26233	7.214223	0.048417	6.843738	0.005762	0.052158	-0.005139
26234	7.138921	0.056496	6.991589	0.000797	0.035168	-0.001800
26235	7.199867	0.030720	6.919031	0.000184	0.016002	0.002999
26236	7.186951	0.023774	6.840250	0.001991	0.011516	-0.004208
26237	7.176562	0.005739	6.911344	-0.000606	0.010633	0.002029
26238	7.206675	0.019177	6.868599	-0.001428	0.000492	0.004346
26239	7.206607	0.018718	6.868671	-0.002580	0.001503	0.004593
26240	7.155265	0.008810	6.884644	-0.003628	-0.001999	0.006077
26241	7.213296	0.029610	6.821533	-0.002355	-0.005136	0.005425
26242	7.239279	-0.022415	6.837007	0.000756	0.000597	0.004259
26243	7.188472	-0.002595	6.835509	-0.006037	0.004536	0.005333
26244	7.203347	0.009997	6.892158	-0.000379	0.003994	0.002862
26245	7.203984	0.039140	6.874588	-0.002735	-0.001143	0.008287
26246	7.209693	0.021082	6.845385	-0.001290	0.000752	0.002297
26247	7.194178	0.007730	6.789411	-0.001635	0.009517	0.001872
26248	7.184471	0.018928	6.842869	-0.001877	0.013770	0.002685
26249	7.162963	0.035435	6.972012	-0.002460	-0.000624	0.004187
26250	7.175609	0.029420	6.895438	-0.004195	-0.014006	0.005936
26251	7.207264	0.042524	6.851106	-0.002802	-0.019270	0.004878
26252	7.210950	0.018318	6.844068	-0.004075	-0.016133	0.005533
26253	7.223718	0.012113	6.767308	-0.004798	-0.003374	0.007971
26254	7.214847	0.022991	6.819917	-0.001410	0.002878	0.002704
26255	7.181437	0.032458	6.869296	-0.000877	0.010113	0.006133
26256	7.228959	0.035271	6.877393	-0.000619	0.008246	0.003676
26257	7.182657	0.008261	6.864837	-0.001495	0.009777	-0.000177
26258	7.215592	0.027769	6.799110	-0.002012	0.013510	0.004738
26259	7.240905	0.005461	6.798377	-0.000033	0.022640	0.002178
26260	7.256584	-0.017451	6.695465	0.002634	0.041650	-0.000639
26261	7.259907	0.037011	6.790679	0.001721	0.065820	-0.002296
26262	7.205949	0.004555	6.806188	0.004364	0.082442	-0.003440
26263	7.170286	0.021047	6.837750	0.006178	0.088924	-0.002265
26264	7.158459	0.039061	6.873244	0.004998	0.087547	-0.000342
26265	7.274109	0.064762	6.725498	0.016027	0.096907	0.007237
26266	7.282705	0.108188	6.771932	0.055297	0.115239	0.040358
26267	7.174125	0.067091	6.806200	0.084684	0.125582	0.064116
26268	7.186662	-0.018864	6.872430	0.087774	0.131304	0.063108
26269	7.175307	0.035722	6.870654	0.084511	0.155103	0.063761
26270	7.147530	-0.035192	6.861346	0.076350	0.169757	0.048234
26271	7.119432	-0.076022	6.835712	0.050449	0.195420	0.016708
26272	7.179417	-0.009905	6.827228	0.032266	0.222076	-0.002353
26273	7.117411	0.038126	6.950225	0.029411	0.244253	-0.006073
26274	7.056656	0.062624	7.068073	0.025425	0.242422	-0.010193
26275	6.975622	0.091670	7.157536	0.031202	0.230458	-0.008290
26276	6.938930	0.068673	7.162478	0.024186	0.195104	0.001970
26277	6.982754	0.114892	7.119247	0.033471	0.170838	0.007502
26278	7.057175	0.096082	6.936420	0.045289	0.174171	0.020482
26279	7.178907	0.080203	6.764063	0.060150	0.208239	0.033236
26280	7.163067	0.082315	6.780811	0.083179	0.260474	0.043224
26281	7.071058	0.099941	6.919115	0.104119	0.291953	0.061887
26282	6.990834	0.029422	7.013744	0.110805	0.315370	0.060621
26283	6.901218	0.030533	7.125354	0.108646	0.322386	0.056343
26284	6.866800	0.046274	7.199833	0.096604	0.330028	0.052422
26285	6.859052	0.043460	7.146772	0.091718	0.320566	0.038562
26286	6.843533	-0.076738	7.166514	0.043931	0.351771	-0.012309
26287	6.860577	0.113238	7.168365	0.022366	0.369896	-0.034856
26288	6.751503	0.097890	7.351629	0.025312	0.366350	-0.030816
26289	6.772716	0.078800	7.277611	0.024571	0.358846	-0.031766
26290	6.851448	0.074292	7.168127	0.025207	0.373453	-0.034356
26291	6.774047	0.046084	7.201770	0.024500	0.398074	-0.038904
26292	6.728848	0.086532	7.286476	0.020484	0.425985	-0.044683
26293	6.611435	0.124990	7.458807	0.022746	0.428695	-0.047446
26294	6.519405	0.194266	7.617278	0.016861	0.406387	-0.045203
26295	6.542608	0.151598	7.540372	0.022276	0.378089	-0.033960
26296	6.588621	0.134100	7.473625	0.024540	0.371564	-0.032657
26297	6.635927	0.113954	7.304011	0.023666	0.384578	-0.031203
26298	6.695038	0.084273	7.189141	0.025422	0.432673	-0.038474
26299	6.606020	0.051011	7.249046	0.023584	0.499780	-0.059961
26300	6.434308	0.042499	7.505137	0.007668	0.539913	-0.081085
26301	6.229212	0.058321	7.862955	-0.027205	0.535825	-0.116640
26302	6.172621	0.160846	8.018623	-0.053340	0.492758	-0.152908
26303	6.179177	0.266667	7.954333	-0.062686	0.436616	-0.144304
26304	6.217509	0.297108	7.901475	-0.035909	0.383951	-0.111621
26305	6.258800	0.213299	7.791574	-0.013667	0.356332	-0.079565
26306	6.308092	0.188244	7.645570	-0.009459	0.359075	-0.071959
26307	6.393879	0.238080	7.530107	0.005892	0.390632	-0.061212
26308	6.240815	0.182919	7.636982	0.030584	0.426025	-0.040761
26309	6.303062	0.216312	7.594668	0.038252	0.456153	-0.030187
26310	6.283014	0.262514	7.561408	0.066749	0.505307	-0.011935
26311	6.123110	0.140455	7.761651	0.088205	0.539770	0.006952
26312	5.948799	0.090056	7.976760	0.067634	0.555514	-0.023879
26313	5.919298	0.207458	8.094175	0.047509	0.543999	-0.047047
26314	5.854767	0.249974	8.180245	0.043017	0.515797	-0.051088
26315	5.887328	0.297660	8.059148	0.038201	0.490263	-0.040091
26316	5.959699	0.305173	7.913839	0.050233	0.495418	-0.028758
26317	5.901152	0.323126	7.993318	0.077878	0.510485	0.011015
26318	5.828876	0.268424	8.050963	0.086289	0.527536	0.013020
26319	5.694686	0.289998	8.186240	0.096011	0.525738	0.026849
26320	5.647623	0.176068	8.184152	0.092093	0.521165	0.018325
26321	5.658014	0.101237	8.159233	0.067286	0.534919	-0.028225
26322	5.488522	0.336671	8.466991	0.049947	0.523858	-0.045672
26323	5.592474	0.390240	8.240129	0.062265	0.500094	-0.020999
26324	5.476976	0.202606	8.298713	0.075490	0.498088	-0.002835
26325	5.459942	0.225858	8.392803	0.048881	0.499631	-0.051129
26326	5.304166	0.576482	8.756601	0.001509	0.470552	-0.043102
26327	5.283384	0.285871	8.606363	-0.020305	0.408855	-0.036316
26328	5.366444	0.296075	8.406627	-0.024647	0.384838	-0.040672
26329	5.465336	0.302857	8.238867	-0.023592	0.395936	-0.038830
26330	5.474249	0.277606	8.164780	-0.031033	0.439925	-0.038576
26331	5.467442	0.284749	8.177847	-0.038974	0.489521	-0.048971
26332	5.309477	0.302692	8.406552	-0.054654	0.524966	-0.065963
26333	5.209712	0.238552	8.450360	-0.074304	0.541495	-0.084514
26334	5.151000	0.307270	8.491756	-0.092570	0.545627	-0.100290
26335	5.075524	0.287604	8.585700	-0.096904	0.556786	-0.110523
26336	5.005401	0.349920	8.648621	-0.099251	0.547789	-0.107885
26337	4.972922	0.381733	8.637023	-0.091339	0.540198	-0.091391
26338	4.977122	0.397676	8.609687	-0.075858	0.540543	-0.061325
26339	5.025000	0.413064	8.492468	-0.060316	0.557721	-0.032214
26340	4.948227	0.377725	8.528136	-0.047627	0.601072	0.000854
26341	4.857263	0.283437	8.598924	-0.039394	0.619258	0.007051
26342	4.751969	0.250674	8.736181	-0.037893	0.634069	0.009490
26343	4.604759	0.247773	8.944963	-0.036550	0.623846	0.005983
26344	4.554814	0.220637	8.968647	-0.037197	0.592091	0.003433
26345	4.587523	0.263961	8.825787	-0.036795	0.577683	-0.003937
26346	4.586343	0.183845	8.772454	-0.043786	0.593136	-0.012813
26347	4.483794	0.137511	8.847368	-0.054200	0.613896	-0.041113
26348	4.452900	0.233126	8.915278	-0.067747	0.624107	-0.066994
26349	4.373615	0.382160	9.058480	-0.046801	0.616662	-0.042077
26350	4.290895	0.348164	9.089585	-0.028165	0.594063	-0.003924
26351	4.287272	0.302498	8.986539	-0.017818	0.587732	0.013548
26352	4.289681	0.320216	8.961993	-0.014683	0.594922	0.015912
26353	4.214793	0.316188	8.975279	-0.003583	0.609693	0.036830
26354	4.077606	0.273009	9.144695	0.001081	0.610466	0.047774
26355	3.972386	0.194413	9.263582	-0.004088	0.598996	0.040280
26356	3.880640	0.208074	9.298278	-0.016047	0.571082	0.013081
26357	3.926725	0.219825	9.206863	-0.021357	0.551728	0.004478
26358	4.002814	0.252859	9.022006	-0.030096	0.562629	-0.004197
26359	3.962729	0.256184	9.024976	-0.032867	0.598501	-0.008891
26360	3.872388	0.288638	9.097267	-0.038379	0.630119	-0.006954
26361	3.774164	0.310802	9.223203	-0.037238	0.646680	0.003285
26362	3.684630	0.415354	9.320116	-0.027096	0.642803	0.030587
26363	3.602666	0.482775	9.498639	0.005975	0.608473	0.102900
26364	3.529501	0.338114	9.435890	0.030860	0.576293	0.159796
26365	3.464118	0.170298	9.368033	0.033415	0.559327	0.155200
26366	3.406521	0.095082	9.362159	0.021869	0.564526	0.135402
26367	3.320263	0.071084	9.473585	0.004854	0.560479	0.091848
26368	3.270704	0.108002	9.566526	-0.004794	0.543018	0.061170
26369	3.286034	0.114883	9.449446	-0.013748	0.532787	0.037557
26370	3.269260	0.120113	9.461814	-0.022527	0.526497	0.009084
26371	3.231044	0.180456	9.413828	-0.030721	0.532949	-0.009972
26372	3.102724	0.235475	9.608915	-0.030076	0.528261	-0.014773
26373	3.011493	0.215400	9.682141	-0.029075	0.495468	-0.003434
26374	3.002726	0.273889	9.680214	-0.019765	0.458246	0.001235
26375	3.045103	0.190944	9.513223	-0.016481	0.440419	0.012452
26376	3.036453	0.157502	9.447895	-0.016418	0.449453	0.006417
26377	2.993206	0.175612	9.499059	-0.015121	0.459012	-0.003341
26378	2.972630	0.209353	9.478806	-0.021311	0.474123	-0.005954
26379	2.902876	0.172199	9.527115	-0.022707	0.491289	-0.012956
26380	2.865249	0.199412	9.526151	-0.033258	0.496741	-0.014086
26381	2.851963	0.107876	9.508479	-0.039061	0.520782	-0.023242
26382	2.773101	0.073482	9.523065	-0.046796	0.539922	-0.051862
26383	2.622406	0.062610	9.617968	-0.056814	0.558105	-0.083435
26384	2.547520	0.019508	9.699871	-0.069792	0.556057	-0.111590
26385	2.530222	0.061426	9.628378	-0.072458	0.554387	-0.145725
26386	2.529558	0.217293	9.674072	-0.073841	0.565603	-0.148229
26387	2.319591	0.342525	9.961494	-0.054990	0.535640	-0.129976
26388	2.274227	0.423848	10.105021	-0.040701	0.466657	-0.068530
26389	2.288543	0.285050	9.919412	-0.031364	0.400618	-0.028759
26390	2.354862	0.180211	9.751122	-0.020839	0.383426	-0.009739
26391	2.326093	0.120113	9.647922	-0.025430	0.395164	-0.022049
26392	2.273306	0.184622	9.701072	-0.027414	0.402608	-0.024915
26393	2.251741	0.184300	9.726810	-0.030886	0.408641	-0.026624
26394	2.285365	0.159347	9.659367	-0.029556	0.424768	-0.031021
26395	2.226963	0.139576	9.581055	-0.041909	0.455039	-0.036567
26396	2.190849	0.253878	9.675131	-0.038377	0.484502	-0.031814
26397	2.099908	0.285745	9.726921	-0.030944	0.499260	-0.006976
26398	2.015123	0.212748	9.817297	-0.032231	0.509510	0.020027
26399	1.905594	0.238204	9.885250	-0.022186	0.502643	0.031276
26400	1.846585	0.278530	9.935004	-0.012157	0.484772	0.056649
26401	1.814875	0.286713	9.892437	-0.004793	0.470038	0.093521
26402	1.839752	0.213133	9.803592	0.004302	0.472867	0.122044
26403	1.852786	0.190699	9.687123	0.000950	0.487786	0.137948
26404	1.848310	0.152941	9.656853	-0.003741	0.528012	0.148575
26405	1.784478	0.120045	9.680593	-0.009079	0.566767	0.141250
26406	1.632657	0.120368	9.882513	-0.023143	0.597511	0.125558
26407	1.506405	0.237059	10.010957	-0.022622	0.588243	0.131373
26408	1.467263	0.324010	9.926844	-0.021312	0.569768	0.167583
26409	1.353282	0.171584	10.002395	-0.018268	0.563752	0.188738
26410	1.200664	0.108003	10.104156	-0.018694	0.532541	0.187478
26411	1.145241	0.014284	10.220619	-0.018841	0.484575	0.175432
26412	1.145612	-0.020599	10.153863	-0.016809	0.427112	0.152343
26413	1.171143	0.031701	10.028904	-0.019236	0.396823	0.126038
26414	1.090291	-0.036216	10.075605	-0.016539	0.379137	0.096612
26415	1.016566	0.017639	10.171934	-0.017743	0.347891	0.078611
26416	1.026953	0.011662	10.072585	-0.019458	0.318823	0.061405
26417	1.135591	-0.093864	9.931088	-0.025611	0.315268	0.036050
26418	1.114703	-0.107430	9.829416	-0.029647	0.333057	-0.008395
26419	1.137150	-0.048746	9.844521	-0.043163	0.359264	-0.049260
26420	1.007492	0.019055	9.921415	-0.040529	0.380224	-0.072112
26421	0.999459	0.050790	9.897004	-0.049011	0.395938	-0.088014
26422	0.945308	0.082253	9.782446	-0.047646	0.423763	-0.096421
26423	0.823194	0.150716	9.877119	-0.050781	0.457574	-0.096359
26424	0.604144	0.217213	10.015683	-0.047084	0.474076	-0.074383
26425	0.662612	0.179620	10.093128	-0.036722	0.466140	-0.054340
26426	0.816318	0.144437	10.127490	-0.031846	0.435348	-0.028592
26427	0.533182	0.089178	9.856479	-0.032627	0.430863	-0.006164
26428	0.741398	-0.005033	9.854577	-0.036231	0.471182	-0.009051
26429	0.663779	0.332529	11.719499	-0.112723	0.288704	-0.036451
26430	0.620450	-0.066716	10.126532	-0.105872	0.143271	-0.015746
26431	0.637602	0.019591	10.003521	-0.101143	0.131015	-0.020703
26432	0.575881	0.044420	10.038941	-0.106686	0.135355	-0.020112
26433	0.491034	-0.018155	10.129717	-0.094887	0.114755	-0.020607
26434	0.395514	-0.064668	10.290710	-0.065918	0.081697	-0.004339
26435	0.517437	-0.013285	10.067138	-0.011612	0.008752	0.009702
26436	0.579264	0.057195	10.013979	-0.008743	0.013890	0.020197
26437	0.583423	0.094104	9.914727	-0.004158	0.017501	0.034889
26438	0.606384	0.091151	9.987654	-0.010069	0.039960	0.067486
26439	0.639164	0.101640	9.958731	-0.013198	0.050020	0.094225
26440	0.622041	0.102674	9.905768	-0.019875	0.076843	0.120159
26441	0.600136	0.069792	9.918289	-0.029312	0.104504	0.136755
26442	0.571601	0.031101	9.964893	-0.041136	0.129129	0.146435
26443	0.537819	-0.056655	9.986765	-0.040237	0.131998	0.144054
26444	0.518209	-0.143132	10.027974	-0.042986	0.133613	0.117367
26445	0.534447	-0.189122	10.008837	-0.040474	0.132080	0.068393
26446	0.476406	-0.153350	10.009700	-0.042194	0.140195	0.016555
26447	0.464602	-0.080740	10.003837	-0.042987	0.142785	-0.006772
26448	0.515842	-0.086049	9.924765	-0.045591	0.155122	-0.020799
26449	0.442544	-0.049376	10.117483	-0.042403	0.178930	-0.024051
26450	0.042361	-0.067257	10.347168	-0.004224	0.019057	0.000278
26451	0.328749	-0.001497	10.129708	-0.003876	0.015169	0.002689
26452	0.506141	-0.115212	9.943148	0.008387	0.017798	-0.000407
26453	0.697175	-0.149206	9.770147	0.030007	0.082480	0.003490
26454	0.340997	-0.008347	10.079396	0.046161	0.110068	-0.001995
26455	0.274903	-0.022456	10.122548	0.029233	0.077466	-0.006257
26456	0.330797	-0.025827	10.077310	0.016761	0.046659	-0.012423
26457	0.407592	-0.024121	10.017810	0.010950	0.038627	-0.021270
26458	0.312024	0.024019	10.082762	0.009814	0.029860	-0.019904
26459	0.343612	0.031605	10.088216	-0.002986	0.004712	-0.011839
26460	0.443986	-0.005948	9.955647	0.000924	0.009671	0.001316
26461	0.433823	-0.058754	9.964810	0.008471	0.036611	0.005813
26462	0.428581	-0.013745	10.023735	0.017427	0.046208	0.003270
26463	0.241928	0.009848	10.125853	0.016149	0.040429	-0.000445
26464	0.214587	0.071771	10.201430	-0.006111	-0.005795	0.003479
26465	0.313768	0.028132	10.102806	-0.020579	-0.042241	0.002304
26466	0.342867	0.008206	10.085835	-0.023954	-0.050199	0.005559
26467	0.406208	-0.020200	9.984142	-0.027788	-0.060229	0.005247
26468	0.473601	-0.028353	9.938543	-0.020964	-0.043858	0.005764
26469	0.487365	-0.077264	9.933178	-0.011361	-0.011312	0.005207
26470	0.462807	-0.060018	9.950059	0.003578	0.014365	0.004918
26471	0.421786	-0.027497	10.037454	0.012652	0.029919	0.003528
26472	0.250719	0.024897	10.128114	0.005104	0.015815	0.004049
26473	0.269990	0.030640	10.113851	-0.009545	-0.023149	0.003646
26474	0.384224	-0.011786	10.034628	-0.017915	-0.040958	0.004022
26475	0.408236	-0.036020	10.051487	-0.017258	-0.039780	0.004931
26476	0.392451	-0.015361	10.034305	-0.018084	-0.043482	0.004792
26477	0.396967	-0.017553	10.034123	-0.025219	-0.046552	0.004992
26478	0.391606	-0.016343	9.980404	-0.022685	-0.047816	0.007436
26479	0.420988	-0.021118	10.053345	-0.022693	-0.047811	0.007448
26480	0.435728	-0.042112	10.016566	-0.020266	-0.049513	0.002889
26481	0.558985	-0.075101	9.869030	-0.013295	-0.027200	0.004540
26482	0.560425	-0.103834	9.900255	0.008349	0.021225	0.001519
26483	0.521581	-0.080877	9.863965	0.024890	0.066672	-0.000511
26484	0.580799	-0.091931	9.906362	0.037986	0.107609	0.002678
26485	0.515025	-0.071804	9.884752	0.059324	0.144161	-0.002552
26486	0.451516	-0.058223	9.950590	0.075005	0.173594	-0.002561
26487	0.365847	-0.021071	9.999213	0.080250	0.185148	-0.002936
26488	0.273874	0.055282	10.140101	0.076267	0.178613	-0.001190
26489	-0.345327	0.267840	10.631128	0.003792	0.006158	-0.008576
26490	0.505135	0.038844	9.906557	-0.018414	-0.017837	0.003379
26491	0.466439	-0.122585	9.914147	0.009037	0.028414	0.003689
26492	0.200174	0.092787	10.154029	0.000405	-0.007328	0.000476
26493	0.275762	-0.032528	10.076611	-0.000830	0.009136	0.004872
26494	0.345783	0.014716	10.022502	-0.002399	-0.001721	0.002635
26495	0.318114	-0.016467	10.014402	-0.004642	-0.000909	0.004521
26496	0.327020	0.008129	10.036658	-0.000581	-0.000726	0.006098
26497	0.337236	-0.010936	10.000234	-0.001741	-0.000545	0.003540
26498	0.331776	0.012627	10.002768	0.000289	-0.000454	0.004328
26499	0.331664	0.012334	10.002772	-0.005860	0.002710	0.003889
26500	0.327027	0.007262	10.036659	-0.001026	-0.002806	0.002518
26501	0.346061	0.013015	10.022494	-0.002456	0.001716	0.004561
26502	0.345962	0.012675	10.022498	-0.003985	0.000268	0.005426
26503	0.327052	0.006503	10.036659	-0.000369	-0.001630	0.003424
26504	0.312897	0.005090	10.016929	-0.003270	-0.001993	0.004405
26505	0.332750	-0.017644	10.034112	-0.002457	0.001716	0.004562
26506	0.370876	-0.005920	10.005780	-0.000312	-0.005067	0.001497
26507	0.313197	0.004323	10.016920	-0.005860	0.002711	0.003890
26508	0.332209	0.009812	10.002757	-0.002769	-0.003351	0.006059
26509	0.332173	0.009595	10.002758	-0.001141	0.004068	0.006372
26510	0.347308	-0.017791	10.053825	-0.003058	-0.002897	0.001730
26511	0.337798	-0.014574	10.000210	-0.002613	-0.000817	0.005311
26512	0.313444	0.002979	10.016913	-0.000369	-0.001630	0.003424
26513	0.347684	-0.018488	10.053811	-0.003986	0.000269	0.005428
26514	0.327937	0.003575	10.036631	-0.003271	-0.001993	0.004406
26515	0.313780	0.002173	10.016903	-0.000370	-0.001630	0.003424
26516	0.309116	-0.002561	10.050789	0.000445	0.002079	0.003581
26517	0.346888	0.009188	10.022470	-0.002457	0.001717	0.004563
26518	0.322372	0.026639	10.039182	-0.002614	-0.000817	0.005312
26519	0.346853	0.008715	10.022472	-0.001084	0.000631	0.004447
26520	0.346849	0.008559	10.022472	-0.001743	-0.000544	0.003541
26521	0.333462	-0.021140	10.034081	-0.000370	-0.001630	0.003424
26522	0.313718	0.001033	10.016905	-0.004858	-0.000003	0.007200
26523	0.332656	0.006692	10.002745	-0.000213	0.000904	0.002676
26524	0.313787	0.000547	10.016903	-0.003931	-0.003168	0.003502
26525	0.347282	0.007422	10.022458	-0.000871	-0.000272	0.001771
26526	0.333890	-0.022277	10.034065	-0.001242	-0.001902	0.005196
26527	0.334025	-0.022488	10.034060	-0.002614	-0.000816	0.005313
26528	0.347615	0.006711	10.022447	-0.004645	-0.000906	0.004525
26529	0.333301	0.005170	10.002724	-0.001956	0.000359	0.006219
26530	0.333365	0.005037	10.002722	-0.000371	-0.001630	0.003425
26531	0.314209	-0.001147	10.016890	-0.004543	0.005065	0.005705
26532	0.352796	-0.018066	10.019902	-0.002615	-0.000816	0.005313
26533	0.333307	0.004049	10.002724	-0.004090	-0.005700	0.004251
26534	0.314495	-0.002123	10.016881	-0.000714	0.002262	0.001023
26535	0.333407	0.003623	10.002721	-0.002615	-0.000816	0.005314
26536	0.328018	0.026999	10.005277	-0.002615	-0.000816	0.005314
26537	0.319233	0.001781	9.982994	-0.004646	-0.000905	0.004526
26538	0.334523	-0.025595	10.034036	0.001659	-0.001541	0.004213
26539	0.328172	0.026232	10.005274	-0.005860	0.002715	0.003896
26540	0.347986	0.003400	10.022436	-0.001030	-0.002805	0.002520
26541	0.314984	-0.004050	10.016865	-0.005677	-0.003710	0.007046
26542	0.348399	0.002667	10.022421	-0.001585	0.001990	0.002795
26543	0.320533	-0.028341	10.014299	-0.003275	-0.001991	0.004409
26544	0.362064	0.031674	10.010819	-0.002616	-0.000815	0.005315
26545	0.334332	0.000713	10.002691	-0.001244	-0.001902	0.005197
26546	0.315396	-0.005290	10.016851	-0.000213	0.000903	0.002678
26547	0.338589	0.020495	10.058859	-0.003702	-0.000184	0.009765
26548	0.348713	0.001333	10.022411	-0.000872	-0.000272	0.001772
26549	0.315436	-0.005939	10.016849	-0.002616	-0.000815	0.005316
26550	0.329807	-0.005119	10.036569	-0.003989	0.000272	0.005434
26551	0.314607	0.021849	9.985535	-0.001086	0.000632	0.004450
26552	0.329889	-0.005655	10.036566	-0.003935	-0.003165	0.003504
26553	0.363408	0.001126	10.042119	-0.001745	-0.000543	0.003544
26554	0.329298	0.022008	10.005247	-0.006892	-0.000088	0.006419
26555	0.324497	0.016949	10.039134	0.001105	0.003253	0.004490
26556	0.324475	0.016942	10.039135	-0.001032	-0.002805	0.002520
26557	0.334595	-0.002060	10.002682	-0.000713	0.002262	0.001024
26558	0.334599	-0.002416	10.002682	-0.006180	-0.002349	0.005395
26559	0.277722	-0.020629	10.045160	-0.003117	0.000544	0.003663
26560	0.300665	0.018232	9.965806	-0.001032	-0.002805	0.002520
26561	0.311469	-0.014037	10.050707	-0.003936	-0.003164	0.003505
26562	0.358481	0.022233	10.044675	-0.003117	0.000544	0.003663
26563	0.378472	-0.000618	10.061813	-0.003437	-0.004523	0.005159
26564	0.374122	-0.021064	10.005639	-0.003883	0.006243	0.006619
26565	0.325088	0.014176	10.039119	-0.001033	-0.002805	0.002520
26566	0.338749	0.043627	10.027533	-0.001086	0.000632	0.004451
26567	0.335276	-0.004999	10.002658	-0.001745	-0.000543	0.003545
26568	0.349745	-0.004015	10.022374	-0.001246	-0.001902	0.005199
26569	0.325386	0.013505	10.039111	-0.003117	0.000544	0.003664
26570	0.311030	0.012049	10.019391	-0.002904	-0.000359	0.000985
26571	0.349922	-0.004624	10.022368	0.001943	-0.001999	0.008548
26572	0.378849	-0.002361	10.061799	-0.002192	-0.002621	-0.000040
26573	0.355758	-0.028563	10.019773	-0.002618	-0.000814	0.005318
26574	0.297155	0.010399	9.999658	-0.000427	0.001806	0.005358
26575	0.283531	-0.019288	10.011239	-0.001746	-0.000543	0.003546
26576	0.325854	0.012429	10.039097	-0.000588	-0.000727	0.006107
26577	0.354882	-0.000787	9.988476	-0.003331	0.001448	0.006344
26578	0.331155	-0.011737	10.036519	-0.001959	0.000361	0.006226
26579	0.330454	0.016408	10.005219	-0.003279	-0.001988	0.004413
26580	0.364573	-0.005137	10.042076	0.000446	0.002078	0.003586
26581	0.335693	-0.007725	10.002642	-0.006520	0.001546	0.002996
26582	0.330166	0.015446	10.005231	-0.003118	0.000545	0.003665
26583	0.320820	0.005589	10.072991	-0.003118	0.000545	0.003665
26584	0.338985	0.039593	10.027542	-0.003118	0.000545	0.003665
26585	0.325366	0.009759	10.039116	-0.001960	0.000361	0.006226
26586	0.325303	0.009636	10.039118	-0.000214	0.000903	0.002680
26587	0.325386	0.009355	10.039115	-0.005026	-0.002530	0.007960
26588	0.344313	0.014718	10.024960	-0.005202	0.003896	0.004811
26589	0.330661	-0.015021	10.036531	0.001870	-0.002447	0.001535
26590	0.344409	0.014390	10.024958	-0.004651	-0.000899	0.004533
26591	0.311024	0.006999	10.019396	-0.002459	0.001720	0.004573
26592	0.329849	0.012633	10.005245	-0.002459	0.001720	0.004573
26593	0.319788	0.031270	10.041715	-0.002407	-0.001716	0.002640
26594	0.349591	-0.010275	10.022375	0.000446	0.002077	0.003587
26595	0.344057	0.013043	10.024972	-0.007181	0.000374	0.002091
26596	0.310761	0.005433	10.019405	-0.004368	-0.001355	0.008868
26597	0.310960	0.005091	10.019399	-0.002193	-0.002619	-0.000040
26598	0.325413	0.005935	10.039117	-0.003119	0.000546	0.003667
26599	0.316530	-0.019133	10.016798	-0.002407	-0.001716	0.002641
26600	0.311250	0.004268	10.019391	-0.002621	-0.000813	0.005322
26601	0.330262	0.009859	10.005234	-0.003119	0.000546	0.003667
26602	0.363618	0.016407	10.010799	-0.005810	-0.000713	0.001973
26603	0.335791	-0.014581	10.002632	-0.000376	-0.001631	0.003428
26604	0.325625	0.004009	10.039111	-0.005202	0.003897	0.004814
26605	0.296854	0.001615	9.999672	0.001869	-0.002448	0.001535
26606	0.344792	0.009495	10.024950	-0.006187	-0.002343	0.005402
26607	0.345688	-0.019370	10.056220	-0.001748	-0.000542	0.003548
26608	0.320612	0.026523	10.041702	-0.004653	-0.000898	0.004535
26609	0.311674	0.001450	10.019378	-0.001088	0.000632	0.004455
26610	0.344970	0.008373	10.024945	0.000070	0.000446	0.007017
26611	0.344812	0.008064	10.024951	-0.005862	0.002725	0.003908
26612	0.331319	-0.021712	10.036497	0.001706	-0.004982	0.002282
26613	0.311738	0.000807	10.019377	-0.002459	0.001721	0.004576
26614	0.344188	0.035943	9.993678	-0.003333	0.001450	0.006350
26615	0.278150	-0.006814	10.013818	-0.002837	0.000090	0.008005
26616	0.344609	0.006711	10.024959	-0.005416	0.004802	0.007498
26617	0.349602	-0.017395	10.022365	-0.002957	0.003081	0.002922
26618	0.316077	-0.024379	10.016801	0.002906	0.000355	-0.000987
26619	0.305384	0.022935	10.022014	-0.003283	-0.001986	0.004416
26620	0.329652	0.004804	10.005258	-0.003453	0.004441	0.001268
26621	0.349423	-0.018068	10.022370	-0.002358	-0.005151	0.000707
26622	0.335096	-0.019405	10.002647	-0.002930	0.004723	-0.011862
26623	0.337458	0.057234	9.996342	-0.002931	0.004723	-0.011861
26624	0.356609	0.034367	10.013477	-0.003291	0.006974	0.000521
26625	0.492293	0.094660	9.970727	-0.014418	0.025995	0.007290
26626	0.665683	0.168963	9.866262	-0.054599	0.108532	0.012684
26627	0.301181	0.016153	10.008617	-0.081238	0.165290	0.019682
26628	0.110735	-0.092849	10.110635	-0.066596	0.142751	0.025778
26629	0.098469	-0.069829	10.079507	-0.041796	0.088142	0.053186
26630	0.223764	0.011538	10.040290	-0.023994	0.049708	0.094024
26631	0.328993	0.010649	10.021318	-0.025094	0.050023	0.134423
26632	0.365853	0.023668	9.959696	-0.037631	0.075757	0.135666
26633	0.315967	-0.098294	10.025156	-0.050656	0.098887	0.083331
26634	0.280928	-0.057177	10.010901	-0.051718	0.105433	0.046139
26635	0.235623	-0.025713	10.064244	-0.048871	0.105369	0.038186
26636	-0.230452	-0.198809	10.218199	-0.021736	0.052222	0.019851
26637	0.317325	-0.078437	10.000792	-0.004037	0.005473	0.035580
26638	0.253703	-0.044059	10.014104	-0.003151	0.005745	0.033811
26639	0.225043	-0.074693	10.005468	-0.000002	0.005189	0.030141
26640	0.233332	-0.050366	10.028042	-0.003656	0.006679	0.025124
26641	0.251634	-0.044898	10.014153	-0.002454	0.011152	0.007800
26642	0.424752	-0.150086	9.954489	0.010572	0.024289	0.008935
26643	0.543811	-0.216224	9.928405	0.064094	0.115568	0.007044
26644	0.310348	-0.090397	10.018954	0.098455	0.181119	0.003627
26645	0.267639	-0.105213	9.977151	0.115596	0.215023	-0.001784
26646	0.214814	-0.051281	9.996784	0.130463	0.246807	-0.000113
26647	0.178781	-0.018533	10.033643	0.145869	0.261385	0.003202
26648	0.108741	0.037044	10.032694	0.150545	0.261979	0.003443
26649	0.019798	0.086605	10.044981	0.139533	0.251578	0.002621
26650	0.068310	0.017641	10.028231	0.129430	0.250885	0.003212
26651	-0.174142	0.169705	10.169297	0.134229	0.248002	0.001458
26652	-0.396865	0.410977	10.147514	0.029029	0.109801	0.029896
26653	0.253143	0.092099	10.041135	-0.001074	0.099628	0.032717
26654	0.283149	0.079132	10.012178	-0.006045	0.186725	0.077135
26655	0.088989	0.040358	10.012685	-0.005570	0.259027	0.092588
26656	-0.053755	0.062937	10.030544	-0.001081	0.275024	0.074549
26657	-0.053669	0.093326	10.039544	0.000494	0.281151	0.042771
26658	-0.090375	0.068756	10.016774	0.003440	0.286707	0.029373
26659	-0.076232	0.028451	10.019170	0.007503	0.301116	0.014843
26660	-0.090189	0.107405	10.032699	0.014331	0.325361	-0.008630
26661	-0.166516	0.049211	10.033752	0.015892	0.350162	-0.029235
26662	-0.281303	0.037241	9.997643	0.033574	0.356944	-0.076754
26663	-0.279913	0.243759	10.049287	0.014558	0.352292	-0.079844
26664	-0.293499	0.168182	10.096070	-0.028835	0.353714	-0.066473
26665	-0.284886	0.131377	10.010988	-0.047095	0.358854	-0.068010
26666	-0.305672	0.055078	10.003671	-0.051159	0.375779	-0.063443
26667	-0.328760	-0.020510	9.996186	-0.033001	0.407840	-0.065573
26668	-0.381556	0.024671	9.998833	-0.007293	0.432573	-0.073414
26669	-0.458712	0.017192	9.988687	-0.001204	0.454327	-0.056767
26670	-0.551897	-0.018304	9.988387	0.020750	0.459469	-0.045829
26671	-0.596968	-0.035367	9.929482	0.048092	0.461085	-0.043870
26672	-0.651611	-0.013802	10.016183	0.074732	0.455456	-0.032861
26673	-0.642828	-0.013085	9.953686	0.097911	0.456512	-0.016834
26674	-0.637560	0.031282	10.003831	0.133207	0.469817	-0.010818
26675	-0.623949	0.110263	9.989405	0.134709	0.507784	-0.017605
26676	-0.649769	0.202422	10.021590	0.126874	0.564896	-0.046110
26677	-0.794250	0.194426	10.009937	0.111922	0.609894	-0.071252
26678	-0.958708	0.206678	9.976927	0.088308	0.621624	-0.061212
26679	-1.084948	0.200042	9.950716	0.070101	0.611911	-0.046254
26680	-1.160035	0.176756	9.953766	0.061224	0.590489	-0.032386
26681	-1.179953	0.214238	9.980174	0.053893	0.568739	-0.027426
26682	-1.209546	0.200591	9.960711	0.039717	0.557302	-0.019144
26683	-1.254564	0.207870	9.921044	0.024163	0.546945	-0.010917
26684	-1.244376	0.223851	9.935787	0.013477	0.538319	0.009838
26685	-1.179438	0.148746	10.011268	0.007578	0.552057	0.054285
26686	-1.299836	0.138993	9.927474	0.001228	0.579082	0.107373
26687	-1.468509	0.091113	9.894852	0.015394	0.584211	0.132852
26688	-1.462621	0.109571	9.909260	0.037228	0.584136	0.128435
26689	-1.442788	0.158910	9.914628	0.050693	0.618186	0.121695
26690	-1.616256	0.116706	9.878349	0.073878	0.649390	0.090020
26691	-1.750609	0.184179	9.868480	0.079078	0.658742	0.039743
26692	-1.826335	0.240280	9.858618	0.089266	0.651286	-0.005311
26693	-1.842958	0.283885	9.850069	0.068082	0.649744	-0.024627
26694	-1.928154	0.283974	9.847463	0.056107	0.637637	-0.032485
26695	-1.890628	0.336066	9.842596	0.027965	0.639884	-0.031869
26696	-1.933955	0.290872	9.851027	0.001363	0.656548	-0.030073
26697	-2.062615	0.202046	9.763808	-0.008410	0.666213	-0.017269
26698	-2.240054	0.148669	9.772031	0.000930	0.648450	-0.011116
26699	-2.290913	0.202465	9.750128	0.018994	0.612969	-0.003376
26700	-2.326641	0.284116	9.774871	0.021490	0.583245	0.007077
26701	-2.283544	0.260170	9.725206	0.006809	0.580310	0.005670
26702	-2.290429	0.221894	9.747586	0.009283	0.598599	-0.004873
26703	-2.413851	0.257350	9.728441	0.003600	0.618393	-0.011491
26704	-2.465705	0.284861	9.682549	0.001879	0.621507	-0.032542
26705	-2.556807	0.250423	9.705891	-0.003878	0.618593	-0.050595
26706	-2.541913	0.266351	9.688976	-0.009505	0.619220	-0.063685
26707	-2.546888	0.226736	9.656265	-0.022444	0.643654	-0.068372
26708	-2.616472	0.246796	9.639657	-0.017007	0.676612	-0.068394
26709	-2.735737	0.230462	9.613255	-0.023303	0.706794	-0.064763
26710	-2.821167	0.197417	9.600638	-0.018956	0.719304	-0.058270
26711	-3.058038	0.203677	9.554284	-0.017808	0.701797	-0.037181
26712	-3.203239	0.206501	9.531538	-0.019048	0.647320	-0.016219
26713	-3.232132	0.211495	9.528237	-0.020468	0.578978	0.003508
26714	-3.157430	0.240780	9.523215	-0.028598	0.523204	0.035646
26715	-3.119960	0.209898	9.509998	-0.041796	0.510138	0.067713
26716	-3.059252	0.209470	9.514406	-0.048302	0.529513	0.082127
26717	-3.031775	0.176896	9.477843	-0.039869	0.582010	0.069903
26718	-3.113331	0.144910	9.441663	-0.025130	0.650300	0.047056
26719	-3.182836	0.217961	9.467651	-0.016793	0.713296	0.019185
26720	-3.344395	0.219538	9.390934	-0.015757	0.754881	-0.004768
26721	-3.490772	0.224673	9.382540	-0.017927	0.768888	-0.015053
26722	-3.414200	0.383917	9.386906	-0.026002	0.783756	-0.010940
26723	-3.450325	0.112123	9.365683	-0.097267	0.839204	0.045449
26724	-3.706552	0.264059	9.289563	-0.069409	0.860354	0.050522
26725	-3.751829	0.216608	9.252748	-0.091106	0.866248	0.051839
26726	-3.838859	0.133270	9.225092	-0.093723	0.885958	0.051674
26727	-4.036209	0.199474	9.208395	-0.091200	0.881666	0.045380
26728	-4.177996	0.227379	9.157538	-0.110843	0.850679	0.052723
26729	-4.286847	0.135483	9.108262	-0.126825	0.792391	0.064644
26730	-4.397497	0.041457	9.012068	-0.109927	0.731026	0.054850
26731	-4.411741	-0.053056	9.002127	-0.065370	0.688779	0.023389
26732	-4.380142	-0.009111	8.981465	-0.010614	0.652716	-0.003843
26733	-4.380901	0.079787	8.965566	0.012611	0.637107	-0.002150
26734	-4.461391	0.076183	8.940863	0.030854	0.635151	0.000106
26735	-4.574634	0.141879	8.966498	0.043702	0.604777	-0.010474
26736	-4.609625	0.174021	8.935659	0.038064	0.577881	-0.023453
26737	-4.592528	0.190964	8.876078	0.027801	0.563103	-0.034513
26738	-4.789579	0.055941	8.824058	0.043360	0.540904	-0.057155
26739	-4.655958	0.301878	8.890874	0.012016	0.511718	-0.039296
26740	-4.661344	0.108986	8.823334	0.021471	0.516185	-0.045705
26741	-4.720137	0.181647	8.845270	0.008617	0.534093	-0.053634
26742	-4.824649	0.189518	8.775265	-0.006845	0.535686	-0.046695
26743	-4.845635	0.193175	8.771636	-0.024043	0.526999	-0.026783
26744	-4.842951	0.201574	8.766031	-0.041269	0.534151	-0.018842
26745	-4.897729	0.218553	8.714710	-0.070792	0.548394	-0.008293
26746	-4.930531	0.139104	8.665628	-0.090519	0.559213	0.006447
26747	-4.915040	0.072572	8.636778	-0.082867	0.571025	0.034610
26748	-4.922865	0.103184	8.628143	-0.089223	0.611004	0.046653
26749	-4.971801	0.074693	8.597666	-0.083879	0.657020	0.062803
26750	-5.016016	0.126202	8.585519	-0.080585	0.690881	0.114258
26751	-5.135005	0.161387	8.526430	-0.105589	0.703910	0.191642
26752	-5.312373	0.007664	8.426181	-0.107285	0.719293	0.198849
26753	-5.445178	-0.007750	8.365095	-0.065379	0.731162	0.143007
26754	-5.542736	-0.063776	8.328062	-0.018796	0.725224	0.071190
26755	-5.552538	0.050881	8.307566	0.020975	0.712730	0.009138
26756	-5.617103	0.078756	8.315564	0.036332	0.712312	-0.020345
26757	-5.657125	0.108855	8.250168	0.045873	0.701766	-0.031770
26758	-5.680264	0.069514	8.237285	0.049621	0.690358	-0.043363
26759	-5.713170	0.076773	8.198198	0.061600	0.689028	-0.052150
26760	-5.628215	0.112901	8.185393	0.074870	0.706095	-0.055481
26761	-5.669278	0.145086	8.143555	0.061347	0.748897	-0.036218
26762	-5.696521	0.104540	8.078432	0.065566	0.799409	-0.051880
26763	-5.829035	-0.036355	7.984733	0.092812	0.864685	-0.099176
26764	-6.046900	0.056889	7.943761	0.127688	0.906126	-0.171570
26765	-6.212939	0.136163	7.902880	0.149979	0.891462	-0.197376
26766	-6.405853	0.232509	7.858110	0.124423	0.845713	-0.184868
26767	-6.474415	0.254229	7.804660	0.085647	0.754903	-0.132999
26768	-6.365759	0.170211	7.826828	0.047678	0.685370	-0.084570
26769	-6.237332	0.158606	7.753409	0.030379	0.674028	-0.056524
26770	-6.180166	0.130113	7.674317	0.023244	0.714238	-0.053089
26771	-6.305186	0.089260	7.646826	0.028702	0.770750	-0.052149
26772	-6.494141	0.107220	7.579794	0.040673	0.801630	-0.057686
26773	-6.705963	0.119377	7.507429	0.036053	0.769678	-0.056422
26774	-6.866019	0.142831	7.441923	0.021477	0.695386	-0.035605
26775	-7.120158	0.225152	7.461586	0.007565	0.589003	-0.023340
26776	-7.556682	0.223409	7.391567	-0.069999	0.344279	-0.066826
26777	-6.788827	0.096380	7.374841	-0.067888	0.240355	-0.058806
26778	-6.601673	0.119153	7.463267	-0.071785	0.251921	-0.064014
26779	-6.694242	0.113483	7.408612	-0.087321	0.296562	-0.081461
26780	-6.825710	0.069973	7.322768	-0.089886	0.300055	-0.082552
26781	-6.914986	0.017997	7.318883	-0.089223	0.260707	-0.075448
26782	-6.920260	0.003909	7.230190	-0.072189	0.217881	-0.062840
26783	-6.919289	0.003322	7.268403	-0.060266	0.174892	-0.049518
26784	-6.828524	0.051071	7.321639	-0.056007	0.163052	-0.043958
26785	-6.817481	0.049601	7.313987	-0.062599	0.173759	-0.044026
26786	-6.928725	-0.014231	7.212773	-0.066714	0.174013	-0.038794
26787	-7.091572	-0.109035	7.179345	-0.045085	0.117848	-0.025301
26788	-7.162126	-0.130715	7.138801	-0.019555	0.015013	0.006919
26789	-7.011108	-0.062776	7.213929	0.014182	-0.061968	0.026066
26790	-6.869633	-0.022982	7.266755	0.025020	-0.091450	0.032713
26791	-6.821947	0.016529	7.278672	0.026783	-0.088649	0.031692
26792	-6.779182	0.056683	7.313838	0.021232	-0.071575	0.025054
26793	-6.746316	0.041357	7.323298	0.011192	-0.034211	0.013358
26794	-6.787443	0.029666	7.292899	0.000352	-0.004720	0.006707
26795	-6.844066	0.042853	7.307164	-0.005798	0.005758	0.003795
26796	-6.914039	-0.031213	7.223537	-0.002203	0.001611	0.002600
26797	-6.941619	-0.012306	7.219009	0.011906	-0.040531	0.018657
26798	-6.941324	-0.008427	7.247356	0.019151	-0.083940	0.029831
26799	-6.827365	0.049655	7.294797	0.025262	-0.101700	0.042098
26800	-6.792702	0.058859	7.281155	0.020774	-0.092527	0.039337
26801	-6.744259	0.075119	7.318044	0.014549	-0.064986	0.026173
26802	-6.791310	0.066878	7.338155	0.005204	-0.040852	0.020782
26803	-6.759776	0.050749	7.346277	0.009167	-0.028547	0.014847
26804	-6.796625	0.038175	7.292358	-0.000333	-0.019603	0.012890
26805	-6.828563	0.057983	7.311693	0.003533	-0.011409	0.008133
26806	-6.733028	0.059097	7.353047	-0.002419	0.000355	0.003903
26807	-6.735545	0.081204	7.326000	-0.011698	0.028630	-0.002700
26808	-6.820792	0.009273	7.312649	-0.014441	0.044800	-0.007777
26809	-6.895246	0.013041	7.272745	-0.011242	0.031143	-0.005289
26810	-6.873221	0.018146	7.275183	-0.005570	0.007031	0.002497
26811	-6.873004	0.018349	7.275387	0.000191	-0.012962	0.009094
26812	-6.828909	0.031990	7.308228	0.006714	-0.025059	0.010608
26813	-6.821535	0.009588	7.311955	0.006141	-0.024727	0.013324
26814	-6.801972	0.040081	7.315239	0.000593	-0.021534	0.008762
26815	-6.800509	0.040844	7.316596	0.003572	-0.018386	0.009208
26816	-6.776042	0.047404	7.321291	0.000068	-0.010111	0.009214
26817	-6.803060	0.043198	7.342068	-0.001240	-0.003450	0.006616
26818	-6.800535	0.064778	7.291835	-0.003727	0.007015	0.001305
26819	-6.818962	0.034920	7.289626	-0.008456	0.008003	0.000865
26820	-6.819416	0.034649	7.289202	-0.002327	0.004472	0.002716
26821	-6.805742	0.065124	7.314852	-0.005173	-0.001535	0.002160
26822	-6.753467	0.052914	7.324242	-0.002327	0.004472	0.002717
26823	-6.806663	0.064704	7.313999	-0.008626	0.017833	-0.000096
26824	-6.839576	0.004068	7.285358	-0.007005	0.016550	0.000015
26825	-6.873259	0.022847	7.303059	-0.002418	0.000353	0.003905
26826	-6.812317	0.009021	7.264803	0.001331	-0.009799	0.010734
26827	-6.801907	0.041344	7.315293	0.000640	-0.010446	0.006498
26828	-6.824807	0.035881	7.312040	-0.002508	-0.003765	0.005093
26829	-6.824239	0.036245	7.312568	0.000419	-0.011708	0.007800
26830	-6.775417	0.025799	7.346602	0.001869	-0.003159	0.006947
26831	-6.819337	0.036127	7.289269	-0.002507	-0.003765	0.005094
26832	-6.846584	0.031601	7.309838	-0.002507	-0.003765	0.005094
26833	-6.800700	0.066130	7.291670	0.000290	-0.008853	0.007914
26834	-6.794664	0.042859	7.294159	-0.000886	-0.005048	0.005204
26835	-6.775160	0.049918	7.322091	-0.002415	0.000353	0.003906
26836	-6.822478	0.038215	7.314201	-0.005251	0.012416	0.000011
26837	-6.825017	0.060436	7.287103	-0.005511	0.018128	0.000238
26838	-6.848125	0.031543	7.308394	-0.008358	0.012122	-0.000318
26839	-6.848383	0.031372	7.308154	-0.000888	-0.005048	0.005202
26840	-6.843584	0.030911	7.284761	0.003083	-0.013942	0.010732
26841	-6.824588	0.061179	7.287499	0.000328	-0.015830	0.008989
26842	-6.792877	0.021505	7.320549	0.004967	-0.020940	0.010618
26843	-6.847802	0.035870	7.336556	0.006810	-0.020962	0.009429
26844	-6.771641	0.053329	7.325321	0.006281	-0.027609	0.013224
26845	-6.738628	0.058056	7.282249	0.002963	-0.011091	0.010853
26846	-6.773828	0.055937	7.351103	-0.005171	-0.001533	0.002165
26847	-6.816665	0.043150	7.319592	-0.003812	0.002898	0.002498
26848	-6.811322	0.019405	7.321450	-0.002192	0.001615	0.002607
26849	-6.836209	0.036343	7.291658	-0.002633	-0.000910	0.005210
26850	-6.789192	0.048193	7.299219	-0.001806	-0.003124	0.009337
26851	-6.769521	0.055338	7.327266	-0.002151	-0.005362	0.003685
26852	-6.811978	0.042864	7.296110	-0.002502	-0.003768	0.005099
26853	-6.821286	0.067947	7.318396	0.000607	-0.003477	0.005429
26854	-6.786630	0.026522	7.326323	-0.004121	-0.002485	0.004991
26855	-6.770050	0.078746	7.302034	-0.001142	0.000664	0.005432
26856	-6.741500	0.060816	7.307395	-0.005690	0.009897	0.002615
26857	-6.775767	0.079285	7.324567	-0.009924	0.024512	-0.002693
26858	-6.768589	0.052959	7.300315	-0.018086	0.041046	-0.012450
26859	-6.795601	0.045102	7.293273	-0.017230	0.056894	-0.011649
26860	-6.790379	0.074302	7.338944	-0.023018	0.065797	-0.015966
26861	-6.827231	0.011417	7.306634	-0.026484	0.074053	-0.015927
26862	-6.893963	-0.010744	7.242760	-0.021545	0.056248	-0.013449
26863	-6.906743	0.012247	7.261828	-0.009564	0.029858	-0.005135
26864	-6.831310	-0.017714	7.299665	-0.010080	0.016245	-0.000292
26865	-6.870918	0.024547	7.314959	-0.004189	0.011452	0.002855
26866	-6.820546	0.034880	7.297952	-0.005777	0.005763	0.003809
26867	-6.802018	0.041456	7.325123	-0.005578	0.013994	0.001451
26868	-6.752758	0.051059	7.307107	-0.014397	0.033691	-0.005444
26869	-6.801216	0.015192	7.322755	-0.016969	0.046999	-0.010603
26870	-6.830018	0.029769	7.289110	-0.023111	0.064450	-0.014548
26871	-6.815803	0.033622	7.312338	-0.025407	0.072037	-0.019925
26872	-6.818574	0.051870	7.256986	-0.030589	0.084403	-0.019847
26873	-6.823777	0.025411	7.276931	-0.031368	0.093547	-0.024971
26874	-6.840734	0.045947	7.292265	-0.036401	0.103041	-0.024991
26875	-6.815635	0.022079	7.266586	-0.042546	0.119462	-0.035807
26876	-6.848258	0.010727	7.253934	-0.042829	0.134897	-0.036370
26877	-6.887327	0.022767	7.238346	-0.045129	0.145258	-0.041515
26878	-6.909805	-0.036650	7.228512	-0.052048	0.136700	-0.037081
26879	-6.943757	-0.025713	7.189363	-0.045877	0.126181	-0.034130
26880	-6.906170	-0.019729	7.188776	-0.047991	0.127713	-0.031441
26881	-6.931551	-0.100510	7.229061	-0.053769	0.143140	-0.028390
26882	-7.132471	-0.136904	7.061882	-0.009605	0.077640	0.004591
26883	-6.796596	-0.037558	7.291244	-0.000804	0.081989	0.000294
26884	-6.715312	-0.069615	7.251567	-0.001324	0.164215	-0.007563
26885	-6.838905	-0.044779	7.240926	0.013302	0.238380	-0.009918
26886	-6.956811	-0.021662	7.178368	0.013335	0.266500	-0.019099
26887	-6.984379	-0.053425	7.109334	0.018019	0.272844	-0.024814
26888	-7.027618	-0.036826	7.059992	0.017583	0.268846	-0.020668
26889	-7.056746	-0.012355	7.063188	0.019694	0.261703	-0.020572
26890	-7.110699	-0.048662	7.014236	0.009671	0.246817	-0.008592
26891	-7.114096	-0.018266	7.024312	0.001723	0.212827	-0.004518
26892	-7.076879	-0.030370	7.020751	-0.002604	0.208960	0.001801
26893	-7.045054	-0.041255	7.040959	-0.000283	0.220714	0.005766
26894	-7.002277	-0.044267	7.111996	-0.000321	0.260899	0.004432
26895	-6.965814	-0.057036	7.079586	-0.001725	0.321607	0.001656
26896	-7.019483	-0.039282	7.047845	0.000792	0.384923	-0.002989
26897	-7.106701	-0.058736	6.956629	0.000396	0.426544	0.000444
26898	-7.188924	-0.046818	6.912928	-0.003714	0.450589	0.000970
26899	-7.317776	-0.046373	6.857481	0.000950	0.445299	0.006136
26900	-7.353403	-0.054988	6.749175	-0.009843	0.422393	0.002380
26901	-7.391899	-0.053280	6.767164	-0.003361	0.375646	0.005905
26902	-7.324710	-0.029726	6.761797	-0.004142	0.365316	0.005547
26903	-7.304282	-0.040676	6.771667	-0.003111	0.378520	0.004498
26904	-7.376236	-0.052273	6.732206	-0.003862	0.388909	0.004416
26905	-7.379484	-0.046444	6.709128	-0.004137	0.392162	0.002472
26906	-7.344928	-0.051005	6.746203	-0.005529	0.421298	-0.000206
26907	-7.367004	-0.029416	6.664559	-0.002824	0.452471	0.000806
26908	-7.414749	-0.036829	6.600176	-0.008389	0.489689	-0.008408
26909	-7.476995	-0.042569	6.580463	-0.001286	0.506154	-0.004902
26910	-7.472188	-0.030768	6.577521	-0.005921	0.535456	-0.010220
26911	-7.545366	-0.021681	6.474316	-0.005946	0.559112	-0.008242
26912	-7.599259	-0.052296	6.427512	-0.008914	0.571368	-0.007684
26913	-7.643144	-0.052560	6.407111	-0.008368	0.576842	-0.008542
26914	-7.650162	-0.048801	6.346287	-0.010066	0.581090	-0.007079
26915	-7.687145	-0.050197	6.301429	-0.013681	0.588666	-0.009737
26916	-7.709534	-0.044914	6.285733	-0.011738	0.605299	-0.007655
26917	-7.770722	-0.052109	6.230814	-0.016148	0.628240	-0.004473
26918	-7.811666	-0.084779	6.130525	-0.019021	0.638966	-0.002226
26919	-7.856154	-0.062635	6.077456	-0.024172	0.646325	-0.003489
26920	-7.853570	-0.075481	6.067304	-0.022688	0.655437	-0.004678
26921	-7.948631	-0.041443	5.994090	-0.019985	0.664806	-0.004139
26922	-7.988331	-0.043055	5.941068	-0.024344	0.665750	-0.003110
26923	-8.079900	-0.086767	5.844517	-0.026461	0.636715	0.000159
26924	-8.112937	-0.034208	5.819431	-0.034631	0.607850	0.006221
26925	-8.049689	-0.028746	5.860645	-0.059768	0.601292	0.018570
26926	-8.054792	0.005720	5.848808	-0.089219	0.605805	0.046818
26927	-8.090308	0.003959	5.799583	-0.133002	0.613884	0.069815
26928	-8.096618	0.037629	5.786326	-0.204845	0.634406	0.112579
26929	-8.312525	-0.102801	5.532492	-0.228529	0.625839	0.130629
26930	-8.385242	-0.139347	5.465888	-0.193602	0.598286	0.113364
26931	-8.339413	-0.070357	5.448091	-0.169531	0.566507	0.097110
26932	-8.306888	-0.108266	5.402938	-0.164909	0.561765	0.097413
26933	-8.294809	-0.144983	5.401609	-0.135388	0.595842	0.074013
26934	-8.314297	-0.086276	5.408435	-0.114941	0.635660	0.061062
26935	-8.306667	-0.076691	5.372802	-0.121739	0.688865	0.057174
26936	-8.371681	-0.066780	5.246868	-0.131577	0.724687	0.062863
26937	-8.465357	-0.132408	5.160097	-0.114773	0.750758	0.050765
26938	-8.510451	-0.163721	5.066092	-0.064751	0.768916	0.021332
26939	-8.565110	-0.140752	5.018684	-0.025815	0.786077	0.000690
26940	-8.587775	-0.113205	4.958675	-0.024072	0.791796	-0.010994
26941	-8.657272	-0.072722	4.873620	-0.011553	0.796120	-0.007397
26942	-8.758340	-0.090309	4.772971	-0.014414	0.763602	-0.007447
26943	-8.705522	-0.093552	4.754170	-0.008323	0.749524	-0.007665
26944	-8.632326	-0.091301	4.747137	-0.006401	0.777877	-0.010788
26945	-8.670170	-0.092639	4.677641	-0.003613	0.828663	-0.014665
26946	-8.808856	-0.091456	4.575837	-0.000469	0.858346	-0.013631
26947	-8.876960	-0.104253	4.455057	0.005521	0.863195	-0.020909
26948	-8.914876	-0.105888	4.378650	0.008962	0.854745	-0.023030
26949	-8.956134	-0.083579	4.299598	0.017532	0.843163	-0.023005
26950	-8.990617	-0.138472	4.197697	0.016815	0.834834	-0.023605
26951	-8.924322	-0.112589	4.184789	0.026071	0.842629	-0.029311
26952	-9.010358	-0.094848	4.133733	0.014715	0.861733	-0.024128
26953	-9.025812	-0.090765	4.068378	0.001448	0.871295	-0.014348
26954	-9.134094	-0.108108	3.970745	-0.012364	0.872639	-0.010916
26955	-9.107524	-0.105766	3.843667	-0.022814	0.866354	-0.011163
26956	-9.120910	-0.101728	3.777743	-0.021538	0.871635	-0.002150
26957	-9.130070	-0.121314	3.714275	-0.032714	0.890916	-0.003799
26958	-9.182527	-0.128114	3.618235	-0.037947	0.907751	0.003294
26959	-9.300483	-0.103474	3.471948	-0.041399	0.905663	0.004931
26960	-9.394256	-0.138107	3.403788	-0.039234	0.871171	0.007399
26961	-9.412502	-0.144833	3.270545	-0.034939	0.828677	0.011069
26962	-9.472282	-0.119819	3.229830	-0.025637	0.778485	0.016946
26963	-9.492197	-0.172572	3.131673	-0.015840	0.733411	0.012235
26964	-9.443497	-0.125822	3.118654	-0.008606	0.698452	0.020681
26965	-9.461493	-0.118073	3.087186	-0.004080	0.683310	0.023054
26966	-9.594169	-0.119030	2.963550	0.000045	0.669977	0.019803
26967	-9.593693	-0.141425	2.886466	0.006907	0.622035	0.016611
26968	-9.664174	-0.120401	2.848003	0.012106	0.564741	0.014245
26969	-9.501734	-0.141502	2.786428	0.012261	0.517093	0.012365
26970	-9.551067	-0.115291	2.772199	0.011393	0.482931	0.012187
26971	-9.610017	-0.142150	2.753135	0.012460	0.448860	0.011093
26972	-9.560446	-0.206825	2.701826	0.025946	0.418297	0.024428
26973	-9.525106	-0.173552	2.637842	0.047841	0.396697	0.059762
26974	-9.561052	-0.087844	2.641067	0.067881	0.385679	0.073812
26975	-9.606668	-0.089278	2.573933	0.104347	0.362001	0.075747
26976	-9.670642	-0.101452	2.459304	0.164266	0.333998	0.063394
26977	-9.605549	-0.022523	2.622631	0.191221	0.325401	0.034981
26978	-9.520941	-0.048144	2.610663	0.129508	0.335253	0.019888
26979	-9.542677	-0.065889	2.600306	0.066467	0.349245	0.039468
26980	-9.577760	-0.024987	2.508107	0.020635	0.360574	0.041295
26981	-9.567565	-0.051492	2.425969	0.005152	0.359357	0.038182
26982	-9.608373	-0.088135	2.330421	0.004254	0.342463	0.048138
26983	-9.629193	-0.105255	2.320998	0.008949	0.312150	0.072649
26984	-9.604701	-0.062080	2.320924	0.016376	0.274938	0.097611
26985	-9.651909	-0.009299	2.288485	0.021409	0.252647	0.099202
26986	-9.654585	-0.029379	2.235122	0.024814	0.237906	0.094907
26987	-9.663037	0.003581	2.208899	0.028545	0.216343	0.082632
26988	-9.670381	0.041509	2.219386	0.016563	0.180252	0.071239
26989	-9.688188	0.012515	2.157597	0.014984	0.145008	0.053883
26990	-9.673404	0.029054	2.195669	0.005796	0.109227	0.043579
26991	-9.623955	0.049029	2.235126	0.001084	0.094968	0.034252
26992	-9.656948	0.029295	2.264578	-0.003549	0.110346	0.016106
26993	-9.631956	0.088062	2.276813	-0.009549	0.139556	-0.004320
26994	-9.625836	0.009332	2.240610	-0.015555	0.177197	-0.013088
26995	-9.592673	-0.011477	2.225425	-0.015995	0.210257	-0.011844
26996	-9.631891	-0.022700	2.170436	-0.012067	0.244457	0.008213
26997	-9.637415	-0.021528	2.145790	-0.007534	0.267108	0.020512
26998	-9.680739	-0.000626	2.115529	-0.000769	0.282996	0.015186
26999	-9.672330	0.017730	2.032545	0.002336	0.283120	0.016886
27000	-9.715311	0.038535	2.001962	0.006968	0.267315	0.012676
27001	-9.680428	0.002461	2.018800	0.007262	0.258789	0.001336
27002	-9.686360	0.008841	2.026922	0.016984	0.274899	-0.002561
27003	-9.641162	0.018419	2.015743	0.008863	0.301884	-0.009171
27004	-9.681731	0.012496	1.985227	0.001701	0.331638	-0.021926
27005	-9.723911	0.016822	1.880304	-0.012753	0.339631	-0.028259
27006	-9.722833	-0.039981	1.822833	-0.004865	0.326522	-0.030095
27007	-9.712090	-0.037112	1.808661	0.013502	0.317118	-0.023083
27008	-9.720940	-0.014822	1.773118	0.025904	0.322862	-0.015249
27009	-9.690768	-0.028360	1.779937	0.033809	0.337952	-0.006284
27010	-9.716248	-0.009370	1.725112	0.044885	0.343937	0.004188
27011	-9.740113	-0.007214	1.707755	0.035953	0.354498	0.008712
27012	-9.747429	0.011813	1.634945	0.030890	0.350797	0.010233
27013	-9.766016	-0.015864	1.589336	0.023160	0.320276	0.012092
27014	-9.755747	0.008438	1.538765	0.008456	0.285765	0.010793
27015	-9.760992	-0.001333	1.584069	0.012215	0.268891	0.016244
27016	-9.715042	0.010721	1.576195	0.014412	0.278856	0.022472
27017	-9.721900	0.019070	1.581102	0.013190	0.317394	0.015626
27018	-9.731994	0.032363	1.614941	0.010913	0.379795	-0.004694
27019	-9.751544	0.002777	1.561422	0.014128	0.450118	-0.007241
27020	-9.753388	-0.027503	1.485414	0.016140	0.509618	-0.001532
27021	-9.782654	0.031690	1.368106	0.024745	0.547278	-0.013736
27022	-9.796705	0.006410	1.194373	0.055153	0.562256	-0.015635
27023	-9.840174	0.024087	1.132897	0.085309	0.547617	-0.032594
27024	-9.848849	0.044384	1.076258	0.089938	0.506010	-0.057792
27025	-9.839388	0.027122	1.085226	0.092054	0.463583	-0.070946
27026	-9.785312	0.008127	1.189407	0.079148	0.472439	-0.077762
27027	-9.822914	0.003687	1.294324	0.039966	0.550807	-0.086083
27028	-9.815574	0.000657	1.253393	0.005879	0.657797	-0.094810
27029	-9.790845	-0.070215	1.110790	0.003306	0.768705	-0.102484
27030	-9.783828	-0.081956	0.891936	0.031420	0.854722	-0.099873
27031	-9.793037	-0.132988	0.726642	0.032063	0.869054	-0.084951
27032	-9.814651	-0.146333	0.500038	0.048973	0.830951	-0.052186
27033	-9.904909	-0.035060	0.422894	0.037008	0.724982	-0.037731
27034	-9.879327	-0.070047	0.315287	0.006195	0.585607	-0.044042
27035	-9.870054	-0.085954	0.319921	0.000648	0.487979	-0.043484
27036	-9.880754	-0.101194	0.346381	0.013358	0.431520	-0.047150
27037	-9.865922	-0.041090	0.366200	0.016770	0.418416	-0.059116
27038	-9.878343	-0.099078	0.440069	0.016148	0.421530	-0.068405
27039	-9.839900	-0.107709	0.370006	-0.022617	0.435522	-0.075167
27040	-9.838758	-0.138455	0.330923	-0.034845	0.462313	-0.065511
27041	-9.856186	-0.127002	0.259539	-0.047641	0.485601	-0.065265
27042	-9.816703	-0.134706	0.183997	-0.055144	0.494811	-0.059935
27043	-9.857145	-0.157430	0.076274	-0.051573	0.494288	-0.052479
27044	-9.833614	-0.127357	0.062154	-0.047073	0.488673	-0.049754
27045	-9.845459	-0.215718	-0.132649	-0.035899	0.450485	-0.045952
27046	-9.829645	-0.231183	-0.238980	-0.025943	0.364014	-0.011383
27047	-9.813236	-0.189788	-0.202423	-0.009918	0.270426	0.009066
27048	-9.856406	-0.104371	-0.162402	-0.000727	0.212791	0.009071
27049	-9.874471	-0.132586	-0.073350	-0.006610	0.199643	-0.004370
27050	-9.846235	-0.145814	-0.049286	-0.005325	0.227900	-0.013571
27051	-9.830139	-0.159598	-0.138910	-0.007952	0.252038	-0.009298
27052	-9.831889	-0.195735	-0.211591	-0.003723	0.252201	0.001330
27053	-9.833849	-0.171211	-0.239859	0.000855	0.217674	0.014686
27054	-9.835330	-0.205075	-0.307103	0.006647	0.175929	0.023976
27055	-9.829131	-0.184554	-0.359759	0.015821	0.120456	0.040308
27056	-9.852138	-0.156068	-0.360244	0.016171	0.044105	0.044117
27057	-9.882149	-0.116088	-0.410247	0.005532	-0.057698	0.035389
27058	-9.855038	-0.125346	-0.354946	0.008529	-0.140985	0.028266
27059	-9.826913	-0.163685	-0.197608	0.006662	-0.174099	0.035259
27060	-9.810124	-0.142301	-0.108079	0.011036	-0.158827	0.039671
27061	-9.870316	-0.100605	-0.009196	-0.002003	-0.093755	0.037950
27062	-9.848625	-0.092953	-0.106998	-0.008385	-0.033451	0.023672
27063	-9.874034	-0.102615	-0.145007	-0.008263	-0.010256	0.009902
27064	-9.832611	-0.103556	-0.170005	-0.010181	-0.005897	-0.000412
27065	-9.855607	-0.138591	-0.203755	-0.009671	-0.019346	0.000471
27066	-9.814254	-0.139689	-0.226194	-0.008735	-0.049223	0.005673
27067	-9.832721	-0.161283	-0.201625	-0.005288	-0.083208	0.023233
27068	-9.799533	-0.153720	-0.184877	-0.001589	-0.112841	0.030164
27069	-9.827730	-0.137507	-0.218040	0.003551	-0.133394	0.046562
27070	-9.846223	-0.096638	-0.143259	0.000488	-0.149790	0.042691
27071	-9.849487	-0.134132	-0.084778	-0.000539	-0.158080	0.030787
27072	-9.854437	-0.083764	-0.080316	-0.007415	-0.141653	0.027610
27073	-9.867593	-0.092161	0.004270	-0.007264	-0.129546	0.024983
27074	-9.849849	-0.126693	-0.044643	-0.008232	-0.114968	0.014844
27075	-9.834585	-0.142818	-0.009054	-0.006427	-0.098899	0.025837
27076	-9.819281	-0.158115	0.024843	-0.006087	-0.081180	0.031938
27077	-9.821720	-0.130250	0.026224	0.001517	-0.051450	0.051899
27078	-9.829571	-0.113187	-0.027412	0.002466	-0.039638	0.055834
27079	-9.860097	-0.076790	0.017065	0.004391	-0.028340	0.055357
27080	-9.852595	-0.077905	-0.013645	0.005417	-0.019711	0.051668
27081	-9.845107	-0.079167	-0.045178	0.006692	-0.011649	0.052617
27082	-9.855524	-0.108942	0.032040	0.006189	-0.004351	0.047500
27083	-9.855027	-0.039613	-0.016254	0.005969	0.000789	0.043215
27084	-9.870940	-0.082270	0.007212	0.001097	-0.001042	0.038126
27085	-9.829915	-0.080198	-0.019401	0.007910	0.005918	0.038567
27086	-9.873299	-0.050607	0.000890	0.005129	0.013430	0.044894
27087	-9.852789	-0.047292	-0.013922	0.005851	0.019645	0.040003
27088	-9.855076	-0.020556	-0.020933	0.005757	0.018417	0.020457
27089	-9.850531	-0.066609	-0.012566	0.001287	0.020394	0.009268
27090	-9.865806	-0.047449	-0.039845	-0.000837	0.024978	0.009989
27091	-9.845259	-0.048014	-0.054778	-0.005717	0.010822	-0.003448
27092	-9.842990	-0.071987	-0.049777	-0.001284	-0.008062	-0.000939
27093	-9.803992	-0.055370	0.010285	-0.005533	0.001107	0.000499
27094	-9.850532	-0.065515	-0.016870	0.000066	0.009147	0.000705
27095	-9.842988	-0.071717	-0.050527	-0.003407	0.002688	0.003947
27096	-9.848447	-0.083523	-0.103248	-0.003442	-0.008051	-0.000573
27097	-9.843000	-0.071287	-0.048902	-0.000226	-0.019684	0.005867
27098	-9.827742	-0.088841	-0.022214	0.001339	-0.013783	0.007644
27099	-9.886362	-0.043723	-0.024814	0.001530	-0.011168	0.019927
27100	-9.830029	-0.062535	-0.025320	0.000217	-0.005142	0.004300
27101	-9.863582	-0.066240	-0.031827	0.003224	0.000697	0.014776
27102	-9.852832	-0.035943	-0.016960	0.000531	-0.002729	0.005489
27103	-9.840810	-0.089037	-0.038977	0.000371	-0.013266	0.012066
27104	-9.843079	-0.063948	-0.042713	0.001247	-0.015174	0.014930
27105	-9.832323	-0.033091	-0.026192	0.003028	-0.020581	0.016842
27106	-9.863642	-0.059704	-0.025246	0.000461	-0.030540	0.019142
27107	-9.878939	-0.040320	-0.046780	0.006385	-0.040179	0.004222
27108	-9.858446	-0.040944	-0.055496	0.006943	-0.050668	0.001745
27109	-9.863677	-0.058085	-0.011821	0.002568	-0.059795	0.001804
27110	-9.837545	-0.047312	0.033701	0.000842	-0.057575	-0.007723
27111	-9.850600	-0.053770	0.018692	-0.006064	-0.041087	-0.011059
27112	-9.814757	-0.073621	0.033594	-0.002917	-0.023116	-0.003371
27113	-9.848324	-0.078325	0.028558	-0.001623	-0.008885	0.001709
27114	-9.830100	-0.055309	0.010440	-0.005217	0.003524	0.001692
27115	-9.848325	-0.078224	0.028216	-0.003288	0.008656	-0.002990
27116	-9.857993	-0.048053	0.055137	-0.005152	0.012674	0.002379
27117	-9.822696	-0.061353	-0.025929	-0.001451	0.020156	0.007586
27118	-9.856267	-0.065226	-0.033805	-0.004642	0.005369	0.007530
27119	-9.840941	-0.082490	-0.008709	-0.000791	-0.007610	0.012199
27120	-9.876779	-0.061609	-0.019209	0.000260	-0.017646	0.022845
27121	-9.832378	-0.025919	0.004375	-0.000043	-0.027819	0.013692
27122	-9.827890	-0.072001	0.017349	0.000558	-0.027567	0.015721
27123	-9.844903	-0.034078	0.079955	0.000805	-0.003301	0.010152
27124	-9.868864	-0.068178	0.044905	-0.002391	0.012916	0.004033
27125	-9.850629	-0.045027	0.025037	-0.002955	0.017239	0.002352
27126	-9.837545	-0.038947	0.042930	-0.003279	0.022583	0.009145
27127	-9.850646	-0.043544	0.020623	-0.003243	0.027157	0.009493
27128	-9.854096	-0.078576	-0.029920	-0.001344	0.027713	0.004469
27129	-9.863738	-0.048055	-0.003881	0.000389	0.011563	0.001877
27130	-9.843243	-0.048776	-0.017697	-0.001558	0.000265	0.002396
27131	-9.841016	-0.072383	-0.012479	0.000281	-0.002161	0.000840
27132	-9.830166	-0.043090	0.002648	0.003339	-0.005675	-0.000482
27133	-9.854097	-0.077843	-0.031407	0.006094	-0.005436	0.001172
27134	-9.843248	-0.048538	-0.015229	0.008107	-0.023748	-0.000579
27135	-9.841021	-0.072327	-0.007596	0.011765	-0.027010	0.000128
27136	-9.841026	-0.071964	-0.005418	0.011478	-0.017091	0.007267
27137	-9.852879	-0.017325	0.018552	0.017737	-0.005820	0.006001
27138	-9.878529	-0.034267	0.069138	0.020360	0.024195	-0.017992
27139	-9.829664	-0.050223	0.096042	0.010715	0.071447	-0.029058
27140	-9.858087	-0.041140	0.042511	-0.004528	0.104484	-0.044429
27141	-9.827559	-0.081788	0.080695	-0.010720	0.136528	-0.040816
27142	-9.846299	-0.097344	-0.096720	-0.009924	0.134808	-0.026759
27143	-9.871301	-0.046386	-0.195098	-0.003050	0.068829	-0.029876
27144	-9.838602	-0.104815	-0.233314	0.011702	-0.021893	-0.042129
27145	-9.821289	-0.144971	-0.289431	0.064602	-0.075870	-0.026843
27146	-9.851642	-0.121369	-0.149094	0.150879	-0.085620	-0.015220
27147	-9.802630	-0.141595	-0.017253	0.191556	-0.089663	-0.015869
27148	-9.691655	-0.302677	-0.002536	0.154282	-0.126990	0.082024
27149	-9.873986	-0.094629	0.075565	0.087399	-0.165228	0.129644
27150	-9.885802	-0.028668	0.113156	0.072795	-0.139788	0.108364
27151	-9.870342	-0.037217	0.148371	0.110354	-0.064377	0.081761
27152	-9.854982	-0.047836	0.175608	0.142702	0.022347	0.064658
27153	-9.834641	-0.043032	0.157101	0.136640	0.085145	0.050714
27154	-9.850112	-0.020143	0.121851	0.109631	0.120383	0.045170
27155	-9.855977	-0.027726	0.056615	0.060375	0.132413	0.055351
27156	-9.832391	0.016821	-0.013304	0.019394	0.127956	0.050798
27157	-9.878991	0.010525	-0.051774	0.013331	0.116157	0.029918
27158	-9.871284	0.001025	-0.004519	0.019711	0.106923	0.001356
27159	-9.848620	-0.024608	-0.022851	0.037226	0.109417	-0.016019
27160	-9.836805	-0.080556	-0.055611	0.064411	0.109661	-0.016089
27161	-9.823618	-0.071545	-0.136967	0.074534	0.093950	0.002329
27162	-9.808481	-0.087450	-0.119092	0.052083	0.060045	0.040428
27163	-9.845256	-0.123608	-0.176699	0.065160	0.012840	0.060261
27164	-9.837727	-0.124690	-0.207983	0.104238	-0.044099	0.064214
27165	-9.845545	-0.111303	-0.168610	0.151274	-0.083932	0.068800
27166	-9.880035	-0.025736	-0.129135	0.170425	-0.122431	0.059547
27167	-9.842581	-0.062845	-0.096987	0.173395	-0.163146	0.060747
27168	-9.859709	-0.018812	-0.019621	0.165525	-0.184901	0.060309
27169	-9.829828	0.035836	0.085149	0.129443	-0.187433	0.060867
27170	-9.856177	0.114129	0.098381	0.079453	-0.164465	0.057281
27171	-9.826369	0.170665	0.107799	0.019431	-0.130909	0.039443
27172	-9.859091	0.165992	0.203458	-0.027798	-0.087851	0.015328
27173	-9.874120	0.099517	0.149469	-0.050332	-0.048660	-0.013532
27174	-9.840463	0.101328	0.158385	-0.051161	-0.001930	-0.037984
27175	-9.840415	0.013135	0.121119	-0.053717	0.039559	-0.041821
27176	-9.831203	-0.021761	0.088497	-0.054603	0.069760	-0.036550
27177	-9.827867	-0.068836	0.001576	-0.067311	0.072691	-0.022098
27178	-9.829907	-0.045787	-0.009990	-0.081421	0.046095	0.009719
27179	-9.857660	-0.035548	0.033247	-0.100118	0.013535	0.022293
27180	-9.850381	-0.039746	-0.000358	-0.111825	-0.001332	0.039674
27181	-9.841272	0.017134	0.008156	-0.108351	0.000484	0.036128
27182	-9.850571	0.050794	0.035115	-0.095768	0.008882	0.021471
27183	-9.850568	0.052378	0.033504	-0.075099	0.024731	0.011275
27184	-9.873050	0.077810	0.037712	-0.058030	0.046820	-0.003214
27185	-9.865248	0.065738	0.090233	-0.055424	0.070717	-0.020498
27186	-9.863327	0.039112	0.087760	-0.073204	0.092190	-0.037755
27187	-9.844950	0.056321	0.058970	-0.120192	0.113215	-0.065551
27188	-9.835357	0.014549	0.110665	-0.176533	0.132996	-0.075361
27189	-9.852081	-0.034741	0.029788	-0.247535	0.144289	-0.069971
27190	-9.834973	-0.078115	-0.044589	-0.298533	0.132384	-0.051405
27191	-9.821768	-0.071197	-0.128109	-0.300758	0.110972	-0.021460
27192	-9.819394	-0.090233	-0.223214	-0.252172	0.070699	0.007404
27193	-9.828721	-0.052298	-0.291146	-0.164108	0.019012	0.031625
27194	-9.836391	-0.040846	-0.257143	-0.070779	-0.039767	0.062051
27195	-9.866936	-0.008554	-0.119361	-0.025729	-0.074177	0.063881
27196	-9.871159	0.039094	-0.031181	-0.020582	-0.072772	0.046773
27197	-9.850681	0.035666	0.052364	-0.027759	-0.038021	0.015906
27198	-9.837655	0.041181	0.073897	-0.043452	0.005969	-0.012783
27199	-9.861702	0.004442	0.036434	-0.076481	0.048730	-0.031184
27200	-9.846720	-0.017378	0.055335	-0.133813	0.075764	-0.036593
27201	-9.810970	-0.034600	-0.031671	-0.183507	0.081345	-0.032253
27202	-9.844208	-0.035572	-0.137073	-0.180364	0.066653	-0.022182
27203	-9.836480	-0.043199	-0.175470	-0.146102	0.040059	-0.010601
27204	-9.849391	-0.048806	-0.197397	-0.101023	-0.002482	-0.001321
27205	-9.813876	-0.067281	-0.183357	-0.055777	-0.042472	0.020227
27206	-9.821621	-0.058373	-0.144764	-0.021935	-0.069889	0.034231
27207	-9.846547	-0.012376	-0.043179	-0.004270	-0.075796	0.040213
27208	-9.843155	0.026522	0.011647	-0.001499	-0.058272	0.034928
27209	-9.843142	0.029110	0.015702	-0.006969	-0.024096	0.017669
27210	-9.876710	0.025619	0.009697	0.001349	0.006480	-0.002853
27211	-9.850584	0.041107	-0.043193	-0.006727	0.029134	-0.021726
27212	-9.839155	-0.021417	0.020814	-0.009479	0.047790	-0.026504
27213	-9.856150	0.018044	-0.015195	-0.007721	0.078548	-0.034702
27214	-9.827920	0.007309	-0.069658	-0.006887	0.089351	-0.039152
27215	-9.827104	-0.078713	-0.116371	-0.008413	0.078428	-0.025515
27216	-9.834282	-0.067527	-0.180527	-0.008849	0.046111	-0.001282
27217	-9.829004	-0.054999	-0.130070	-0.009711	0.008392	0.025167
27218	-9.859322	-0.021316	-0.088896	-0.007849	-0.006766	0.030916
27219	-9.856080	0.016186	-0.040829	-0.015700	0.010714	0.016363
27220	-9.874229	0.000093	-0.115779	-0.021937	0.024809	-0.008292
27221	-9.826981	-0.074333	-0.128994	-0.014101	0.010799	-0.013004
27222	-9.826986	-0.074243	-0.128611	-0.002297	-0.018728	0.014606
27223	-9.849648	-0.047153	-0.117528	-0.002525	-0.040478	0.032299
27224	-9.812881	-0.003932	-0.058457	-0.000792	-0.036640	0.046117
27225	-9.852131	-0.021580	-0.025010	0.000844	-0.013453	0.041019
27226	-9.854103	0.006240	-0.030330	0.002321	0.022602	0.039731
27227	-9.854089	0.010253	-0.033683	0.002650	0.045441	0.041717
27228	-9.837344	0.060112	-0.060884	-0.010936	0.044225	0.022261
27229	-9.883782	0.051539	-0.092494	-0.003764	0.047757	-0.007260
27230	-9.857918	0.059730	-0.057190	-0.013185	0.050112	-0.035598
27231	-9.846276	0.001595	-0.085708	-0.029453	0.054809	-0.052464
27232	-9.832597	-0.080551	-0.109346	-0.061908	0.049063	-0.039933
27233	-9.847374	-0.064431	-0.138237	-0.075719	0.030293	-0.014335
27234	-9.800934	-0.055451	-0.113838	-0.051815	0.026005	0.005516
27235	-9.844172	-0.029115	-0.095779	-0.018844	0.036681	0.006628
27236	-9.860913	0.013823	-0.129269	-0.012878	0.039402	0.000034
27237	-9.860871	0.013183	-0.132524	-0.009820	0.026649	-0.013309
27238	-9.838215	-0.013186	-0.142829	-0.004670	0.017000	-0.019320
27239	-9.838192	-0.015419	-0.144242	-0.004344	0.011715	-0.026211
27240	-9.836202	-0.041337	-0.140475	-0.006982	0.009441	-0.015910
27241	-9.836188	-0.042494	-0.141115	-0.013630	0.003474	-0.007907
27242	-9.839010	-0.025938	-0.055515	-0.023998	0.010517	-0.004404
27243	-9.842018	-0.061371	-0.105406	-0.049295	0.019116	-0.005577
27244	-9.841989	-0.061117	-0.108234	-0.050760	0.037729	0.009656
27245	-9.815379	-0.042957	-0.162691	-0.027221	0.036107	0.012857
27246	-9.840973	-0.051448	-0.205761	-0.010110	0.020225	0.020582
27247	-9.807463	-0.044947	-0.199406	-0.002586	-0.002794	0.026113
27248	-9.836048	-0.035235	-0.152423	-0.004123	-0.016853	0.031938
27249	-9.864625	-0.025280	-0.104846	-0.002229	-0.014704	0.030761
27250	-9.851811	-0.016907	-0.084227	-0.001988	0.005110	0.036298
27251	-9.818290	-0.009548	-0.078980	-0.001081	0.034798	0.028889
27252	-9.853675	0.012857	-0.096097	0.003230	0.069494	0.025618
27253	-9.879195	0.004494	-0.144190	0.000732	0.088046	0.009839
27254	-9.831632	0.021276	-0.215652	0.002972	0.070610	0.005177
27255	-9.816831	0.002711	-0.196335	0.002909	0.044067	0.000017
27256	-9.856303	-0.019833	-0.169529	0.002255	0.031598	-0.010591
27257	-9.839317	0.025713	-0.195367	0.000907	0.037865	-0.015045
27258	-9.837339	-0.000174	-0.194482	0.004522	0.041219	-0.025919
27259	-9.838204	-0.061199	-0.241212	0.003141	0.020434	-0.019738
27260	-9.818779	-0.069841	-0.164380	-0.002957	0.008069	0.001813
27261	-9.820681	-0.045135	-0.169914	-0.001359	0.007308	0.015229
27262	-9.830566	-0.013698	-0.143644	-0.006759	0.033414	0.017089
27263	-9.843231	-0.017040	-0.168144	-0.004566	0.053813	0.017644
27264	-9.851166	-0.009623	-0.141424	-0.003161	0.074590	0.011507
27265	-9.822201	-0.015883	-0.195832	-0.000679	0.099446	0.001376
27266	-9.840070	0.019595	-0.145775	0.001899	0.128857	-0.008279
27267	-9.837971	-0.005204	-0.155487	-0.002544	0.165746	-0.010649
27268	-9.846545	-0.058629	-0.183830	0.005218	0.192652	-0.002221
27269	-9.808179	-0.013025	-0.238369	-0.002082	0.205888	-0.003692
27270	-9.826673	-0.036274	-0.241920	-0.004157	0.221708	-0.002555
27271	-9.840404	-0.017392	-0.289736	-0.001390	0.239269	0.003838
27272	-9.835746	-0.005919	-0.260735	-0.003424	0.255071	0.005083
27273	-9.849191	0.012791	-0.312482	-0.006029	0.283971	-0.007449
27274	-9.811304	-0.032089	-0.323974	-0.003783	0.308493	-0.018990
27275	-9.819010	-0.027748	-0.322732	-0.009530	0.335785	-0.014560
27276	-9.796712	-0.030178	-0.369768	-0.007135	0.372473	-0.017088
27277	-9.825373	-0.025129	-0.363237	-0.028758	0.412078	-0.021125
27278	-9.802482	-0.028600	-0.418544	-0.042820	0.467536	-0.034266
27279	-9.819785	-0.054808	-0.450639	-0.048063	0.529901	-0.035379
27280	-9.836280	-0.002925	-0.593432	-0.054503	0.572009	-0.046188
27281	-9.784811	-0.080614	-0.659300	-0.070177	0.583257	-0.050725
27282	-9.797295	-0.053088	-0.799819	-0.065677	0.570895	-0.047463
27283	-9.759679	-0.053059	-0.845543	-0.057738	0.555918	-0.048303
27284	-9.785066	-0.074922	-0.850758	-0.062800	0.546807	-0.056122
27285	-9.769095	-0.074678	-0.882736	-0.068459	0.537785	-0.052896
27286	-9.776851	-0.060530	-0.961237	-0.071614	0.536914	-0.057345
27287	-9.813411	-0.088156	-0.987085	-0.091279	0.539968	-0.065351
27288	-9.753539	-0.079348	-0.987681	-0.128477	0.551297	-0.067221
27289	-9.780898	-0.078381	-0.999267	-0.192719	0.565013	-0.075143
27290	-9.752195	-0.094931	-1.119621	-0.232087	0.579057	-0.081815
27291	-9.721208	-0.120831	-1.293973	-0.228887	0.577760	-0.068849
27292	-9.722466	-0.139235	-1.424831	-0.182411	0.562414	-0.056732
27293	-9.704235	-0.137145	-1.456714	-0.123665	0.535048	-0.044605
27294	-9.697852	-0.115841	-1.512869	-0.049351	0.526433	-0.036051
27295	-9.702841	-0.127137	-1.473551	-0.007474	0.518509	-0.028276
27296	-9.707420	-0.124503	-1.492448	0.005178	0.526306	-0.026422
27297	-9.679824	-0.117504	-1.500505	0.003203	0.541626	-0.025174
27298	-9.647531	-0.144074	-1.558853	-0.003366	0.558440	-0.019387
27299	-9.630234	-0.189154	-1.715274	-0.008990	0.559565	-0.004461
27300	-9.583742	-0.217373	-1.803923	0.011797	0.526981	0.035372
27301	-9.598710	-0.187693	-1.846765	0.026221	0.467375	0.081491
27302	-9.629157	-0.125986	-1.858543	0.022742	0.433143	0.095230
27303	-9.627092	-0.083231	-1.850464	0.030990	0.414372	0.096536
27304	-9.787048	-0.075900	-1.849165	0.035603	0.415351	0.085753
27305	-9.742835	0.407016	-2.217936	0.104130	0.292367	-0.096616
27306	-9.617136	-0.242131	-1.834381	0.055993	0.279049	-0.147148
27307	-9.602675	-0.081314	-1.983112	0.082139	0.277921	-0.137631
27308	-9.662629	-0.141967	-1.974448	0.087696	0.289048	-0.125470
27309	-9.567570	-0.279935	-2.035861	0.115323	0.294708	-0.071982
27310	-9.552545	-0.194807	-2.113116	0.109400	0.279256	0.014303
27311	-9.522740	-0.219789	-2.142314	0.090470	0.257357	0.018067
27312	-9.542956	-0.171608	-2.166381	0.047473	0.227487	0.010499
27313	-9.538411	-0.171680	-2.186296	0.020045	0.191206	0.003397
27314	-9.525007	-0.190591	-2.175526	0.010469	0.154757	0.003632
27315	-9.524477	-0.142565	-2.198390	0.004321	0.121748	0.004743
27316	-9.552032	-0.170451	-2.218156	0.001492	0.100962	0.006488
27317	-9.571699	-0.193337	-2.213721	0.003538	0.083166	0.004822
27318	-9.568045	-0.177360	-2.145807	0.000587	0.077813	0.006569
27319	-9.551696	-0.182411	-2.183993	0.004576	0.077587	0.004189
27320	-9.513630	-0.164209	-2.235002	0.000224	0.070942	0.004199
27321	-9.535299	-0.163284	-2.232197	0.002734	0.044589	0.004844
27322	-9.519868	-0.168364	-2.265920	0.003063	0.018237	0.005626
27323	-9.511667	-0.162715	-2.243446	0.001809	-0.018814	0.009502
27324	-9.518793	-0.151481	-2.187681	0.004863	-0.035536	0.007401
27325	-9.572589	-0.178832	-2.184919	0.006662	-0.042405	0.004827
27326	-9.542340	-0.174000	-2.166692	0.017254	-0.043032	0.008636
27327	-9.557917	-0.168002	-2.132068	0.018415	-0.037459	0.009190
27328	-9.576353	-0.153653	-2.178653	0.019336	-0.027606	0.008556
27329	-9.529826	-0.178203	-2.188036	0.011422	-0.022252	0.007622
27330	-9.530483	-0.177538	-2.185228	0.004217	-0.036383	0.009922
27331	-9.541026	-0.157939	-2.207981	-0.000786	-0.058902	0.005681
27332	-9.533106	-0.176172	-2.173870	-0.005949	-0.084185	0.006627
27333	-9.641014	-0.167651	-2.102456	-0.001559	-0.064256	0.007288
27334	-9.670808	-0.156037	-2.038102	-0.001793	0.006870	0.002570
27335	-9.610718	-0.138464	-2.094574	0.001393	0.076525	0.004591
27336	-9.525502	-0.145327	-2.158705	0.016012	0.095600	0.006955
27337	-9.466295	-0.143303	-2.294489	0.034870	0.069902	0.012871
27338	-9.313144	-0.215104	-2.442721	0.028109	-0.034659	0.014316
27339	-9.429972	-0.172105	-2.318826	0.005016	-0.208471	0.008085
27340	-9.620120	-0.188209	-2.091508	-0.004206	-0.244690	0.010485
27341	-9.712597	-0.193014	-1.956697	-0.011198	-0.180834	0.010623
27342	-9.647871	-0.169773	-1.973761	-0.008984	-0.094051	0.007756
27343	-9.611855	-0.175104	-2.006951	-0.007483	-0.034689	0.006075
27344	-9.570319	-0.167109	-2.102153	-0.006052	-0.013457	0.008676
27345	-9.576467	-0.155842	-2.048098	-0.003724	-0.004052	0.003627
27346	-9.593324	-0.165380	-2.093106	-0.004856	0.010312	0.003996
27347	-9.540160	-0.137054	-2.093531	-0.003204	0.007324	0.006914
27348	-9.533023	-0.170665	-2.141804	-0.003745	-0.008954	0.009408
27349	-9.570675	-0.163746	-2.100796	-0.002223	-0.024839	0.005063
27350	-9.580936	-0.144199	-2.125395	-0.005177	-0.030187	0.006817
27351	-9.572011	-0.162327	-2.094815	-0.003911	-0.040046	0.007351
27352	-9.595734	-0.161115	-2.082367	-0.005695	-0.041563	0.003547
27353	-9.596558	-0.160487	-2.078616	-0.007354	-0.036832	0.006711
27354	-9.589893	-0.131166	-2.058280	-0.003103	-0.023147	0.000286
27355	-9.587736	-0.178625	-2.047354	-0.003463	-0.001688	0.005130
27356	-9.579108	-0.173013	-2.025662	-0.002162	0.015039	0.006819
27357	-9.574210	-0.159242	-2.084977	-0.000883	0.010083	0.001566
27358	-9.574047	-0.158861	-2.085753	-0.004604	0.006031	0.005201
27359	-9.572704	-0.182153	-2.081579	0.000004	0.008389	0.006366
27360	-9.573765	-0.157688	-2.087139	-0.002428	0.006028	0.005036
27361	-9.536509	-0.163341	-2.126807	-0.001289	-0.001691	0.004964
27362	-9.565331	-0.151608	-2.064594	-0.002067	-0.007042	0.006554
27363	-9.596806	-0.155371	-2.077855	-0.001165	-0.003832	0.005567
27364	-9.573983	-0.155563	-2.086298	-0.002943	0.001299	0.002046
27365	-9.573980	-0.155116	-2.086343	0.000118	-0.000399	0.006679
27366	-9.574115	-0.154569	-2.085765	-0.004758	-0.011767	0.003729
27367	-9.588683	-0.148499	-2.053905	-0.003474	-0.008334	0.004841
27368	-9.597297	-0.152950	-2.075766	-0.001288	-0.001691	0.004966
27369	-9.573226	-0.176806	-2.079640	-0.003070	0.005182	0.007521
27370	-9.565807	-0.147410	-2.062692	-0.000633	0.005801	0.002773
27371	-9.535902	-0.182103	-2.119724	-0.003722	-0.004052	0.003636
27372	-9.604591	-0.179704	-2.093507	-0.004242	-0.007038	0.006722
27373	-9.583223	-0.155836	-2.105616	-0.002473	-0.020559	0.003878
27374	-9.582555	-0.179100	-2.098442	-0.002745	-0.027828	0.008173
27375	-9.583224	-0.178339	-2.095454	-0.005313	-0.034694	0.005957
27376	-9.576630	-0.148865	-2.074602	-0.006719	-0.035986	0.004250
27377	-9.558976	-0.162299	-2.022340	-0.005669	-0.021624	0.004444
27378	-9.590565	-0.166181	-2.035114	-0.000383	0.001518	0.003979
27379	-9.580608	-0.184786	-2.009076	-0.001880	0.022309	0.002524
27380	-9.560055	-0.200507	-2.095455	-0.002645	0.023604	0.004408
27381	-9.583689	-0.175535	-2.093561	-0.000358	0.014811	0.004557
27382	-9.575001	-0.170131	-2.072012	-0.002558	0.001522	0.004147
27383	-9.560700	-0.175166	-2.102878	-0.004487	-0.002756	0.005522
27384	-9.576242	-0.145037	-2.076665	-0.002052	-0.000397	0.006850
27385	-9.560812	-0.174042	-2.102463	-0.002954	-0.005347	0.001760
27386	-9.575347	-0.168163	-2.070571	0.000863	-0.014990	0.004223
27387	-9.597288	-0.190923	-2.055916	-0.005525	-0.010471	0.005620
27388	-9.568474	-0.138172	-2.050929	-0.004499	-0.009403	0.005235
27389	-9.608545	-0.146909	-2.086309	-0.004745	-0.005120	0.004029
27390	-9.567611	-0.161092	-2.044697	-0.004882	-0.009625	0.003137
27391	-9.577526	-0.141514	-2.070980	-0.006289	-0.009176	0.007505
27392	-9.599362	-0.164095	-2.056810	-0.005770	-0.006188	0.004416
27393	-9.575417	-0.187967	-2.060315	-0.005373	0.000681	0.006804
27394	-9.623368	-0.138364	-2.053165	-0.003951	0.006879	0.002725
27395	-9.567747	-0.158210	-2.044286	0.000673	0.015879	0.004173
27396	-9.553204	-0.163440	-2.076356	-0.002925	0.007947	0.002340
27397	-9.597609	-0.185810	-2.054884	0.001670	0.003653	0.003210
27398	-9.574685	-0.186132	-2.063879	-0.001654	0.004732	0.003161
27399	-9.571183	-0.148438	-2.127121	-0.002557	0.001522	0.004150
27400	-9.575800	-0.161330	-2.069018	-0.003460	-0.001688	0.005139
27401	-9.567296	-0.155860	-2.046579	-0.002434	-0.000620	0.004754
27402	-9.575841	-0.160288	-2.068910	-0.003582	0.000454	0.004537
27403	-9.598682	-0.159052	-2.060377	-0.003199	0.000675	0.006636
27404	-9.561587	-0.164588	-2.099698	-0.002189	-0.004903	0.005960
27405	-9.574825	-0.182501	-2.063554	-0.005253	-0.003199	0.001327
27406	-9.621598	-0.156906	-2.051560	-0.002279	0.010532	0.005939
27407	-9.552814	-0.158246	-2.078553	-0.002523	0.014815	0.004734
27408	-9.597041	-0.180307	-2.058027	-0.001114	0.016105	0.006449
27409	-9.596562	-0.179762	-2.060305	-0.001584	0.031318	0.004333
27410	-9.574266	-0.155992	-2.076515	-0.001339	0.027034	0.005543
27411	-9.558301	-0.184849	-2.104875	0.001201	0.020603	0.007184
27412	-9.549564	-0.179272	-2.083599	-0.002175	0.001743	0.006252
27413	-9.563925	-0.173268	-2.052624	-0.005254	-0.003198	0.001322
27414	-9.604969	-0.158226	-2.093506	-0.002558	0.001522	0.004152
27415	-9.563911	-0.172475	-2.052753	-0.003705	0.002596	0.003935
27416	-9.572436	-0.176859	-2.075099	-0.004489	-0.002756	0.005524
27417	-9.536602	-0.158568	-2.118465	-0.003379	-0.017122	0.005151
27418	-9.564540	-0.170827	-2.049962	-0.003518	-0.021627	0.004256
27419	-9.620237	-0.150044	-2.058446	-0.001184	-0.010482	0.005280
27420	-9.587735	-0.169201	-2.039848	-0.002659	0.010310	0.003845
27421	-9.574294	-0.150489	-2.076791	-0.002901	0.014594	0.002642
27422	-9.595690	-0.173269	-2.064920	-0.002256	0.017177	0.006243
27423	-9.572482	-0.173367	-2.075180	-0.003786	0.018030	0.003927
27424	-9.587596	-0.143447	-2.050774	-0.002638	0.016956	0.004145
27425	-9.562077	-0.191316	-2.051644	-0.004409	0.023829	0.006713
27426	-9.570127	-0.195816	-2.076146	-0.001085	0.021013	0.000678
27427	-9.570940	-0.171432	-2.082442	-0.002921	0.009683	0.008438
27428	-9.556543	-0.176250	-2.113578	-0.002197	-0.004904	0.005956
27429	-9.571039	-0.170209	-2.082088	-0.005015	-0.007480	0.002522
27430	-9.561541	-0.188825	-2.054370	-0.003726	-0.004050	0.003638
27431	-9.625370	-0.172908	-2.086897	-0.004590	0.006032	0.005222
27432	-9.549235	-0.145549	-2.095854	-0.003803	0.011384	0.003637
27433	-9.585072	-0.162650	-2.052855	-0.004306	0.015041	0.007024
27434	-9.598996	-0.156525	-2.024071	-0.003997	0.028959	0.003040
27435	-9.592342	-0.166475	-2.080971	-0.008156	0.046768	0.004887
27436	-9.581714	-0.184797	-2.058667	-0.004547	0.054694	0.006756
27437	-9.575705	-0.170522	-2.122198	-0.006574	0.059203	0.007843
27438	-9.566001	-0.165088	-2.105519	-0.004506	0.059603	0.001005
27439	-9.579079	-0.159191	-2.080909	-0.003952	0.070969	0.004346
27440	-9.600326	-0.158088	-2.080038	-0.000806	0.087459	0.003860
27441	-9.569318	-0.168858	-2.150950	0.001200	0.105022	0.003181
27442	-9.558604	-0.163511	-2.138975	-0.003874	0.112970	0.005770
27443	-9.570741	-0.157542	-2.119055	-0.004722	0.114668	0.001033
27444	-9.530782	-0.163459	-2.169144	-0.003185	0.113808	0.003418
27445	-9.551252	-0.162466	-2.171646	-0.012613	0.113393	-0.000092
27446	-9.557124	-0.166871	-2.204646	-0.014058	0.107191	0.004003
27447	-9.553753	-0.190259	-2.209924	-0.020423	0.103335	-0.000982
27448	-9.536072	-0.156306	-2.179646	-0.028704	0.101847	-0.004299
27449	-9.555641	-0.179320	-2.176941	-0.034370	0.113856	-0.004967
27450	-9.544760	-0.174260	-2.166333	-0.032437	0.133552	-0.006091
27451	-9.595662	-0.177580	-2.186662	-0.022942	0.162661	-0.001530
27452	-9.546766	-0.154735	-2.224777	-0.017844	0.192193	-0.003275
27453	-9.541132	-0.178162	-2.239773	-0.014118	0.221747	0.006122
27454	-9.521986	-0.159266	-2.296802	-0.006602	0.231972	-0.001311
27455	-9.502631	-0.140597	-2.353730	-0.003470	0.221461	0.003780
27456	-9.450540	-0.165483	-2.384750	-0.002650	0.198096	0.001496
27457	-9.446247	-0.165121	-2.401721	-0.001912	0.161044	0.005017
27458	-9.450765	-0.169629	-2.437343	-0.004731	0.114357	0.000304
27459	-9.486949	-0.163199	-2.407689	-0.003989	0.068537	0.003814
27460	-9.492948	-0.152546	-2.360640	-0.000965	0.058460	0.001956
27461	-9.559676	-0.174372	-2.339217	-0.005820	0.084590	-0.000312
27462	-9.512092	-0.151465	-2.368849	-0.002992	0.109208	0.003944
27463	-9.522701	-0.193295	-2.340627	-0.005052	0.137901	0.005274
27464	-9.543167	-0.168258	-2.352383	-0.001112	0.170633	0.003030
27465	-9.500129	-0.174041	-2.408067	0.001216	0.199304	0.004234
27466	-9.441917	-0.161546	-2.499996	0.001720	0.197785	0.000418
27467	-9.420841	-0.190666	-2.542640	0.002856	0.165461	0.006819
27468	-9.387798	-0.153551	-2.625685	0.002995	0.108721	-0.000140
27469	-9.384457	-0.186099	-2.548347	-0.000632	0.060794	0.003872
27470	-9.446382	-0.155086	-2.511876	-0.000816	0.025476	0.002160
27471	-9.460781	-0.173188	-2.478465	-0.008407	0.009021	0.002509
27472	-9.552984	-0.179038	-2.369822	-0.019182	0.031519	-0.002740
27473	-9.543076	-0.188995	-2.429471	-0.022290	0.107510	-0.000425
27474	-9.470199	-0.190346	-2.464409	-0.024377	0.153741	0.000910
27475	-9.443705	-0.157805	-2.572421	-0.018455	0.168690	-0.003162
27476	-9.439473	-0.157364	-2.587935	-0.020944	0.159281	0.001730
27477	-9.434577	-0.180607	-2.597917	-0.014112	0.152834	0.003138
27478	-9.416111	-0.170528	-2.566286	-0.013580	0.142551	-0.000716
27479	-9.427082	-0.179705	-2.625043	-0.010786	0.136336	0.003011
27480	-9.440409	-0.149870	-2.612486	-0.008824	0.133969	0.001413
27481	-9.397648	-0.155493	-2.661935	-0.006192	0.123262	0.004079
27482	-9.364121	-0.150825	-2.656971	-0.008547	0.103367	0.002738
27483	-9.415482	-0.153701	-2.674112	-0.008003	0.081758	0.006028
27484	-9.428777	-0.171732	-2.646647	-0.007894	0.073406	-0.000598
27485	-9.418919	-0.190665	-2.625868	-0.009980	0.071273	0.000071
27486	-9.394359	-0.166903	-2.645033	-0.011611	0.082618	0.003897
27487	-9.438649	-0.164984	-2.639352	-0.008325	0.099078	0.004022
27488	-9.481609	-0.187098	-2.631017	-0.004000	0.125373	0.003853
27489	-9.448190	-0.158481	-2.633615	-0.003792	0.162804	0.005542
27490	-9.426334	-0.187185	-2.675653	-0.002586	0.194665	0.006467
27491	-9.405104	-0.168316	-2.729797	0.006653	0.219434	0.002294
27492	-9.381861	-0.197403	-2.775459	-0.000558	0.218594	0.005259
27493	-9.337483	-0.155141	-2.841432	-0.005238	0.202985	0.002961
27494	-9.331474	-0.178496	-2.854004	-0.002398	0.168324	0.007120
27495	-9.373952	-0.176651	-2.854840	-0.008691	0.140321	0.001207
27496	-9.356663	-0.166639	-2.821352	-0.010623	0.125141	0.002881
27497	-9.400036	-0.164728	-2.819680	-0.013908	0.126218	0.002836
27498	-9.382108	-0.178479	-2.781799	-0.015075	0.146961	0.002339
27499	-9.425147	-0.152906	-2.788779	-0.009153	0.183713	-0.002242
27500	-9.378398	-0.182532	-2.839414	-0.004723	0.222823	0.005913
27501	-9.412607	-0.152046	-2.830865	-0.007589	0.263874	0.000890
27502	-9.373756	-0.171555	-2.836646	0.001637	0.312291	0.004059
27503	-9.370746	-0.175867	-2.890675	0.003180	0.348615	0.006947
27504	-9.309268	-0.167610	-3.017042	0.003230	0.363832	0.006814
27505	-9.285677	-0.157392	-3.004922	0.011786	0.369836	0.013090
27506	-9.273340	-0.204598	-3.029760	0.018144	0.371719	0.010994
27507	-9.251883	-0.166488	-3.125397	0.013536	0.356109	0.008762
27508	-9.193714	-0.167342	-3.169298	0.008116	0.335283	0.008847
27509	-9.206565	-0.190139	-3.188387	0.005616	0.313097	0.006159
27510	-9.179800	-0.171235	-3.249312	-0.001197	0.275713	0.004209
27511	-9.171654	-0.170785	-3.272255	-0.004615	0.224275	0.003545
27512	-9.183518	-0.141022	-3.266531	-0.007200	0.178107	0.000787
27513	-9.166126	-0.155010	-3.230704	-0.004648	0.158757	0.004066
27514	-9.302617	-0.174367	-3.207661	-0.005618	0.181722	0.004564
27515	-9.302797	-0.159197	-3.151696	-0.000820	0.236686	-0.002253
27516	-9.294717	-0.134987	-3.181540	0.006262	0.302263	0.010014
27517	-9.223888	-0.145723	-3.274836	0.022595	0.350944	0.017595
27518	-9.216886	-0.173695	-3.326989	0.054232	0.379973	0.025796
27519	-9.127621	-0.146505	-3.359698	0.072514	0.391381	0.032170
27520	-9.130226	-0.160343	-3.465031	0.071641	0.383814	0.033682
27521	-9.093152	-0.184489	-3.499053	0.062303	0.359227	0.028229
27522	-9.099763	-0.178652	-3.502266	0.046138	0.338766	0.019991
27523	-9.087798	-0.202070	-3.527628	0.026426	0.327804	0.019100
27524	-9.081308	-0.206442	-3.580277	0.008607	0.316576	0.004837
27525	-9.065664	-0.177110	-3.589683	-0.008568	0.299480	0.007841
27526	-9.078890	-0.199602	-3.606511	-0.011631	0.283337	-0.000608
27527	-9.059272	-0.189514	-3.585258	-0.021673	0.281985	-0.003341
27528	-9.073095	-0.164406	-3.611628	-0.021617	0.292792	-0.003813
27529	-9.109749	-0.162432	-3.630964	-0.010987	0.331407	0.002060
27530	-9.072684	-0.186425	-3.662725	-0.011629	0.376143	0.003390
27531	-9.077775	-0.180406	-3.670750	-0.007340	0.414832	-0.000734
27532	-9.018042	-0.186388	-3.741899	-0.005704	0.448764	0.001977
27533	-9.005090	-0.191002	-3.806469	-0.014938	0.460976	-0.006136
27534	-8.979172	-0.157072	-3.806222	-0.019669	0.473500	-0.000052
27535	-8.988652	-0.160514	-3.869466	-0.025240	0.495801	-0.004922
27536	-8.964841	-0.179173	-3.887035	-0.032883	0.528978	-0.009845
27537	-8.923053	-0.184175	-3.963196	-0.036798	0.561583	-0.009209
27538	-8.879618	-0.165227	-4.046207	-0.035569	0.581877	-0.011553
27539	-8.855476	-0.164455	-4.098807	-0.038009	0.603095	-0.004837
27540	-8.806310	-0.188203	-4.150887	-0.032537	0.610239	-0.007789
27541	-8.759707	-0.169016	-4.236022	-0.023336	0.606235	-0.002362
27542	-8.691789	-0.179290	-4.341543	-0.016804	0.586520	-0.002288
27543	-8.688593	-0.173186	-4.363914	-0.020265	0.539830	-0.001474
27544	-8.671264	-0.158060	-4.461040	-0.019577	0.490726	-0.002992
27545	-8.623580	-0.177473	-4.475555	-0.023412	0.445690	-0.007961
27546	-8.625972	-0.147711	-4.490842	-0.025907	0.406495	-0.008828
27547	-8.674020	-0.178965	-4.437319	-0.030488	0.393099	-0.012600
27548	-8.678060	-0.173144	-4.446166	-0.044534	0.411258	-0.016566
27549	-8.707596	-0.195178	-4.474757	-0.061815	0.453888	-0.025829
27550	-8.766288	-0.178150	-4.313828	-0.079636	0.526255	-0.030561
27551	-8.631988	-0.189633	-4.547521	-0.085900	0.669887	-0.037365
27552	-8.711073	-0.205451	-4.447700	-0.090183	0.751377	-0.035498
27553	-8.561669	-0.187743	-4.678669	-0.136250	0.869404	-0.063772
27554	-8.428189	-0.164138	-4.888975	-0.105509	0.911166	-0.042086
