// General information: 
//  MT Manager version: 2019.2.0 
//  XDA version: 2019.2.0 build 3853 rev 94535 built on 2019-09-09
// Device information: 
//  DeviceId: 00B44109
//  ProductCode: MTW2-3A7G6
//  Firmware Version: 4.3.5
//  Hardware Version: 1.1.0
// Device settings: 
//  Filter Profile: human(46.1)
//  Option Flags: Orientation Smoother Disabled, AHS Disabled, ICC Disabled
// Coordinate system: ENU
PacketCounter	Acc_X	Acc_Y	Acc_Z	Gyr_X	Gyr_Y	Gyr_Z
55711	9.835545	0.092178	0.341278	0.001841	0.002481	-0.002233
55712	9.824695	0.113580	0.347755	-0.000725	0.004393	-0.005922
55713	9.824679	0.113983	0.348092	0.001841	0.002481	-0.002233
55714	9.824666	0.114302	0.348344	0.000742	0.002668	-0.004182
55715	9.824656	0.114633	0.348519	0.002208	0.000943	-0.002441
55716	9.805690	0.109229	0.334260	0.000369	0.000377	-0.001463
55717	9.816588	0.120611	0.315766	0.000007	0.005744	-0.003766
55718	9.813789	0.136259	0.355235	0.001836	-0.001348	0.000277
55719	9.808596	0.158555	0.270393	-0.001831	0.005177	-0.002788
55720	9.857413	0.181047	0.280683	0.001104	0.003642	-0.000562
55721	9.802910	0.157685	0.362290	0.001841	0.002481	-0.002233
55722	9.824649	0.148049	0.337670	0.000005	0.003829	-0.002511
55723	9.813724	0.137213	0.356679	-0.000730	0.000564	-0.003411
55724	9.824633	0.148484	0.337923	0.001469	0.000190	0.000485
55725	9.813707	0.137522	0.357005	0.000007	0.005744	-0.003766
55726	9.827337	0.101370	0.311869	0.002575	-0.000594	-0.002649
55727	9.838172	0.080642	0.305961	-0.001831	0.005177	-0.002788
55728	9.827314	0.101812	0.312452	0.001471	0.002104	-0.000770
55729	9.786587	0.106333	0.323347	-0.001094	0.004016	-0.004459
55730	9.813568	0.106696	0.371089	0.000002	0.001915	-0.001255
55731	9.813633	0.138880	0.358524	0.000000	0.000000	0.000000
55732	9.827277	0.102523	0.313403	-0.000363	0.005367	-0.002303
55733	9.835361	0.129423	0.334412	0.000007	0.005744	-0.003767
55734	9.835347	0.129576	0.334778	0.001101	0.001728	0.000693
55735	9.827235	0.103097	0.314504	-0.001097	0.002102	-0.003204
55736	9.805526	0.145271	0.327046	0.001104	0.003642	-0.000563
55737	9.805513	0.145329	0.327402	0.001103	0.003642	-0.000563
55738	9.835365	0.162291	0.323332	0.000374	0.004206	-0.003974
55739	9.813512	0.140282	0.361284	-0.000365	0.003453	-0.001048
55740	9.783700	0.155778	0.353341	0.000002	0.001915	-0.001256
55741	9.846116	0.109721	0.330643	0.002208	0.000944	-0.002441
55742	9.835322	0.163178	0.324211	0.001109	0.001131	-0.004389
55743	9.846168	0.142432	0.318173	0.003307	0.000757	-0.000492
55744	9.805432	0.146993	0.329078	-0.001092	0.005931	-0.005716
55745	9.816269	0.126319	0.323346	0.001471	0.002105	-0.000770
55746	9.816198	0.094382	0.336146	0.000740	0.000754	-0.002926
55747	9.802505	0.131110	0.381679	0.001841	0.002482	-0.002233
55748	9.827102	0.106005	0.317683	0.002208	0.000944	-0.002441
55749	9.816179	0.094917	0.336573	-0.000738	0.001161	0.001671
55750	9.837951	0.085188	0.311774	0.001110	0.001131	-0.004390
55751	9.837938	0.085540	0.312084	-0.001832	0.005177	-0.002790
55752	9.827066	0.106705	0.318566	0.001471	0.002105	-0.000770
55753	9.805279	0.116669	0.343672	0.000002	0.001915	-0.001256
55754	9.824274	0.154581	0.345564	0.001840	0.002482	-0.002233
55755	9.824263	0.154734	0.345787	0.001471	0.002105	-0.000770
55756	9.854056	0.139515	0.354229	0.001840	0.002482	-0.002233
55757	9.813373	0.176176	0.352533	0.000006	0.005744	-0.003768
55758	9.816205	0.160870	0.313499	0.001836	-0.001348	0.000278
55759	9.846005	0.145644	0.321757	-0.001096	0.002101	-0.003205
55760	9.824207	0.155690	0.346945	0.001103	0.003643	-0.000563
55761	9.824194	0.155854	0.347236	0.000372	0.002292	-0.002719
55762	9.783392	0.128261	0.370796	0.003311	0.004587	-0.003003
55763	9.808011	0.103267	0.307075	0.000374	0.004207	-0.003975
55764	9.845867	0.114893	0.336254	0.000006	0.005745	-0.003768
55765	9.815994	0.098366	0.340934	0.003675	-0.000780	-0.000699
55766	9.826859	0.077635	0.334833	0.001110	0.001131	-0.004390
55767	9.845784	0.083466	0.349452	-0.002573	0.004423	0.000136
55768	9.826832	0.078005	0.335540	0.001842	0.004397	-0.003489
55769	9.816003	0.131316	0.329380	0.001102	0.003643	-0.000563
55770	9.813072	0.114917	0.381603	0.000742	0.002669	-0.004182
55771	9.823987	0.126316	0.363045	0.000002	0.001915	-0.001256
55772	9.815971	0.132005	0.330052	0.002209	0.000945	-0.002440
55773	9.826945	0.175439	0.298740	0.000002	0.001915	-0.001256
55774	9.805082	0.153290	0.336568	-0.000366	0.003453	-0.001049
55775	9.826868	0.143535	0.312013	-0.000366	0.003453	-0.001049
55776	9.834911	0.170398	0.332853	0.000374	0.004207	-0.003975
55777	9.815907	0.132949	0.331573	0.001472	0.004021	-0.002026
55778	9.845754	0.149874	0.327435	0.000002	0.001915	-0.001256
55779	9.794079	0.143152	0.357036	0.000004	0.003830	-0.002512
55780	9.826742	0.112608	0.326438	0.001842	0.004398	-0.003489
55781	9.826678	0.080831	0.339351	-0.000728	0.000563	-0.003413
55782	9.845655	0.118840	0.341049	0.005514	-0.000211	-0.001675
55783	9.807791	0.107655	0.312546	-0.002574	0.004423	0.000135
55784	9.804847	0.091168	0.364782	-0.001096	0.002101	-0.003206
55785	9.807767	0.108161	0.313102	0.000742	0.002669	-0.004183
55786	9.826680	0.114104	0.327785	0.001472	0.004021	-0.002026
55787	9.826667	0.114361	0.328086	-0.001096	0.002101	-0.003206
55788	9.815723	0.103528	0.347147	-0.001465	0.003639	-0.002999
55789	9.826683	0.147110	0.316161	0.000005	0.005745	-0.003769
55790	9.826625	0.115124	0.329064	0.004773	-0.000965	0.001252
55791	9.826617	0.115204	0.329269	-0.001834	0.005177	-0.002792
55792	9.815722	0.136477	0.335591	0.001109	-0.000784	-0.003133
55793	9.815760	0.168874	0.323068	0.000003	0.003830	-0.002513
55794	9.815701	0.136941	0.336021	0.000002	0.001915	-0.001256
55795	9.826628	0.148210	0.317357	0.000370	0.000377	-0.001463
55796	9.826572	0.116267	0.330244	0.001471	0.004021	-0.002026
55797	9.845532	0.154209	0.332072	0.000739	-0.001161	-0.001670
55798	9.807636	0.111092	0.316171	0.000373	0.004208	-0.003976
55799	9.807618	0.111421	0.316632	-0.001834	0.005177	-0.002793
55800	9.807604	0.111595	0.316989	0.001470	0.002106	-0.000770
55801	9.837447	0.128546	0.312792	0.000372	0.002292	-0.002720
55802	9.796649	0.100869	0.336288	0.001471	0.004022	-0.002026
55803	9.837376	0.096892	0.326160	0.000003	0.003830	-0.002513
55804	9.826432	0.085911	0.345181	-0.003305	0.001156	-0.000767
55805	9.845381	0.123805	0.347129	0.001471	0.004022	-0.002026
55806	9.826405	0.086343	0.345839	0.000373	0.004208	-0.003976
55807	9.804602	0.128550	0.358417	-0.000368	0.003453	-0.001050
55808	9.837356	0.130030	0.315053	0.000372	0.002293	-0.002720
55809	9.826450	0.151278	0.321378	0.000372	0.002293	-0.002720
55810	9.826436	0.151514	0.321687	0.001471	0.004022	-0.002026
55811	9.834437	0.178343	0.342547	0.001471	0.004022	-0.002026
55812	9.826404	0.151965	0.322456	-0.001465	0.003639	-0.003000
55813	9.826428	0.184433	0.310093	0.000743	0.002670	-0.004183
55814	9.826378	0.152429	0.323031	-0.001109	0.002699	0.001876
55815	9.804528	0.162328	0.348255	0.003309	0.004591	-0.003003
55816	9.856162	0.137435	0.331931	0.002209	0.000946	-0.002439
55817	9.796456	0.104119	0.340885	0.000372	0.002293	-0.002720
55818	9.845202	0.126803	0.351093	0.001840	0.002484	-0.002233
55819	9.818275	0.094772	0.316486	0.000372	0.002293	-0.002720
55820	9.845146	0.095142	0.364133	0.000371	0.000377	-0.001463
55821	9.807323	0.083827	0.335583	0.003665	0.003650	0.001874
55822	9.845166	0.127358	0.351918	-0.004032	0.001718	-0.004181
55823	9.826207	0.090005	0.350482	0.005517	0.003622	-0.004185
55824	9.856074	0.139271	0.333765	-0.001465	0.003639	-0.003001
55825	9.807308	0.117062	0.324093	0.003308	0.002676	-0.001746
55826	9.815296	0.143792	0.344876	0.002567	0.003837	-0.000076
55827	9.826223	0.155040	0.326490	0.001470	0.004022	-0.002027
55828	9.826207	0.155327	0.326825	0.002211	0.002862	-0.003696
55829	9.815249	0.144434	0.345946	0.004406	0.004406	-0.001052
55830	9.815265	0.176741	0.333733	-0.001835	0.005177	-0.002795
55831	9.855968	0.140755	0.336265	0.004048	0.001516	-0.003415
55832	9.826114	0.124175	0.340829	0.001469	0.002107	-0.000770
55833	9.818148	0.129672	0.307936	-0.000739	0.003076	0.000412
55834	9.804237	0.134134	0.366276	0.000002	0.003831	-0.002514
55835	9.836994	0.103422	0.335535	0.001468	0.000192	0.000487
55836	9.836986	0.103524	0.335732	0.000002	0.003831	-0.002514
55837	9.826063	0.124685	0.342099	0.000001	0.001915	-0.001257
55838	9.815108	0.113680	0.361098	0.004775	0.002868	-0.001258
55839	9.807147	0.119237	0.328154	-0.001837	0.001346	-0.000281
55840	9.818052	0.098385	0.322259	0.001840	0.002485	-0.002233
55841	9.815077	0.114099	0.361808	0.001470	0.004023	-0.002027
55842	9.818059	0.130886	0.310250	-0.001836	0.003262	-0.001538
55843	9.807100	0.119934	0.329298	0.001840	0.002485	-0.002233
55844	9.818036	0.131170	0.310848	0.004034	0.004029	0.000411
55845	9.836927	0.136902	0.325371	0.000741	-0.001161	-0.001669
55846	9.825966	0.126190	0.344322	0.001115	0.004963	-0.006904
55847	9.815030	0.147599	0.350797	-0.003304	0.003070	-0.002026
55848	9.825934	0.126748	0.345050	0.001099	0.003646	-0.000564
55849	9.815006	0.147875	0.351351	0.002210	0.000947	-0.002439
55850	9.796105	0.142373	0.337111	0.001469	0.002108	-0.000770
55851	9.814988	0.148192	0.351722	0.001840	0.002485	-0.002233
55852	9.847800	0.149628	0.308228	-0.001468	-0.000192	-0.000488
55853	9.785130	0.131541	0.356464	0.002196	0.005376	0.000130
55854	9.847751	0.117606	0.321452	0.000371	0.000377	-0.001463
55855	9.825877	0.127482	0.346395	0.001097	0.001730	0.000694
55856	9.825834	0.095536	0.359374	0.000373	0.004208	-0.003978
55857	9.828833	0.112400	0.307758	0.000001	0.001916	-0.001257
55858	9.825842	0.127985	0.347191	0.002936	0.002300	-0.000282
55859	9.798974	0.095743	0.312617	-0.000369	0.003454	-0.001052
55860	9.836735	0.107275	0.341868	0.002938	0.006131	-0.002797
55861	9.825770	0.096302	0.360922	-0.001467	-0.000192	-0.000488
55862	9.817860	0.133970	0.315207	0.004775	0.002869	-0.001257
55863	9.836736	0.139866	0.329841	-0.001095	0.002101	-0.003208
55864	9.825773	0.128926	0.348810	0.001468	0.002108	-0.000770
55865	9.806876	0.123428	0.334632	0.000372	0.002293	-0.002721
55866	9.825781	0.161384	0.336548	0.001468	0.002108	-0.000770
55867	9.825773	0.161465	0.336753	0.001468	0.002108	-0.000770
55868	9.795923	0.144851	0.341327	-0.001095	0.002101	-0.003209
55869	9.814799	0.150760	0.355887	0.005145	0.001332	-0.001463
55870	9.836666	0.141141	0.331374	-0.001836	0.005177	-0.002797
55871	9.836624	0.109384	0.344378	0.001114	0.001132	-0.004390
55872	9.825691	0.130573	0.350501	0.000000	0.000000	0.000000
55873	9.817729	0.104050	0.330225	0.000002	0.003831	-0.002515
55874	9.806765	0.093014	0.349183	0.001467	0.000192	0.000488
55875	9.836598	0.109962	0.344931	-0.001095	0.002101	-0.003209
55876	9.839592	0.094722	0.305932	0.001840	0.002486	-0.002233
55877	9.817692	0.104812	0.331060	-0.001466	0.003639	-0.003003
55878	9.825628	0.131718	0.351824	0.001839	0.002486	-0.002233
55879	9.787859	0.120545	0.323166	0.000371	0.000378	-0.001463
55880	9.836567	0.143238	0.333410	0.000002	0.003831	-0.002515
55881	9.817676	0.137805	0.319244	0.002210	0.000948	-0.002438
55882	9.814653	0.153563	0.358701	0.000002	0.003831	-0.002515
55883	9.828607	0.149521	0.301037	0.000743	0.002671	-0.004184
55884	9.814619	0.154202	0.359346	0.001469	0.004024	-0.002027
55885	9.825564	0.165610	0.340812	-0.000725	0.000563	-0.003415
55886	9.817620	0.139216	0.320362	0.005515	-0.000205	-0.001668
55887	9.806658	0.128074	0.339240	-0.001113	0.002699	0.001874
55888	9.825523	0.133787	0.353963	0.000001	0.003831	-0.002516
55889	9.817591	0.139479	0.321111	0.001839	0.002486	-0.002233
55890	9.817557	0.107637	0.334154	0.003307	0.004594	-0.003003
55891	9.817542	0.107946	0.334481	-0.001095	0.002101	-0.003209
55892	9.817549	0.140281	0.322048	-0.001837	0.003261	-0.001541
55893	9.836391	0.114140	0.349442	0.000744	0.002671	-0.004184
55894	9.836378	0.114398	0.349744	-0.000370	0.003454	-0.001053
55895	9.798625	0.103166	0.321089	0.005515	-0.000205	-0.001667
55896	9.806529	0.097928	0.354427	0.000001	0.003832	-0.002516
55897	9.817494	0.141338	0.323261	0.001468	0.002109	-0.000770
55898	9.806526	0.130321	0.342205	-0.001467	0.001723	-0.001746
55899	9.847293	0.126485	0.331939	0.001115	0.001133	-0.004390
55900	9.825368	0.136787	0.357108	0.000373	0.006125	-0.005237
55901	9.817431	0.110453	0.336919	-0.004401	-0.000579	-0.001465
55902	9.836311	0.148221	0.338736	-0.001114	0.002699	0.001874
55903	9.817438	0.142570	0.324430	0.002581	-0.000590	-0.002643
55904	9.817427	0.142879	0.324614	0.001840	0.004402	-0.003491
55905	9.836284	0.148818	0.339256	0.000372	0.000378	-0.001463
55906	9.839316	0.133572	0.300262	0.000372	0.004209	-0.003979
55907	9.825296	0.138224	0.358528	-0.001467	0.001723	-0.001747
55908	9.820424	0.128394	0.286453	0.003307	0.004595	-0.003002
55909	9.828320	0.123182	0.319785	0.000743	-0.001160	-0.001668
55910	9.866029	0.070661	0.374006	0.001115	0.001133	-0.004390
55911	9.828301	0.123834	0.320093	-0.001838	0.005177	-0.002800
55912	9.809415	0.086157	0.318712	-0.000371	0.001538	0.000205
55913	9.806365	0.133923	0.345410	-0.001095	0.002101	-0.003210
55914	9.850181	0.082419	0.308687	-0.001467	0.001723	-0.001747
55915	9.787473	0.096554	0.344092	0.001839	0.002487	-0.002233
55916	9.828247	0.124682	0.321443	-0.001114	0.006531	-0.000643
55917	9.806316	0.134612	0.346510	0.000743	-0.001160	-0.001668
55918	9.825169	0.140527	0.361123	-0.001838	0.005177	-0.002800
55919	9.828208	0.125300	0.322384	0.003306	0.004596	-0.003002
55920	9.825131	0.140946	0.361978	-0.000743	0.003076	0.000410
55921	9.836084	0.152255	0.343518	0.002211	0.002865	-0.003696
55922	9.814142	0.162359	0.368653	0.001467	0.004025	-0.002028
55923	9.798337	0.141307	0.315308	0.000000	0.001916	-0.001258
55924	9.836047	0.152831	0.344333	0.000000	0.001916	-0.001258
55925	9.828137	0.126439	0.324091	0.000744	0.002672	-0.004185
55926	9.809271	0.121016	0.309821	0.000372	0.000378	-0.001463
55927	9.828122	0.094820	0.336930	0.002582	-0.000589	-0.002643
55928	9.836008	0.121635	0.357621	0.000724	0.005186	-0.000359
55929	9.828099	0.095104	0.337531	0.001839	0.002487	-0.002233
55930	9.828088	0.095352	0.337765	0.000372	0.002294	-0.002722
55931	9.846937	0.133429	0.339707	0.000372	0.002294	-0.002722
55932	9.817102	0.116805	0.344277	0.003306	0.002681	-0.001744
55933	9.806125	0.105813	0.363250	0.000000	0.001916	-0.001258
55934	9.846898	0.101901	0.353229	-0.001838	0.005177	-0.002801
55935	9.817064	0.149505	0.332522	0.001839	0.002487	-0.002233
55936	9.817052	0.149752	0.332755	0.000372	0.002294	-0.002722
55937	9.835891	0.123519	0.360175	0.001095	0.003648	-0.000565
55938	9.824912	0.144652	0.366432	0.000744	0.000756	-0.002927
55939	9.827990	0.161538	0.314653	-0.001095	0.002100	-0.003211
55940	9.827983	0.129684	0.327472	-0.001095	0.000184	-0.001952
55941	9.846824	0.135546	0.342121	0.004400	0.004413	-0.001050
55942	9.846810	0.135761	0.342440	-0.001095	0.002100	-0.003211
55943	9.798122	0.145484	0.320053	-0.001116	0.006531	-0.000644
55944	9.798109	0.145586	0.320392	0.000372	0.000378	-0.001463
55945	9.846776	0.136195	0.343244	0.000372	0.000378	-0.001463
55946	9.816946	0.119512	0.347777	0.001467	0.004026	-0.002028
55947	9.838877	0.109991	0.323329	0.002211	0.002866	-0.003696
55948	9.816920	0.120025	0.348355	0.001467	0.002110	-0.000769
55949	9.827887	0.099276	0.342448	-0.000723	0.000562	-0.003416
55950	9.846725	0.105207	0.357075	-0.000372	0.003454	-0.001054
55951	9.809022	0.126068	0.315648	0.002583	-0.000589	-0.002642
55952	9.805910	0.141847	0.355018	-0.000000	0.003832	-0.002517
55953	9.838824	0.111292	0.324473	-0.001467	0.001722	-0.001748
55954	9.827835	0.132433	0.330792	0.001466	0.004026	-0.002028
55955	9.798004	0.115805	0.335414	0.000372	0.002294	-0.002722
55956	9.816826	0.153870	0.337514	-0.000373	0.005371	-0.002313
55957	9.835665	0.127680	0.364861	0.000744	-0.001160	-0.001668
55958	9.827782	0.133371	0.331985	-0.000373	0.007287	-0.003571
55959	9.816789	0.122302	0.351220	-0.001117	0.002698	0.001873
55960	9.835611	0.160203	0.353295	0.001838	0.004405	-0.003491
55961	9.808898	0.128155	0.318634	-0.000722	0.000562	-0.003416
55962	9.816752	0.122971	0.352044	0.002933	0.004220	-0.001539
55963	9.838696	0.113278	0.327654	0.001094	0.003649	-0.000565
55964	9.827709	0.102198	0.346677	0.001466	0.002110	-0.000769
55965	9.827694	0.134403	0.334165	-0.000000	0.001916	-0.001259
55966	9.827693	0.102580	0.347024	0.001117	0.001134	-0.004390
55967	9.797860	0.118184	0.338776	-0.001095	0.002100	-0.003212
55968	9.838651	0.114300	0.328649	0.001466	0.002110	-0.000769
55969	9.816677	0.124172	0.353701	0.001094	0.003649	-0.000565
55970	9.808815	0.097662	0.333523	0.000372	0.002294	-0.002722
55971	9.824501	0.151300	0.374677	-0.001095	0.002100	-0.003212
55972	9.808788	0.130303	0.321142	-0.001094	0.000184	-0.001953
55973	9.808771	0.130579	0.321554	0.004398	0.008248	-0.003567
55974	9.835423	0.163358	0.357072	0.000372	0.004211	-0.003981
55975	9.849542	0.127050	0.312008	-0.003305	-0.000766	0.000484
55976	9.835403	0.163659	0.357500	0.001465	0.005944	-0.003287
55977	9.816551	0.158210	0.343469	0.001838	0.002489	-0.002232
55978	9.805556	0.147273	0.362524	0.001466	0.004027	-0.002028
55979	9.838507	0.116657	0.332110	0.001093	0.003649	-0.000565
55980	9.797691	0.120777	0.342718	0.002933	0.002305	-0.000279
55981	9.830641	0.122209	0.299424	-0.000000	0.001916	-0.001259
55982	9.827492	0.105831	0.351693	-0.001840	0.005177	-0.002804
55983	9.816486	0.127050	0.357942	0.002584	-0.000588	-0.002641
55984	9.816488	0.095196	0.370889	-0.000374	0.005371	-0.002314
55985	9.819613	0.111956	0.319251	0.000372	0.000378	-0.001463
55986	9.816467	0.095505	0.371360	-0.000373	0.003455	-0.001055
55987	9.816440	0.127729	0.358977	-0.001840	0.003261	-0.001545
55988	9.827422	0.106956	0.353313	0.001465	0.004027	-0.002028
55989	9.808571	0.133595	0.326375	-0.000721	0.000562	-0.003417
55990	9.827387	0.139543	0.341023	-0.000374	0.003455	-0.001055
55991	9.838360	0.150922	0.322530	0.004050	0.001523	-0.003410
55992	9.827366	0.140005	0.341431	-0.000001	0.001917	-0.001259
55993	9.808533	0.134375	0.327177	0.001466	0.002111	-0.000769
55994	9.819525	0.113602	0.321373	0.000372	0.002295	-0.002722
55995	9.846162	0.146212	0.356501	-0.000001	0.001917	-0.001259
55996	9.819508	0.114033	0.321746	0.004050	0.001524	-0.003410
55997	9.797490	0.156246	0.334034	-0.001468	0.003639	-0.003009
55998	9.819483	0.114567	0.322316	0.004771	0.002878	-0.001252
55999	9.846116	0.147171	0.357378	-0.002560	-0.000011	-0.002444
56000	9.797475	0.124680	0.347461	0.000719	0.005188	-0.000361
56001	9.838272	0.120694	0.337589	-0.000374	0.003455	-0.001055
56002	9.819441	0.115048	0.323407	0.001466	0.002111	-0.000769
56003	9.805268	0.119567	0.381643	0.001465	0.004028	-0.002028
56004	9.838236	0.121143	0.338481	0.001838	0.002490	-0.002232
56005	9.838223	0.121445	0.338765	-0.004400	0.003249	-0.003990
56006	9.808391	0.136829	0.330418	0.001840	-0.001344	0.000286
56007	9.819388	0.116153	0.324628	-0.001096	0.005934	-0.005732
56008	9.808362	0.137417	0.331037	0.001466	0.002111	-0.000769
56009	9.827166	0.143321	0.345786	-0.000001	0.003833	-0.002519
56010	9.816162	0.132424	0.364817	0.000372	0.002295	-0.002723
56011	9.819318	0.149178	0.313036	0.001839	0.000573	-0.000973
56012	9.827134	0.143917	0.346450	0.001465	0.004028	-0.002028
56013	9.849125	0.134398	0.321932	-0.000721	0.000562	-0.003417
56014	9.808303	0.138701	0.332230	0.005518	-0.000197	-0.001659
56015	9.819291	0.150062	0.313487	-0.002560	-0.000011	-0.002444
56016	9.838122	0.123936	0.340788	0.001838	0.002490	-0.002232
56017	9.849102	0.135350	0.322216	0.000745	0.000757	-0.002927
56018	9.808301	0.107530	0.345383	0.003304	0.002685	-0.001742
56019	9.827103	0.113502	0.360086	0.000372	0.002295	-0.002723
56020	9.789466	0.102173	0.331456	0.001092	0.003650	-0.000565
56021	9.819263	0.119187	0.327307	0.000746	-0.001160	-0.001667
56022	9.819281	0.087369	0.340179	0.000371	0.004212	-0.003983
56023	9.811451	0.093045	0.307212	0.000373	0.000378	-0.001463
56024	9.808242	0.108848	0.346636	0.000371	0.004212	-0.003983
56025	9.812821	0.151393	0.406556	0.002212	0.000952	-0.002436
56026	9.823829	0.162457	0.387411	-0.001088	-0.009400	0.004344
56027	9.813245	0.020329	0.169292	-0.000379	0.011122	-0.006094
56028	9.810947	0.257375	0.532258	-0.000349	0.002857	-0.006140
56029	9.828811	0.074426	0.210776	0.000003	-0.005750	0.003779
56030	9.826978	0.147831	0.349227	0.004018	0.013624	-0.005882
56031	9.817339	0.194788	0.467252	-0.000344	-0.004810	-0.001102
56032	9.825604	0.090161	0.250084	0.000005	-0.009584	0.006298
56033	9.827006	0.147688	0.348498	0.000373	0.000378	-0.001463
56034	9.822411	0.105689	0.288953	-0.001094	0.002100	-0.003214
56035	9.830210	0.100738	0.322653	0.001834	0.008241	-0.006012
56036	9.815948	0.137666	0.368627	0.001089	0.007484	-0.003085
56037	9.837940	0.128183	0.344441	-0.001468	0.003638	-0.003010
56038	9.819120	0.122643	0.330293	0.004770	0.002881	-0.001251
56039	9.830102	0.134026	0.311808	-0.001094	0.002100	-0.003214
56040	9.789303	0.106173	0.334994	-0.000001	0.001917	-0.001260
56041	9.841101	0.113615	0.306475	-0.000005	0.007668	-0.005039
56042	9.789251	0.107025	0.336241	0.001834	0.008241	-0.006012
56043	9.825449	0.093699	0.254851	0.001455	0.017448	-0.010848
56044	9.840937	0.116244	0.310736	-0.001139	0.027620	-0.014509
56045	9.844074	0.102325	0.274590	0.003627	0.034338	-0.018280
56046	9.805530	0.223802	0.485644	-0.001113	0.028942	-0.020857
56047	9.802184	0.240143	0.525915	0.003311	-0.006899	0.004561
56048	9.807593	0.150748	0.347604	-0.000707	-0.014776	0.006663
56049	9.815398	0.176677	0.366630	0.001850	-0.014763	0.009109
56050	9.807731	0.148915	0.344489	0.000014	-0.019171	0.012601
56051	9.825334	0.095862	0.258434	0.000384	-0.014958	0.008617
56052	9.844160	0.101206	0.271912	-0.002181	-0.005385	-0.000129
56053	9.807882	0.115506	0.354583	0.002928	0.006142	-0.002798
56054	9.829908	0.105800	0.330148	-0.000373	-0.000379	0.001463
56055	9.837670	0.132478	0.350484	0.004054	-0.002307	-0.000888
56056	9.840956	0.084904	0.323829	0.000374	-0.001538	-0.000203
56057	9.818881	0.126857	0.335759	0.000373	0.000379	-0.001463
56058	9.822157	0.079334	0.309417	0.001464	0.002113	-0.000769
56059	9.837700	0.100911	0.363312	-0.000721	0.002479	-0.004678
56060	9.818849	0.127591	0.336415	-0.000003	0.003834	-0.002520
56061	9.807827	0.116885	0.355645	0.000742	0.006508	-0.006707
56062	9.829855	0.107388	0.331201	0.004772	-0.000951	0.001270
56063	9.840815	0.150513	0.299679	-0.000373	-0.000379	0.001463
56064	9.818808	0.128235	0.337369	-0.000377	0.005372	-0.002317
56065	9.822042	0.112990	0.298581	0.002211	0.002870	-0.003696
56066	9.821976	0.145566	0.286392	0.001833	0.008243	-0.006013
56067	9.828492	0.083207	0.222080	0.001077	0.018988	-0.010648
56068	9.806319	0.126491	0.236622	-0.001148	0.033374	-0.018296
56069	9.796390	0.142971	0.370275	0.004367	0.035100	-0.021213
56070	9.787462	0.249136	0.589241	-0.004038	0.017047	-0.014284
56071	9.852509	0.194649	0.403941	0.004062	-0.009976	0.004157
56072	9.822798	0.176978	0.406726	-0.001075	-0.018991	0.010650
56073	9.811912	0.164537	0.423049	-0.000318	-0.029737	0.015285
56074	9.843989	0.074385	0.290492	0.000775	-0.031835	0.018500
56075	9.839543	0.062831	0.215701	0.000388	-0.016875	0.009879
56076	9.811015	0.103036	0.317745	-0.001836	-0.004409	0.003493
56077	9.840821	0.119779	0.313055	-0.007326	-0.004813	0.000064
56078	9.829827	0.108596	0.331642	-0.006986	0.001915	-0.000095
56079	9.822034	0.114058	0.298437	-0.004023	-0.002126	-0.001677
56080	9.826573	0.124249	0.370836	-0.005520	0.002111	0.000396
56081	9.840822	0.119775	0.313011	-0.000373	-0.000379	0.001463
56082	9.851820	0.130856	0.294349	-0.000375	0.001538	0.000203
56083	9.829775	0.140565	0.319132	0.009542	0.000015	0.001281
56084	9.829784	0.140327	0.318961	0.022392	-0.003034	0.004601
56085	9.815545	0.144435	0.376674	0.025695	-0.000346	0.002859
56086	9.823328	0.170356	0.396615	0.017224	-0.009528	0.014920
56087	9.826603	0.185480	0.343478	0.008432	-0.014535	0.014495
56088	9.815688	0.172402	0.360867	0.004697	-0.012565	0.025347
56089	9.856589	0.197405	0.336545	-0.000129	-0.014244	0.036767
56090	9.852130	0.151071	0.275733	-0.002026	-0.009780	0.045384
56091	9.811397	0.086281	0.310887	-0.003176	-0.002643	0.049814
56092	9.856903	0.151752	0.347330	-0.006110	-0.001113	0.047570
56093	9.886861	0.195205	0.330042	-0.006916	-0.004491	0.063181
56094	9.884027	0.299336	0.330609	-0.004501	-0.003377	0.092294
56095	9.925170	0.284395	0.319863	-0.003940	-0.006653	0.124891
56096	9.914543	0.258893	0.337967	-0.001603	-0.006218	0.165406
56097	9.912520	0.352445	0.338301	0.004766	-0.006161	0.203754
56098	9.934970	0.287641	0.325781	0.008468	-0.004254	0.254873
56099	9.905024	0.179710	0.355070	0.000086	-0.005395	0.293343
56100	9.886651	0.143748	0.340167	-0.004220	-0.003684	0.322043
56101	9.828097	-0.033445	0.347557	-0.009559	-0.001058	0.337360
56102	9.772653	-0.162002	0.290672	-0.006265	0.004968	0.327924
56103	9.773339	-0.272989	0.277543	-0.006227	0.007094	0.310095
56104	9.781842	-0.243953	0.286209	-0.003942	0.012639	0.293666
56105	9.839912	-0.192679	0.305267	-0.003260	0.010967	0.286855
56106	9.847381	-0.115009	0.340676	-0.005929	0.014275	0.293220
56107	9.858348	-0.134003	0.323171	-0.007319	0.010761	0.310157
56108	9.895789	-0.075986	0.366884	-0.009844	0.010638	0.334007
56109	9.907105	-0.020345	0.362853	-0.018773	0.008886	0.368716
56110	9.915451	-0.112619	0.370084	-0.021333	0.001596	0.412510
56111	9.847653	-0.275618	0.292589	-0.024045	0.002924	0.446388
56112	9.831681	-0.442585	0.310555	-0.018453	0.005162	0.458281
56113	9.777713	-0.539363	0.313475	-0.008735	0.005585	0.457919
56114	9.723248	-0.682621	0.289980	-0.009466	0.007064	0.442988
56115	9.717994	-0.756439	0.303171	-0.009042	0.004450	0.416114
56116	9.734277	-0.743561	0.344551	-0.002640	0.004278	0.389972
56117	9.776682	-0.723931	0.309230	0.003937	0.001910	0.375001
56118	9.769193	-0.722048	0.263560	0.016756	0.001081	0.365589
56119	9.796496	-0.679844	0.325321	0.033540	0.000958	0.364147
56120	9.804053	-0.689502	0.346036	0.053477	-0.002373	0.364727
56121	9.779268	-0.761466	0.344415	0.050622	-0.002640	0.373530
56122	9.796915	-0.746546	0.385398	0.021731	-0.001705	0.380942
56123	9.843073	-0.814383	0.369161	-0.001695	-0.000514	0.391749
56124	9.769780	-0.874753	0.344613	0.004047	0.003508	0.402405
56125	9.755576	-0.939818	0.324325	-0.000740	-0.000400	0.403324
56126	9.735404	-1.084061	0.290236	-0.000315	0.001386	0.395473
56127	9.749266	-1.032643	0.285502	0.005761	0.004505	0.384744
56128	9.766972	-1.019166	0.327017	-0.002755	0.007642	0.389089
56129	9.797149	-0.996896	0.349762	-0.009137	0.005046	0.399594
56130	9.746111	-1.107133	0.346628	-0.017336	0.004638	0.414835
56131	9.706624	-1.208160	0.324656	-0.025948	0.005279	0.415383
56132	9.710232	-1.371798	0.299026	-0.021266	0.002179	0.401446
56133	9.684337	-1.396923	0.323747	-0.012449	0.002945	0.378085
56134	9.727036	-1.363601	0.327177	-0.010887	-0.001607	0.369474
56135	9.742932	-1.310650	0.321962	-0.010171	-0.000758	0.366496
56136	9.699135	-1.352420	0.292878	-0.011030	0.001431	0.373079
56137	9.715419	-1.423927	0.353282	-0.013251	0.002088	0.369133
56138	9.715891	-1.444053	0.301194	-0.015178	-0.001545	0.371051
56139	9.697806	-1.489314	0.319697	-0.010298	0.001132	0.369737
56140	9.649576	-1.599779	0.349127	-0.004973	-0.002684	0.359231
56141	9.639745	-1.696703	0.283217	-0.003282	-0.000012	0.337292
56142	9.646358	-1.703329	0.303747	-0.003891	0.001930	0.317769
56143	9.635557	-1.764194	0.316535	0.003895	-0.000074	0.288807
56144	9.634346	-1.689528	0.336408	0.003140	-0.000071	0.270550
56145	9.693152	-1.638843	0.321174	-0.002994	-0.002134	0.269813
56146	9.732316	-1.575487	0.330564	-0.002564	-0.001048	0.283167
56147	9.714043	-1.574815	0.303048	-0.001754	-0.005034	0.307176
56148	9.702680	-1.621524	0.354464	0.003410	-0.005330	0.331588
56149	9.685260	-1.749116	0.300906	0.000226	-0.006468	0.346631
56150	9.628030	-1.903601	0.303517	0.005831	-0.005192	0.343697
56151	9.563432	-2.033874	0.312537	0.011814	-0.000904	0.323463
56152	9.589700	-2.052805	0.308786	0.000831	0.008190	0.293712
56153	9.583867	-2.025704	0.302992	-0.005327	0.011614	0.271070
56154	9.663629	-1.904837	0.336001	-0.009357	0.015286	0.267103
56155	9.665781	-1.775695	0.350462	-0.023472	0.018490	0.279370
56156	9.686429	-1.825052	0.360059	-0.046768	0.017642	0.301013
56157	9.627793	-1.905430	0.396318	-0.061862	0.017695	0.322186
56158	9.620773	-1.985000	0.278217	-0.020810	-0.009816	0.343787
56159	9.633633	-2.001577	0.330803	-0.004226	-0.008835	0.357425
56160	9.613944	-2.006735	0.302692	-0.004112	-0.009442	0.371973
56161	9.597542	-2.128486	0.320842	0.010311	-0.014876	0.383824
56162	9.554317	-2.244781	0.291266	0.034341	-0.019508	0.385897
56163	9.508741	-2.413892	0.268753	0.066120	-0.021071	0.363314
56164	9.465932	-2.494238	0.318607	0.081622	-0.022345	0.330626
56165	9.528452	-2.397535	0.296615	0.079788	-0.021450	0.305709
56166	9.562656	-2.223247	0.350587	0.062828	-0.011090	0.305119
56167	9.621333	-2.104384	0.334494	0.052588	-0.014473	0.332125
56168	9.630011	-2.076381	0.308692	0.048233	-0.012572	0.379795
56169	9.644087	-2.060754	0.315719	0.052486	-0.021450	0.438259
56170	9.620950	-2.113241	0.333488	0.057769	-0.022819	0.491739
56171	9.572234	-2.241057	0.304527	0.054636	-0.023927	0.540869
56172	9.527523	-2.379677	0.308560	0.057815	-0.030486	0.576535
56173	9.480910	-2.520322	0.312739	0.061625	-0.025780	0.593040
56174	9.412923	-2.662070	0.302719	0.057863	-0.028780	0.604239
56175	9.361768	-2.819030	0.268199	0.054143	-0.023559	0.593983
56176	9.341046	-2.988631	0.314880	0.046857	-0.022165	0.575483
56177	9.284925	-3.040372	0.285395	0.035844	-0.018170	0.538309
56178	9.329509	-3.012226	0.326702	0.026665	-0.017275	0.511021
56179	9.363593	-2.968047	0.301385	0.027951	-0.017895	0.496683
56180	9.400417	-2.907851	0.315096	0.025789	-0.016830	0.502572
56181	9.358271	-2.908623	0.311180	0.016318	-0.021198	0.521486
56182	9.346445	-2.981472	0.303660	0.014534	-0.024645	0.536567
56183	9.293040	-3.115213	0.307693	0.019209	-0.023801	0.546288
56184	9.276951	-3.205490	0.261533	0.011515	-0.014119	0.548361
56185	9.224622	-3.361952	0.260796	-0.000524	-0.005462	0.534253
56186	9.166582	-3.548085	0.182761	-0.006698	0.010104	0.506846
56187	9.119424	-3.700145	0.093297	-0.014960	0.035406	0.455805
56188	9.058715	-3.858239	0.149050	-0.024790	0.063356	0.385147
56189	9.069592	-3.780291	0.336792	-0.024849	0.076637	0.315629
56190	9.088958	-3.660102	0.478166	0.003049	0.047062	0.276904
56191	9.130721	-3.572226	0.462738	0.025400	0.012364	0.250243
56192	9.099563	-3.648318	0.365756	0.042054	-0.007871	0.235095
56193	9.117328	-3.671737	0.289776	0.040656	-0.010119	0.205118
56194	9.150636	-3.646933	0.239913	0.009537	0.006546	0.176001
56195	9.111253	-3.587689	0.334984	-0.019374	0.018857	0.155116
56196	9.197619	-3.493455	0.346033	-0.029156	0.019447	0.150320
56197	9.164789	-3.474994	0.305017	-0.041689	0.026340	0.158454
56198	9.159281	-3.637185	0.290015	-0.050886	0.034670	0.156539
56199	9.093339	-3.691479	0.327440	-0.050969	0.036036	0.146965
56200	9.113507	-3.674090	0.421234	-0.051193	0.030541	0.128283
56201	9.125259	-3.595489	0.368436	-0.016920	0.005835	0.133072
56202	9.159487	-3.503544	0.368497	-0.005277	-0.004081	0.146951
56203	9.198477	-3.421438	0.401079	-0.005312	-0.014575	0.176321
56204	9.168534	-3.492707	0.300859	-0.002231	-0.019236	0.210783
56205	9.126176	-3.625196	0.331920	0.006104	-0.021681	0.229458
56206	9.077801	-3.784295	0.160995	0.005577	-0.010423	0.230821
56207	9.071543	-3.929864	0.060059	-0.024553	0.034458	0.199284
56208	9.057470	-3.914423	0.036673	-0.100045	0.107273	0.153097
56209	9.102601	-3.807843	-0.006886	-0.276576	0.225209	0.098600
56210	9.178947	-3.685267	-0.082359	-0.428451	0.345310	0.067226
56211	9.169756	-3.580928	0.287137	-0.413336	0.385664	0.084499
56212	9.129715	-3.370946	0.994629	-0.306751	0.298816	0.147591
56213	9.095021	-3.210177	1.270854	-0.218597	0.140680	0.239826
56214	9.094744	-3.370998	0.912671	-0.124300	-0.010819	0.351425
56215	9.089441	-3.615740	0.455138	-0.024581	-0.097282	0.428687
56216	9.004568	-3.919025	0.368755	-0.007401	-0.112068	0.453658
56217	8.993233	-4.067270	0.006904	-0.023919	-0.083608	0.440654
56218	8.960929	-4.111542	0.019418	-0.024026	-0.027457	0.414417
56219	8.934513	-4.093434	0.284691	-0.020925	0.002920	0.397000
56220	8.967301	-3.972753	0.372154	-0.013118	-0.001889	0.397395
56221	8.955905	-3.962925	0.292884	-0.005526	-0.008446	0.421903
56222	8.938783	-4.086737	0.234039	-0.013879	0.006847	0.432577
56223	8.866219	-4.264978	0.277269	-0.036865	0.037054	0.420722
56224	8.857603	-4.233992	0.403404	-0.056916	0.040633	0.412682
56225	8.848409	-4.185735	0.371704	-0.059840	0.034751	0.410883
56226	8.776918	-4.323746	0.459686	-0.029544	0.010107	0.419650
56227	8.796535	-4.349769	0.330651	-0.022909	-0.008730	0.403105
56228	8.815496	-4.328084	0.214071	-0.035327	0.006727	0.402560
56229	8.742394	-4.440614	0.307648	-0.032082	0.013352	0.402989
56230	8.758884	-4.474016	0.303974	-0.017465	0.014334	0.393571
56231	8.770414	-4.380443	0.299996	-0.002990	0.018794	0.394357
56232	8.752933	-4.438939	0.295409	-0.011988	0.029777	0.402508
56233	8.761503	-4.425878	0.397326	-0.023935	0.030812	0.413187
56234	8.712448	-4.425482	0.448096	-0.032046	0.023317	0.425703
56235	8.654618	-4.543259	0.556017	-0.025293	-0.011604	0.443061
56236	8.626044	-4.634442	0.467140	-0.018906	-0.044793	0.447500
56237	8.620186	-4.674379	0.280377	-0.012733	-0.046450	0.447870
56238	8.628898	-4.750643	0.226195	-0.031199	-0.033448	0.446411
56239	8.563169	-4.755616	0.290269	-0.051393	-0.015983	0.436759
56240	8.585370	-4.764458	0.361631	-0.061715	-0.011989	0.438607
56241	8.518264	-4.816107	0.412761	-0.034567	-0.032207	0.445600
56242	8.522053	-4.883212	0.325322	0.001263	-0.056017	0.450306
56243	8.472683	-5.006957	0.084266	0.023795	-0.049699	0.442774
56244	8.437325	-5.148139	-0.178741	0.012831	0.005517	0.414958
56245	8.357722	-5.231079	-0.074483	-0.024655	0.092274	0.371922
56246	8.388745	-5.212727	0.211752	-0.057556	0.144581	0.327732
56247	8.388122	-5.105642	0.652590	-0.080551	0.143485	0.299905
56248	8.405835	-4.952844	0.920620	-0.069383	0.058250	0.309591
56249	8.380173	-4.952007	0.819449	-0.035191	-0.043105	0.328735
56250	8.384944	-5.062093	0.552349	0.005144	-0.118489	0.345170
56251	8.358082	-5.218945	0.182571	0.031584	-0.139872	0.343786
56252	8.279490	-5.395250	-0.006431	0.031310	-0.105659	0.320160
56253	8.252729	-5.504400	-0.070375	0.011240	-0.041263	0.276832
56254	8.267028	-5.413503	-0.023979	-0.008611	0.023650	0.228692
56255	8.279792	-5.328306	0.150469	-0.016852	0.071625	0.203822
56256	8.274055	-5.292549	0.332497	-0.022550	0.083091	0.195033
56257	8.289368	-5.276917	0.398278	-0.029347	0.072580	0.193002
56258	8.268385	-5.282894	0.460089	-0.023952	0.053811	0.195946
56259	8.272263	-5.224596	0.554168	-0.008462	0.012523	0.201416
56260	8.286513	-5.215601	0.450786	-0.000507	-0.017836	0.216986
56261	8.272665	-5.257640	0.442136	0.011186	-0.040432	0.233202
56262	8.281805	-5.292929	0.486127	0.032344	-0.077215	0.251115
56263	8.203906	-5.338917	0.227398	0.040081	-0.092212	0.261947
56264	8.203172	-5.451448	0.087343	0.029248	-0.064950	0.262982
56265	8.171715	-5.532112	0.123457	0.026421	-0.031682	0.247914
56266	8.162964	-5.472108	0.109666	0.022259	-0.005080	0.234841
56267	8.162005	-5.516344	-0.076796	-0.017147	0.054248	0.224463
56268	8.173800	-5.493521	-0.043854	-0.065614	0.132704	0.213043
56269	8.187797	-5.393727	0.266140	-0.124516	0.192075	0.207112
56270	8.195073	-5.309526	0.536467	-0.152258	0.180437	0.235187
56271	8.173202	-5.264379	0.580008	-0.134301	0.138245	0.272840
56272	8.154001	-5.345437	0.602751	-0.081863	0.073457	0.317025
56273	8.105962	-5.459690	0.561990	-0.020646	0.005721	0.349322
56274	8.031234	-5.652925	0.354121	0.007820	-0.030094	0.363716
56275	7.984965	-5.796526	0.050178	-0.000192	-0.008949	0.346927
56276	7.975813	-5.833590	-0.006942	-0.012821	0.040129	0.320175
56277	7.959733	-5.783215	0.271602	-0.008068	0.073334	0.299499
56278	7.989756	-5.717268	0.299812	-0.031287	0.086013	0.286003
56279	7.974781	-5.670188	0.416013	-0.030447	0.089611	0.298279
56280	7.922169	-5.803636	0.372422	-0.035077	0.069942	0.304272
56281	7.890715	-5.840180	0.427256	-0.032025	0.069096	0.295483
56282	7.926887	-5.841559	0.415276	-0.017236	0.044827	0.291617
56283	7.958656	-5.700613	0.355466	0.000561	0.033365	0.301835
56284	7.892075	-5.813691	0.334916	0.003832	0.032786	0.319490
56285	7.824758	-5.969881	0.373788	0.006161	0.031310	0.316954
56286	7.780814	-6.032756	0.348546	0.008903	0.032281	0.291784
56287	7.741975	-6.113238	0.389288	0.007330	0.028706	0.267801
56288	7.726309	-6.132866	0.391775	0.005420	0.025513	0.240428
56289	7.682570	-6.212226	0.359265	0.007386	0.025586	0.208239
56290	7.686606	-6.134392	0.388134	0.005426	0.019612	0.175571
56291	7.754616	-6.077866	0.370255	0.005528	0.019972	0.157535
56292	7.779634	-5.962186	0.354382	0.008373	0.019516	0.158554
56293	7.793935	-5.926529	0.351484	0.005375	0.019777	0.175631
56294	7.761116	-5.956160	0.332089	0.007483	0.025099	0.185256
56295	7.789254	-5.963306	0.371092	0.010065	0.029117	0.206467
56296	7.740588	-5.964920	0.344186	0.007929	0.029109	0.225505
56297	7.747604	-6.057513	0.323698	0.010964	0.030524	0.240023
56298	7.645223	-6.143006	0.437282	0.011878	0.029176	0.236959
56299	7.613247	-6.252859	0.413444	0.011096	0.027364	0.224960
56300	7.623181	-6.211047	0.378354	0.010350	0.028025	0.204972
56301	7.610631	-6.226259	0.380964	0.007058	0.026297	0.195337
56302	7.582647	-6.242572	0.401573	0.004840	0.028316	0.179882
56303	7.611808	-6.248148	0.440338	0.008653	0.021373	0.162427
56304	7.598717	-6.240592	0.376407	0.008311	0.021825	0.159061
56305	7.568265	-6.277134	0.389987	0.008099	0.019999	0.145589
56306	7.543209	-6.289622	0.410060	0.007343	0.018095	0.133553
56307	7.560650	-6.251372	0.407011	0.005649	0.017656	0.124622
56308	7.599271	-6.188132	0.392499	0.006999	0.018559	0.130193
56309	7.569941	-6.223109	0.406021	0.008670	0.022677	0.136218
56310	7.577453	-6.231693	0.390118	0.008433	0.022252	0.141062
56311	7.542532	-6.290301	0.397352	0.007975	0.028588	0.144864
56312	7.497764	-6.394732	0.391430	0.008029	0.027481	0.139825
56313	7.346736	-6.720895	0.430802	-0.004288	0.032746	0.091077
56314	7.530873	-6.378451	0.438850	-0.014176	0.031479	0.037595
56315	7.638161	-6.115564	0.335822	-0.014265	0.041298	0.055115
56316	7.527682	-6.244672	0.395884	0.007100	0.041400	0.086341
56317	7.446173	-6.413780	0.479782	0.018417	0.031701	0.083000
56318	7.441542	-6.418920	0.482864	0.013608	0.023505	0.057183
56319	7.504487	-6.305956	0.391755	0.018391	0.018831	0.046925
56320	7.492428	-6.365480	0.413934	0.012400	0.020643	0.054786
56321	7.427875	-6.462587	0.516417	0.010151	0.016186	0.036930
56322	7.467632	-6.405232	0.461995	0.006386	0.009239	0.013280
56323	7.517108	-6.291181	0.387310	0.005181	0.006361	0.010878
56324	7.497262	-6.336491	0.465577	0.002100	0.006464	0.014694
56325	7.431404	-6.401468	0.467415	0.005565	0.004812	0.009212
56326	7.491388	-6.360391	0.460164	0.003106	0.003501	-0.006754
56327	7.486813	-6.382836	0.453709	0.000624	-0.001099	-0.006499
56328	7.453639	-6.375694	0.456582	0.000357	-0.005469	-0.012010
56329	7.449819	-6.397325	0.449346	-0.003763	-0.006953	-0.023651
56330	7.516624	-6.331183	0.447351	-0.004559	-0.007773	-0.030658
56331	7.526061	-6.263481	0.393775	-0.004462	-0.005009	-0.025373
56332	7.558418	-6.191549	0.395462	0.002452	0.000684	-0.010597
56333	7.573338	-6.180229	0.344900	0.004723	0.009065	0.017603
56334	7.526466	-6.274120	0.428567	0.009662	0.014978	0.033313
56335	7.514195	-6.322665	0.417080	0.007088	0.019903	0.037807
56336	7.499250	-6.294392	0.410527	0.010671	0.012651	0.038431
56337	7.471529	-6.354717	0.450053	0.009035	0.016087	0.039816
56338	7.441756	-6.395059	0.423435	0.007374	0.015599	0.030859
56339	7.463663	-6.391952	0.479432	0.005418	0.007133	0.019330
56340	7.445360	-6.384741	0.465170	0.003277	0.005426	0.006754
56341	7.483767	-6.368687	0.469333	0.000992	0.006036	0.004295
56342	7.440026	-6.408004	0.459311	0.000627	-0.001103	-0.006500
56343	7.467165	-6.359539	0.454364	-0.002068	-0.002868	-0.017635
56344	7.509615	-6.299434	0.398343	0.000485	0.000895	-0.009665
56345	7.557490	-6.226989	0.382542	0.002965	0.005816	0.003363
56346	7.525259	-6.298503	0.381581	0.006237	0.011565	0.023400
56347	7.506967	-6.302416	0.401082	0.005322	0.016986	0.036851
56348	7.479240	-6.362578	0.440591	0.008160	0.016435	0.037872
56349	7.476731	-6.365398	0.442440	0.009750	0.017768	0.038609
56350	7.458018	-6.369689	0.462338	0.009652	0.015003	0.033325
56351	7.418155	-6.398255	0.493506	0.006119	0.017501	0.030581
56352	7.440237	-6.452438	0.478388	0.004376	0.005869	0.017159
56353	7.448605	-6.397472	0.459307	0.001721	0.007702	0.003080
56354	7.457460	-6.341966	0.440012	0.001207	0.002881	0.002403
56355	7.511298	-6.314450	0.392935	0.001858	0.005706	0.006246
56356	7.436240	-6.377277	0.485550	0.003758	0.006647	0.010375
56357	7.472410	-6.341878	0.423726	0.002030	0.007314	0.006472
56358	7.473854	-6.362202	0.490617	0.004621	0.006315	0.012326
56359	7.398040	-6.472396	0.478833	-0.001247	0.001885	-0.000285
56360	7.442402	-6.432538	0.488944	-0.003167	-0.002990	-0.014757
56361	7.489309	-6.339582	0.406237	-0.000253	-0.004709	-0.018795
56362	7.500297	-6.292663	0.419281	-0.001652	-0.000497	-0.008962
56363	7.501556	-6.302205	0.452561	0.003352	0.004266	0.001698
56364	7.517504	-6.301021	0.435216	0.003928	0.008255	0.010601
56365	7.472660	-6.341445	0.425792	0.005407	0.007146	0.019337
56366	7.483567	-6.374183	0.435424	0.007992	0.014517	0.024369
56367	7.432848	-6.380817	0.490948	0.003007	0.013691	0.024053
56368	7.433667	-6.459357	0.487085	0.004543	0.007482	0.017387
56369	7.410676	-6.474676	0.465927	-0.000519	0.003548	-0.001501
56370	7.421313	-6.428219	0.479158	-0.001745	-0.003271	-0.014248
56371	7.418728	-6.459327	0.505051	-0.004352	-0.006208	-0.030446
56372	7.387577	-6.449842	0.506961	-0.008168	-0.012023	-0.049047
56373	7.445324	-6.418008	0.457635	-0.014762	-0.018110	-0.060440
56374	7.497355	-6.341135	0.439142	-0.013748	-0.020759	-0.068603
56375	7.490192	-6.315047	0.461668	-0.012451	-0.015100	-0.060912
56376	7.520515	-6.320598	0.383909	-0.009165	-0.018034	-0.053331
56377	7.486008	-6.343223	0.411672	-0.007869	-0.012381	-0.045643
56378	7.495002	-6.326746	0.449865	-0.010013	-0.013765	-0.044936
56379	7.509325	-6.344624	0.423503	-0.009460	-0.013703	-0.046375
56380	7.494703	-6.333244	0.407085	-0.004553	-0.011704	-0.041001
56381	7.459712	-6.356587	0.435348	-0.010452	-0.007442	-0.041145
56382	7.500059	-6.327065	0.404527	-0.011655	-0.010318	-0.043545
56383	7.550014	-6.251859	0.387031	-0.007157	-0.010378	-0.033568
56384	7.552942	-6.259582	0.419339	-0.004496	-0.000247	-0.023254
56385	7.543003	-6.294412	0.372795	-0.000938	0.001179	-0.010171
56386	7.531947	-6.272762	0.397626	0.000721	0.001666	-0.001214
56387	7.515370	-6.274768	0.416126	0.002880	0.006974	0.008421
56388	7.505987	-6.331280	0.436595	0.001939	0.008463	0.011528
56389	7.500464	-6.354894	0.430703	0.006662	0.004935	0.006332
56390	7.542646	-6.305870	0.408508	0.000814	0.004428	0.004069
56391	7.508453	-6.299944	0.411963	0.002546	0.003761	0.007969
56392	7.503028	-6.323456	0.405891	0.003434	0.007034	0.006981
56393	7.502553	-6.323974	0.406605	0.004687	0.005152	0.007264
56394	7.477182	-6.381764	0.444915	0.001755	0.002939	0.000962
56395	7.456177	-6.406127	0.456521	0.000485	0.000902	-0.009662
56396	7.504454	-6.332836	0.440361	-0.001027	-0.001585	-0.015455
56397	7.514005	-6.276126	0.420286	-0.003411	-0.003427	-0.009919
56398	7.504599	-6.321538	0.406721	-0.002985	0.002549	-0.004183
56399	7.493374	-6.300074	0.431583	0.002696	0.001450	-0.002145
56400	7.509718	-6.298307	0.413933	0.003342	0.004271	0.001697
56401	7.504481	-6.321600	0.407940	0.004853	0.006759	0.007490
56402	7.482701	-6.346863	0.419958	0.002544	0.003761	0.007969
56403	7.495968	-6.388172	0.461864	0.002787	0.004213	0.003138
56404	7.462297	-6.381642	0.465018	-0.000957	-0.002429	-0.007233
56405	7.468065	-6.357702	0.471503	-0.002590	0.000689	-0.019129
56406	7.471198	-6.423089	0.432886	-0.002574	-0.011597	-0.028649
56407	7.479707	-6.407152	0.471512	-0.008394	-0.008807	-0.047129
56408	7.465631	-6.395218	0.454965	-0.010718	-0.015717	-0.056987
56409	7.490817	-6.365988	0.441559	-0.013098	-0.017862	-0.064726
56410	7.504903	-6.315089	0.452567	-0.015165	-0.020398	-0.069073
56411	7.532995	-6.242591	0.379233	-0.014300	-0.020723	-0.067120
56412	7.584004	-6.165539	0.360963	-0.010413	-0.016080	-0.053585
56413	7.662422	-6.119426	0.333988	-0.002934	-0.002508	-0.019574
56414	7.493949	-6.316892	0.425011	0.001660	0.000185	-0.004321
56415	7.561987	-6.328861	0.418957	-0.000077	0.000853	-0.008219
56416	7.515960	-6.291058	0.413746	-0.000630	0.000792	-0.006778
56417	7.529117	-6.321505	0.422042	-0.000240	-0.000753	-0.008445
56418	7.521881	-6.266769	0.420429	0.001030	0.000977	-0.011099
56419	7.551482	-6.295233	0.410781	-0.000077	0.000854	-0.008218
56420	7.534299	-6.286796	0.395983	0.001433	0.003337	-0.002428
56421	7.522821	-6.265607	0.420944	-0.000390	0.001545	0.001667
56422	7.501558	-6.290548	0.432494	-0.000226	0.003152	0.001893
56423	7.534030	-6.287077	0.396649	0.002616	0.002607	0.002910
56424	7.496335	-6.313960	0.426481	0.000805	0.004425	0.004068
56425	7.530031	-6.320299	0.423792	0.002302	0.003003	-0.000479
56426	7.525296	-6.343157	0.417408	0.001270	0.001730	-0.002654
56427	7.538732	-6.264157	0.404641	0.001434	0.003337	-0.002428
56428	7.512773	-6.311922	0.409542	0.000868	-0.000334	0.001949
56429	7.538694	-6.264175	0.405057	0.001044	0.004883	-0.000761
56430	7.534859	-6.297212	0.431941	0.001836	0.005698	0.006243
56431	7.559214	-6.240053	0.394833	0.002164	0.008912	0.006696
56432	7.548751	-6.286940	0.382412	0.006112	0.008788	0.018108
56433	7.510034	-6.314962	0.412923	0.006979	0.008455	0.020057
56434	7.461929	-6.388590	0.429951	0.004289	0.006700	0.008928
56435	7.466515	-6.365869	0.437060	-0.000703	0.001941	-0.001723
56436	7.546491	-6.289501	0.384896	-0.000314	0.000395	-0.003389
56437	7.551283	-6.266552	0.391831	0.000969	0.006033	0.004294
56438	7.529765	-6.291733	0.403747	0.001836	0.005699	0.006244
56439	7.529207	-6.292356	0.404453	0.003898	0.008246	0.010595
56440	7.549523	-6.268544	0.393879	0.004915	0.005911	0.015708
56441	7.506064	-6.319374	0.417582	0.007530	0.008519	0.018619
56442	7.501356	-6.353330	0.444927	0.004601	0.006307	0.012318
56443	7.478586	-6.368748	0.423785	0.001749	0.002942	0.000962
56444	7.488473	-6.322537	0.437417	0.001514	0.002184	-0.007484
56445	7.518073	-6.351024	0.427784	-0.001969	-0.000090	-0.012345
56446	7.543741	-6.292497	0.389797	-0.002133	-0.001697	-0.012571
56447	7.548017	-6.258976	0.363370	0.000959	0.002124	-0.006044
56448	7.563499	-6.200048	0.417029	0.005318	0.007975	0.011105
56449	7.567758	-6.235844	0.353638	0.005952	0.011098	0.028222
56450	7.549174	-6.240258	0.373259	0.009997	0.017348	0.041982
56451	7.538680	-6.309393	0.428290	0.014820	0.020508	0.052412
56452	7.501312	-6.307167	0.433846	0.013484	0.023550	0.057187
56453	7.464330	-6.424217	0.493856	0.009934	0.022127	0.044106
56454	7.481824	-6.392626	0.451370	0.008484	0.014878	0.036197
56455	7.514514	-6.291610	0.428490	0.010372	0.011902	0.029986
56456	7.528626	-6.292458	0.412120	0.008958	0.016100	0.039816
56457	7.547028	-6.271083	0.402693	0.012192	0.017930	0.049513
56458	7.522272	-6.299762	0.416536	0.015061	0.024918	0.057937
56459	7.543277	-6.247162	0.381696	0.018044	0.026307	0.072469
56460	7.513059	-6.310325	0.422889	0.020189	0.031639	0.082112
56461	7.487170	-6.351069	0.470926	0.020629	0.029269	0.088676
56462	7.442665	-6.374018	0.470821	0.020100	0.032835	0.087183
56463	7.448499	-6.401564	0.449996	0.020518	0.034903	0.082582
56464	7.444123	-6.417268	0.486633	0.017384	0.027486	0.078997
56465	7.468715	-6.332937	0.425654	0.020642	0.028994	0.075420
56466	7.527680	-6.265576	0.395354	0.023005	0.035124	0.093520
56467	7.484002	-6.309049	0.462040	0.024463	0.037997	0.112614
56468	7.453861	-6.332589	0.445033	0.028496	0.044311	0.126402
56469	7.430940	-6.420610	0.463445	0.028400	0.045523	0.131477
56470	7.385238	-6.465573	0.531144	0.029771	0.046093	0.123778
56471	7.350428	-6.521578	0.540768	0.023483	0.039634	0.115772
56472	7.364049	-6.495382	0.500605	0.023181	0.036070	0.102041
56473	7.373925	-6.501154	0.486682	0.021671	0.033582	0.096249
56474	7.360885	-6.453873	0.488516	0.021195	0.032371	0.092637
56475	7.393015	-6.434926	0.463091	0.020132	0.035892	0.092577
56476	7.414318	-6.404548	0.495507	0.024393	0.034265	0.102372
56477	7.407223	-6.412413	0.499888	0.024744	0.041497	0.113180
56478	7.415884	-6.419822	0.486673	0.020780	0.045999	0.125388
56479	7.395409	-6.398174	0.483180	0.031229	0.048082	0.137941
56480	7.327012	-6.544983	0.557880	0.026513	0.050960	0.151371
56481	7.239622	-6.596461	0.588421	0.024243	0.047618	0.138562
56482	7.276278	-6.644079	0.599195	0.021982	0.040253	0.115394
56483	7.240812	-6.621519	0.612422	0.018217	0.034359	0.096764
56484	7.218438	-6.696302	0.596065	0.016247	0.026593	0.076984
56485	7.169804	-6.738810	0.587943	0.012122	0.014210	0.039299
56486	7.251588	-6.686888	0.603811	0.004508	0.007579	0.017429
56487	7.320549	-6.487027	0.482193	0.001121	0.008891	0.009585
56488	7.386030	-6.425997	0.482530	0.008077	0.012672	0.027609
56489	7.361271	-6.452882	0.495738	0.007494	0.025474	0.051871
56490	7.302615	-6.560290	0.540636	0.005509	0.024963	0.061037
56491	7.320100	-6.531261	0.498556	0.003717	0.031629	0.064295
56492	7.260569	-6.571838	0.581473	0.003337	0.038008	0.068075
56493	7.278577	-6.629717	0.568400	-0.000713	0.030910	0.062515
56494	7.196478	-6.674364	0.595667	0.003152	0.027590	0.055392
56495	7.216039	-6.663139	0.619314	0.008156	0.010712	0.030805
56496	7.247223	-6.585857	0.589291	0.021514	-0.002679	0.024777
56497	7.289966	-6.539850	0.568001	0.055817	-0.032409	0.030390
56498	7.288513	-6.561269	0.635717	0.122899	-0.090342	0.046178
56499	7.285799	-6.564130	0.637290	0.217294	-0.172868	0.062070
56500	7.220280	-6.654960	0.542909	0.232461	-0.189932	0.058176
56501	7.238393	-6.605784	0.433456	0.174505	-0.135614	0.047263
56502	7.280699	-6.570403	0.445382	0.096900	-0.058887	0.045616
56503	7.229693	-6.671215	0.564114	0.020689	0.008614	0.032016
56504	7.205534	-6.619841	0.581114	-0.004113	0.023438	0.025379
56505	7.215376	-6.652701	0.591362	-0.008551	0.023413	0.015350
56506	7.220208	-6.630692	0.598607	-0.012333	0.021462	0.007069
56507	7.219839	-6.631049	0.599095	-0.015461	0.017583	0.000534
56508	7.241349	-6.598271	0.554486	-0.015176	0.017239	0.003940
56509	7.280129	-6.583548	0.558665	-0.001455	0.011130	0.008720
56510	7.268154	-6.562686	0.583916	0.031226	-0.010989	0.026099
56511	7.311131	-6.526731	0.595222	0.080945	-0.054163	0.041602
56512	7.312293	-6.556231	0.499971	0.086636	-0.046403	0.056123
56513	7.241744	-6.631139	0.537498	0.062295	-0.019434	0.062329
56514	7.120806	-6.766302	0.558752	-0.004505	0.031112	0.034161
56515	7.220988	-6.645977	0.592416	-0.045468	0.052470	0.003509
56516	7.315158	-6.529361	0.552963	-0.061752	0.069686	0.010322
56517	7.252567	-6.578878	0.595407	-0.050102	0.065090	0.021101
56518	7.306506	-6.498013	0.619267	-0.040761	0.049346	0.049985
56519	7.335573	-6.433995	0.621630	-0.011581	0.032380	0.091463
56520	7.310776	-6.510803	0.604243	0.018651	0.005143	0.134145
56521	7.262168	-6.545710	0.635386	0.042696	-0.014713	0.161770
56522	7.233560	-6.626212	0.618157	0.061654	-0.032653	0.177620
56523	7.221288	-6.629769	0.586742	0.060261	-0.028177	0.187477
56524	7.146533	-6.672060	0.563528	0.041336	-0.006668	0.190285
56525	7.134431	-6.703993	0.631999	0.037400	-0.012799	0.193270
56526	7.183622	-6.689167	0.659006	0.060797	-0.031277	0.205871
56527	7.219103	-6.540076	0.776786	0.113184	-0.093892	0.226150
56528	7.307709	-6.446395	0.841477	0.176251	-0.183027	0.283489
56529	7.194437	-6.659356	0.483639	0.185467	-0.201593	0.332349
56530	6.980672	-6.930050	0.435064	0.141109	-0.147699	0.326174
56531	6.981989	-6.919356	0.389974	0.083687	-0.069668	0.296720
56532	7.034972	-6.829678	0.491807	0.039718	-0.005574	0.286293
56533	7.007819	-6.880684	0.717728	0.007282	0.010888	0.283373
56534	6.911980	-6.973191	0.681542	-0.003824	0.000314	0.276701
56535	6.862758	-7.009913	0.587110	-0.000785	-0.006677	0.252443
56536	6.852060	-6.985804	0.525649	-0.034206	0.018423	0.226385
56537	6.958692	-6.978886	0.404790	-0.081846	0.081022	0.204188
56538	6.941127	-6.929662	0.368753	-0.152140	0.165795	0.191478
56539	7.025161	-6.840324	0.559393	-0.190469	0.226553	0.196142
56540	7.014711	-6.712102	0.798452	-0.168275	0.192633	0.237469
56541	6.967819	-6.831325	0.807764	-0.117058	0.109879	0.294880
56542	6.894490	-6.938641	0.693489	-0.053037	0.027583	0.332324
56543	6.764946	-7.113790	0.595658	0.005013	-0.024997	0.344626
56544	6.601700	-7.305151	0.600972	0.029739	-0.037554	0.313380
56545	6.630367	-7.325155	0.546719	0.025545	-0.038232	0.268273
56546	6.672635	-7.198057	0.532626	0.018205	-0.022199	0.231477
56547	6.735339	-7.133690	0.537173	0.018137	-0.014467	0.218672
56548	6.704937	-7.202214	0.558606	0.020832	-0.007995	0.215222
56549	6.680946	-7.184023	0.551001	0.036530	-0.008787	0.204644
56550	6.775311	-7.029317	0.582422	0.036720	-0.005767	0.210003
56551	6.807370	-7.009968	0.594180	0.010593	0.012896	0.239602
56552	6.789611	-7.018145	0.562584	-0.000680	0.026637	0.271370
56553	6.751507	-6.991567	0.612485	-0.012425	0.034003	0.300857
56554	6.816805	-6.977048	0.660657	-0.016438	0.035094	0.349766
56555	6.691746	-7.052368	0.771551	-0.003179	-0.000995	0.398002
56556	6.543451	-7.249997	0.668372	0.012671	-0.039559	0.425365
56557	6.538403	-7.292515	0.591959	0.033563	-0.043842	0.425155
56558	6.475288	-7.354388	0.563372	0.015898	-0.036278	0.427263
56559	6.387296	-7.490946	0.549279	0.002064	-0.014656	0.406573
56560	6.382363	-7.449863	0.567662	0.005826	-0.002211	0.387182
56561	6.363311	-7.433861	0.507804	-0.011033	0.024463	0.377296
56562	6.358687	-7.500504	0.532941	-0.032621	0.047148	0.368621
56563	6.347712	-7.443713	0.609540	-0.040936	0.054700	0.364261
56564	6.353110	-7.469894	0.574261	-0.054186	0.074795	0.367123
56565	6.318653	-7.452004	0.532470	-0.070008	0.090277	0.373734
56566	6.280763	-7.506973	0.559948	-0.081809	0.105461	0.370128
56567	6.269528	-7.487233	0.573181	-0.085731	0.114513	0.381114
56568	6.297352	-7.468293	0.623790	-0.076134	0.104514	0.401458
56569	6.182762	-7.558131	0.586093	-0.077751	0.102914	0.412770
56570	6.122691	-7.622886	0.664677	-0.063052	0.092409	0.419987
56571	6.088836	-7.658262	0.698197	-0.058925	0.069706	0.420542
56572	6.028589	-7.749090	0.678262	-0.043840	0.039250	0.418301
56573	5.979039	-7.808091	0.631035	-0.030893	0.019950	0.407382
56574	5.975090	-7.803053	0.585530	-0.021589	0.017113	0.390846
56575	5.980849	-7.722956	0.740945	-0.003963	-0.008918	0.384825
56576	5.997287	-7.674623	0.708143	0.028281	-0.060717	0.405379
56577	5.918091	-7.762880	0.435834	0.035292	-0.059758	0.422096
56578	5.923893	-7.824941	0.408815	-0.000105	0.001210	0.419780
56579	5.909026	-7.789945	0.552063	-0.044773	0.059454	0.421999
56580	5.895032	-7.772846	0.564675	-0.067404	0.078887	0.436202
56581	5.863105	-7.754675	0.594604	-0.076573	0.083902	0.461966
56582	5.796839	-7.898128	0.649293	-0.082512	0.090175	0.480644
56583	5.681669	-7.937696	0.712182	-0.072712	0.065504	0.485426
56584	5.667138	-7.982736	0.634579	-0.060597	0.038383	0.491056
56585	5.604278	-8.010687	0.576877	-0.046012	0.022386	0.498294
56586	5.536535	-8.160666	0.466695	-0.036398	0.022367	0.487211
56587	5.550238	-8.082457	0.498442	-0.043631	0.053063	0.472402
56588	5.508575	-8.049814	0.586112	-0.055413	0.063724	0.475255
56589	5.420222	-8.187805	0.658332	-0.040435	0.049507	0.474242
56590	5.349502	-8.224003	0.562715	-0.027993	0.030909	0.471984
56591	5.362277	-8.274326	0.378784	-0.030431	0.046937	0.448017
56592	5.325735	-8.297872	0.379232	-0.047944	0.091426	0.427645
56593	5.296443	-8.275722	0.411557	-0.065742	0.134346	0.407025
56594	5.299903	-8.243111	0.539575	-0.085026	0.170416	0.397482
56595	5.267720	-8.213615	0.736243	-0.081055	0.162462	0.402531
56596	5.234557	-8.142162	0.890521	-0.046472	0.087032	0.427721
56597	5.193389	-8.225898	0.728862	-0.019589	0.017135	0.458648
56598	5.191286	-8.204970	0.618032	-0.002958	-0.009256	0.476923
56599	5.157137	-8.312804	0.504159	-0.003458	-0.009343	0.494373
56600	5.088347	-8.312317	0.472428	-0.024120	0.023500	0.503021
56601	5.120181	-8.283796	0.530055	-0.027596	0.040087	0.519979
56602	4.983131	-8.404117	0.530842	-0.039607	0.055991	0.540278
56603	4.926715	-8.467124	0.393153	-0.049152	0.080599	0.541176
56604	4.814369	-8.594774	0.286135	-0.076361	0.148396	0.524082
56605	4.762441	-8.604910	0.344561	-0.102509	0.211155	0.496748
56606	4.808226	-8.589587	0.420780	-0.115483	0.263922	0.479815
56607	4.702584	-8.546453	0.688274	-0.120903	0.264991	0.472844
56608	4.679899	-8.499631	0.965189	-0.094252	0.199864	0.487587
56609	4.660838	-8.484487	0.979361	-0.066685	0.093410	0.518683
56610	4.583678	-8.574005	0.792612	-0.036006	0.014042	0.540005
56611	4.534199	-8.648241	0.594986	-0.021440	-0.011918	0.549408
56612	4.483902	-8.691515	0.732021	0.002387	-0.039296	0.552307
56613	4.385909	-8.769093	0.799225	0.019419	-0.092276	0.553195
56614	4.182041	-9.024230	0.711678	0.042608	-0.150136	0.523287
56615	4.193971	-9.031425	0.484648	0.045807	-0.164803	0.466720
56616	4.335147	-8.870149	0.157479	0.021020	-0.090420	0.421652
56617	4.380125	-8.782082	0.304040	-0.011577	-0.003632	0.413852
56618	4.371293	-8.680097	0.430971	-0.025666	0.043997	0.427004
56619	4.385592	-8.656765	0.467198	-0.045468	0.079439	0.454996
56620	4.310153	-8.700735	0.510011	-0.066235	0.115256	0.489710
56621	4.100570	-8.885253	0.676449	-0.073329	0.113112	0.495902
56622	4.131479	-8.778501	0.774512	-0.057991	0.064881	0.510747
56623	4.147639	-8.692118	0.864873	-0.034326	-0.006748	0.550008
56624	4.027657	-8.799787	0.719666	-0.006691	-0.078075	0.584122
56625	3.914529	-9.027814	0.451596	0.008491	-0.099572	0.594556
56626	3.781045	-9.152192	0.373365	0.006767	-0.071006	0.572001
56627	3.792091	-9.090298	0.366860	-0.007201	-0.030319	0.544188
56628	3.737170	-9.095591	0.422902	-0.016508	0.006411	0.530683
56629	3.707124	-9.063545	0.420456	-0.022643	0.025799	0.518197
56630	3.699049	-9.037456	0.473541	-0.033056	0.044920	0.523414
56631	3.651678	-9.066314	0.578220	-0.035680	0.051870	0.531885
56632	3.658430	-8.932065	0.573061	-0.037237	0.042293	0.542407
56633	3.622093	-9.040408	0.512698	-0.039140	0.039813	0.572640
56634	3.438064	-9.173885	0.568368	-0.040906	0.041245	0.577972
56635	3.455559	-9.114150	0.634504	-0.043325	0.026888	0.577464
56636	3.422281	-9.107778	0.605585	-0.039335	0.007763	0.594170
56637	3.331465	-9.163081	0.514493	-0.039137	-0.011471	0.611081
56638	3.189072	-9.351467	0.360561	-0.042481	0.012566	0.597988
56639	3.226891	-9.227419	0.555980	-0.038424	0.022469	0.582602
56640	3.126154	-9.298063	0.531330	-0.040299	0.018673	0.578893
56641	3.083063	-9.283809	0.592967	-0.036220	0.003110	0.574159
56642	3.114465	-9.159138	0.642237	-0.033294	-0.017456	0.587036
56643	3.016971	-9.229684	0.689887	-0.023333	-0.053976	0.612193
56644	2.932059	-9.331185	0.694946	-0.014883	-0.100658	0.625909
56645	2.869323	-9.338667	0.511265	-0.013684	-0.129417	0.625585
56646	2.821309	-9.353108	0.309852	-0.018286	-0.108105	0.629914
56647	2.788631	-9.370494	0.328022	-0.022523	-0.068694	0.632498
56648	2.603476	-9.520777	0.339487	-0.033391	-0.040747	0.617483
56649	2.676749	-9.419761	0.262067	-0.042807	-0.000651	0.608441
56650	2.537434	-9.493335	0.247016	-0.051219	0.044572	0.607070
56651	2.480328	-9.508499	0.243740	-0.054423	0.094532	0.591441
56652	2.431295	-9.500468	0.339020	-0.055938	0.125424	0.584019
56653	2.358021	-9.540728	0.434984	-0.068671	0.143558	0.575295
56654	2.298310	-9.549274	0.595625	-0.059914	0.126880	0.561878
56655	2.210298	-9.593750	0.577993	-0.054450	0.093300	0.548943
56656	2.051560	-9.846046	0.527550	-0.049145	0.064928	0.513603
56657	2.034715	-9.812840	0.360086	-0.041959	0.057291	0.452763
56658	2.128323	-9.622813	0.345280	-0.032970	0.063772	0.420196
56659	2.109529	-9.582071	0.270063	-0.032863	0.082598	0.413019
56660	2.082565	-9.573563	0.203431	-0.033288	0.125975	0.410802
56661	2.135717	-9.494400	0.444006	-0.038303	0.147727	0.414251
56662	2.063299	-9.460861	0.430230	-0.035937	0.137997	0.438411
56663	2.009064	-9.564948	0.329935	-0.038695	0.157043	0.454229
56664	1.949042	-9.526699	0.429413	-0.042431	0.172792	0.460354
56665	2.002182	-9.403000	0.720379	-0.038962	0.140118	0.487556
56666	1.872357	-9.491880	0.827236	-0.033126	0.074561	0.531583
56667	1.732354	-9.614547	0.704083	-0.031577	0.010605	0.538040
56668	1.677085	-9.660445	0.545145	-0.029960	-0.027243	0.538455
56669	1.603852	-9.720404	0.378291	-0.029324	-0.034673	0.528390
56670	1.535700	-9.730354	0.498155	-0.028994	-0.030797	0.512229
56671	1.504711	-9.723795	0.502412	-0.027694	-0.050039	0.502672
56672	1.383846	-9.852787	0.433693	-0.028272	-0.059235	0.476813
56673	1.368207	-9.813211	0.430188	-0.022918	-0.070171	0.444218
56674	1.380072	-9.789520	0.319171	-0.019325	-0.062779	0.425394
56675	1.343597	-9.771833	0.341816	-0.014430	-0.044738	0.408708
56676	1.355461	-9.758780	0.337397	-0.018148	-0.040514	0.401613
56677	1.259889	-9.818361	0.181709	-0.016858	-0.012733	0.388522
56678	1.220013	-9.807924	0.237905	-0.017011	0.025127	0.366743
56679	1.239839	-9.691572	0.351732	-0.023313	0.046120	0.361597
56680	1.236815	-9.717992	0.388162	-0.025065	0.047507	0.363028
56681	1.148692	-9.686508	0.528970	-0.027750	0.041990	0.369990
56682	1.085702	-9.817889	0.507075	-0.027508	0.013186	0.361898
56683	1.028829	-9.806570	0.375696	-0.028072	0.001884	0.348981
56684	0.986788	-9.844199	0.453736	-0.025677	-0.011239	0.335579
56685	0.900722	-9.902537	0.370435	-0.023768	-0.016946	0.308200
56686	0.974100	-9.830837	0.373590	-0.020181	-0.017871	0.283296
56687	0.887429	-9.911433	0.265594	-0.021306	-0.008206	0.261475
56688	0.834123	-9.919720	0.346609	-0.015880	0.000927	0.229247
56689	0.835354	-9.897511	0.247185	-0.011126	0.014544	0.204166
56690	0.852506	-9.857828	0.319416	-0.010653	0.030568	0.174977
56691	0.850377	-9.816036	0.441944	-0.010000	0.027810	0.161984
56692	0.842286	-9.809445	0.408284	-0.014044	0.026256	0.156341
56693	0.918605	-9.701730	0.382268	-0.013823	0.023956	0.148888
56694	0.763966	-9.925202	0.330341	-0.016993	0.023960	0.147447
56695	0.877424	-9.735448	0.387327	-0.013320	0.028787	0.129743
56696	0.766822	-9.827225	0.395648	-0.015157	0.022199	0.129183
56697	0.770317	-9.812291	0.329071	-0.012216	0.017863	0.113399
56698	0.831053	-9.784730	0.333539	-0.015962	0.027618	0.105452
56699	0.746805	-9.798961	0.384545	-0.011360	0.022896	0.105943
56700	0.787583	-9.796279	0.250527	-0.015533	0.034846	0.097690
56701	0.819839	-9.733450	0.347793	-0.015426	0.050284	0.097152
56702	0.785887	-9.717055	0.454406	-0.019244	0.039526	0.107428
56703	0.659913	-9.917875	0.376309	-0.024489	0.035273	0.112886
56704	0.565945	-9.977437	0.375619	-0.026709	0.032647	0.061527
56705	0.749468	-9.765252	0.397307	-0.032953	0.028424	0.052899
56706	0.669833	-9.872659	0.295742	-0.025627	0.029297	0.042806
56707	0.698978	-9.829393	0.293941	-0.021904	0.032332	0.030891
56708	0.663162	-9.832113	0.302067	-0.013679	0.042429	0.022794
56709	0.716395	-9.738186	0.392019	-0.018387	0.039454	0.020659
56710	0.712069	-9.764551	0.438455	-0.015588	0.022183	0.020756
56711	0.769765	-9.700594	0.412689	-0.014322	0.006219	0.029773
56712	0.741148	-9.695440	0.387550	-0.029113	-0.001544	0.042403
56713	0.800034	-9.676158	0.423149	-0.034484	-0.003343	0.059331
56714	0.768516	-9.712377	0.386160	-0.045022	-0.013577	0.076067
56715	0.721423	-9.697404	0.375457	-0.057083	-0.020783	0.095856
56716	0.698044	-9.770253	0.366897	-0.059840	-0.026379	0.106462
56717	0.717193	-9.765436	0.277565	-0.072420	-0.028035	0.110264
56718	0.664016	-9.870091	0.161638	-0.066191	-0.008546	0.110586
56719	0.568696	-9.928958	0.157390	-0.043739	-0.002258	0.084181
56720	0.921600	-9.494839	0.386139	-0.036250	0.005489	0.103065
56721	0.667214	-9.736021	0.299762	-0.054402	0.003604	0.158735
56722	0.781349	-9.631957	0.333727	-0.069366	0.004341	0.182793
56723	0.683378	-9.724362	0.284521	-0.086042	0.008828	0.223481
56724	0.683309	-9.646369	0.246164	-0.098155	0.021249	0.240770
56725	0.630146	-9.709721	0.250824	-0.107143	0.048030	0.274661
56726	0.472358	-9.846171	0.320701	-0.110910	0.042699	0.271395
56727	0.468052	-9.809012	0.270429	-0.108120	0.021509	0.269955
56728	0.405057	-9.848996	0.186377	-0.098961	0.011240	0.253498
56729	0.479364	-9.749043	0.227041	-0.099859	0.002291	0.255628
56730	0.487609	-9.708007	0.217927	-0.108043	0.002781	0.277423
56731	0.526771	-9.665733	0.198523	-0.117587	0.006461	0.306358
56732	0.580534	-9.566702	0.123739	-0.132875	0.028382	0.351544
56733	0.423489	-9.617365	-0.190162	-0.167617	0.123248	0.421983
56734	0.374190	-9.759160	-0.060743	-0.195957	0.248267	0.455296
56735	0.085321	-10.148764	-0.606479	-0.121624	0.339656	0.447152
56736	-1.434840	-11.332535	0.634523	-0.057588	0.392011	0.281278
56737	0.460109	-9.578376	0.452661	-0.007419	0.244565	-0.007082
56738	0.162557	-9.754975	0.398513	-0.037736	0.069737	0.022505
56739	-0.029654	-9.965111	0.069052	-0.004749	-0.040336	0.003161
56740	0.077071	-9.822676	0.339282	0.050619	-0.112511	-0.034394
56741	0.026302	-9.762706	0.675024	0.024011	-0.228628	-0.013110
56742	-0.125243	-9.818239	0.695265	0.028026	-0.411283	-0.011556
56743	0.168623	-9.781026	0.012063	0.021528	-0.497445	-0.010517
56744	0.468773	-9.786611	-0.571474	0.017125	-0.345553	-0.004610
56745	0.389706	-9.823578	-0.472512	0.003938	-0.113435	-0.005009
56746	0.264987	-9.782295	-0.219034	-0.001204	0.055617	-0.010908
56747	0.189651	-9.810336	0.011016	-0.005189	0.127450	-0.009997
56748	0.185385	-9.823490	0.116106	-0.008126	0.161027	-0.010811
56749	0.273155	-9.669501	0.563178	-0.008746	0.103223	0.013148
56750	0.003430	-9.958565	0.162408	-0.000315	0.000620	0.009705
56751	0.198745	-9.793297	0.108327	-0.001989	-0.000691	-0.000930
56752	0.168744	-9.799144	0.190642	-0.001454	-0.001119	-0.002631
56753	0.173762	-9.817930	0.205448	0.000872	-0.018487	-0.002751
56754	0.109137	-9.810829	0.355767	0.003908	-0.056120	-0.003644
56755	0.038207	-9.825737	0.480743	0.007876	-0.165415	-0.002968
56756	0.187335	-9.782677	0.126548	0.006084	-0.233257	-0.002749
56757	0.303012	-9.786320	-0.156503	0.007007	-0.184214	0.001615
56758	0.315616	-9.796916	-0.174137	0.001970	-0.074133	0.004246
56759	0.175472	-9.785922	0.086549	0.000217	-0.003990	0.002255
56760	0.138716	-9.813790	0.143504	-0.002176	0.007481	0.002572
56761	0.191654	-9.801470	0.141632	-0.000529	0.000428	0.001701
56762	0.151511	-9.824380	0.125441	-0.004513	-0.000953	-0.000141
56763	0.139774	-9.827629	0.084641	-0.001992	-0.000690	-0.000921
56764	0.160055	-9.816172	0.092714	0.004015	0.003066	-0.004138
56765	0.185200	-9.823497	0.115773	0.001338	0.001022	-0.001379
56766	0.187514	-9.782671	0.126793	0.002304	0.004253	-0.003035
56767	0.167774	-9.794117	0.119054	0.002304	0.004253	-0.003035
56768	0.172872	-9.812897	0.133986	-0.000217	0.003990	-0.002255
56769	0.172879	-9.812896	0.133994	0.000280	0.001877	0.002024
56770	0.192864	-9.801440	0.142066	0.001711	-0.001187	-0.001102
56771	0.150144	-9.796684	0.242683	0.003356	-0.019878	0.002492
56772	0.148586	-9.782852	0.300973	0.000634	-0.075141	0.005646
56773	0.175818	-9.817854	0.207348	0.001584	-0.135051	0.002915
56774	0.197795	-9.802135	-0.021337	0.004325	-0.127104	-0.000026
56775	0.198893	-9.815973	-0.079442	0.000794	-0.061676	-0.000731
56776	0.168836	-9.807947	0.061646	0.002386	0.000166	-0.004787
56777	0.156273	-9.797355	0.079485	-0.000443	0.007971	-0.004520
56778	0.181638	-9.804675	0.102085	-0.002027	0.020880	-0.003895
56779	0.161911	-9.816129	0.093968	-0.003548	0.039652	-0.003506
56780	0.151798	-9.796655	0.242822	0.002023	0.028125	-0.002295
56781	0.161074	-9.802288	0.152173	-0.001336	-0.001021	0.001382
56782	0.148638	-9.823639	0.290191	0.001175	-0.026510	-0.002171
56783	0.126598	-9.807416	0.398759	0.003414	-0.114492	0.002945
56784	0.119212	-9.797514	0.253164	0.007789	-0.214047	-0.000137
56785	0.195276	-9.797170	-0.093605	0.009359	-0.216900	0.000895
56786	0.269788	-9.801074	-0.204518	-0.005660	-0.084779	0.001376
56787	0.195655	-9.815237	0.084465	0.001042	-0.000853	-0.003405
56788	0.206385	-9.784284	0.241116	-0.002227	0.001611	0.002809
56789	0.136278	-9.863457	0.003169	0.007407	0.000691	-0.006379
56790	0.258753	-9.822394	-0.064906	0.025204	0.016729	-0.000713
56791	0.146962	-9.749999	0.349034	0.019470	0.062115	0.004254
56792	0.118795	-9.834086	0.008985	-0.042769	0.065309	-0.009552
56793	0.125249	-9.802385	0.327413	0.001166	0.010857	-0.003901
56794	0.186431	-9.763787	0.114243	0.000295	0.003555	-0.003967
56795	0.171595	-9.794024	0.121254	0.000148	0.001777	-0.001984
56796	0.148651	-9.832458	0.160913	0.001768	0.004671	-0.001354
56797	0.191899	-9.782556	0.129069	-0.003703	0.000494	0.000194
56798	0.169747	-9.834844	0.110427	0.003040	-0.000164	-0.002493
56799	0.132002	-9.816944	0.105676	-0.001848	0.001088	-0.002895
56800	0.157170	-9.824255	0.128265	0.001620	0.002894	0.000630
56801	0.179550	-9.771959	0.147048	0.001855	0.000593	-0.003089
56802	0.157676	-9.824242	0.128646	0.002377	0.000167	-0.004791
56803	0.193245	-9.782523	0.129538	-0.001038	0.002535	-0.002580
56804	0.166227	-9.816036	0.096115	0.000522	-0.000427	-0.001702
56805	0.173610	-9.793982	0.121808	0.001480	0.002798	-0.003370
56806	0.178828	-9.812752	0.136699	0.000522	-0.000427	-0.001702
56807	0.191917	-9.823329	0.119047	0.002143	0.002468	-0.001072
56808	0.174264	-9.793966	0.122107	-0.000890	0.004312	-0.004563
56809	0.159482	-9.824208	0.129018	-0.000663	0.000331	-0.002298
56810	0.166905	-9.802152	0.154613	0.000670	0.001351	-0.003685
56811	0.180175	-9.812724	0.136996	0.002665	0.002041	-0.002774
56812	0.143276	-9.808693	0.074092	-0.001038	0.002535	-0.002580
56813	0.180589	-9.812716	0.136974	-0.001185	0.000757	-0.000597
56814	0.147850	-9.813606	0.146931	0.000817	0.003129	-0.005668
56815	0.181316	-9.812701	0.137118	0.002290	0.004246	-0.003055
56816	0.176490	-9.793922	0.122441	0.000000	0.000000	0.000000
56817	0.169547	-9.815972	0.096882	0.000670	0.001351	-0.003685
56818	0.168997	-9.802107	0.155216	0.002665	0.002041	-0.002773
56819	0.182188	-9.812678	0.137577	0.000147	0.001778	-0.001983
56820	0.149281	-9.813576	0.147480	-0.001560	0.002961	-0.000878
56821	0.190590	-9.804475	0.104980	0.002378	0.000168	-0.004789
56822	0.175769	-9.834718	0.112186	0.002142	0.002468	-0.001071
56823	0.170250	-9.802077	0.155709	0.000818	0.003129	-0.005667
56824	0.196467	-9.823225	0.120177	-0.000375	0.002204	-0.000282
56825	0.178619	-9.793874	0.123194	0.000957	0.003225	-0.001668
56826	0.171788	-9.815923	0.097850	0.003998	0.003063	-0.004159
56827	0.179244	-9.793858	0.123551	-0.001847	0.001087	-0.002895
56828	0.176552	-9.820820	0.170841	0.000236	-0.002300	-0.003718
56829	0.154803	-9.786558	0.101059	0.003850	0.001285	-0.002176
56830	0.177977	-9.834667	0.113182	0.002290	0.004247	-0.003054
56831	0.168295	-9.797120	0.083852	0.003041	-0.000162	-0.002491
56832	0.167723	-9.783245	0.142183	0.000295	0.003556	-0.003966
56833	0.193064	-9.790523	0.164823	0.000147	0.001778	-0.001983
56834	0.156075	-9.786528	0.101935	0.002142	0.002469	-0.001071
56835	0.166177	-9.824062	0.131649	0.000147	0.001778	-0.001983
56836	0.168440	-9.783230	0.142375	-0.001561	0.002961	-0.000878
56837	0.166461	-9.824057	0.131699	0.003850	0.001286	-0.002175
56838	0.163894	-9.764450	0.127914	0.000671	0.001352	-0.003684
56839	0.199891	-9.823134	0.121976	-0.000523	0.000426	0.001701
56840	0.161930	-9.805277	0.117222	0.002289	0.004247	-0.003053
56841	0.212303	-9.819828	0.162527	-0.001038	0.002535	-0.002579
56842	0.164476	-9.764439	0.127973	-0.001185	0.000757	-0.000597
56843	0.187559	-9.812547	0.139696	-0.001038	0.002535	-0.002579
56844	0.185578	-9.853377	0.128840	-0.000376	0.002205	-0.000281
56845	0.190028	-9.771707	0.150604	0.003998	0.003064	-0.004157
56846	0.176163	-9.815827	0.099769	0.003041	-0.000162	-0.002490
56847	0.201418	-9.823095	0.122565	0.000523	-0.000426	-0.001701
56848	0.155512	-9.813437	0.150263	-0.001128	0.006614	-0.000845
56849	0.163675	-9.805244	0.117592	-0.001038	0.002535	-0.002579
56850	0.171937	-9.797046	0.085103	0.002665	0.002043	-0.002771
56851	0.161057	-9.832192	0.165165	-0.000376	0.002205	-0.000281
56852	0.172233	-9.797039	0.085335	0.002665	0.002043	-0.002771
56853	0.164527	-9.805223	0.118114	0.001480	0.002800	-0.003368
56854	0.126874	-9.787374	0.113283	-0.000947	-0.001544	-0.004314
56855	0.190213	-9.812480	0.140826	0.002142	0.002470	-0.001070
56856	0.170276	-9.823971	0.133161	0.000957	0.003226	-0.001667
56857	0.165595	-9.805200	0.118564	0.003189	0.001617	-0.004472
56858	0.165894	-9.805192	0.118771	0.000957	0.003226	-0.001667
56859	0.191114	-9.812453	0.141459	0.000147	0.001778	-0.001982
56860	0.186215	-9.793688	0.126703	0.000809	0.001448	0.000315
56861	0.166392	-9.805181	0.119004	0.001628	0.004578	-0.005350
56862	0.186761	-9.793676	0.126814	-0.001994	-0.000692	-0.000913
56863	0.171927	-9.823935	0.133697	-0.000081	0.005761	-0.004246
56864	0.154246	-9.794596	0.136682	0.000524	-0.000426	-0.001701
56865	0.167454	-9.805162	0.119075	0.002665	0.002044	-0.002770
56866	0.180758	-9.815726	0.101478	0.000671	0.001352	-0.003683
56867	0.180196	-9.801836	0.159666	-0.000138	-0.000096	-0.003998
56868	0.160336	-9.813332	0.152038	0.004136	0.003162	-0.000157
56869	0.181501	-9.815709	0.101779	-0.002655	-0.000362	-0.003210
56870	0.155654	-9.794566	0.137240	0.001241	0.005101	0.000350
56871	0.155909	-9.794561	0.137347	0.000819	0.003131	-0.005665
56872	0.189321	-9.793618	0.127481	0.000524	-0.000426	-0.001701
56873	0.174468	-9.823881	0.134397	-0.001847	0.001087	-0.002895
56874	0.169708	-9.805117	0.119549	0.000956	0.003227	-0.001666
56875	0.182862	-9.815682	0.101887	0.000956	0.003227	-0.001666
56876	0.165128	-9.786348	0.104964	0.001480	0.002801	-0.003367
56877	0.149329	-9.802724	0.170244	0.001333	0.001022	-0.001385
56878	0.190645	-9.793588	0.127844	0.000672	0.001352	-0.003682
56879	0.150819	-9.816600	0.112210	-0.000229	0.003983	-0.002263
56880	0.171181	-9.805086	0.120026	-0.000137	-0.000096	-0.003998
56881	0.171460	-9.805081	0.120044	0.000524	-0.000426	-0.001700
56882	0.171640	-9.805077	0.120078	0.000147	0.001779	-0.001982
56883	0.178916	-9.782996	0.145629	-0.001038	0.002535	-0.002579
56884	0.170015	-9.845909	0.109019	-0.003932	0.004474	-0.002073
56885	0.159250	-9.794506	0.137437	0.001333	0.001022	-0.001385
56886	0.172383	-9.805065	0.120008	0.005413	-0.001672	-0.001293
56887	0.179608	-9.782980	0.145855	-0.000229	0.003984	-0.002263
56888	0.157691	-9.835326	0.127243	0.000147	0.001779	-0.001982
56889	0.177908	-9.823809	0.135151	0.001333	0.001023	-0.001384
56890	0.160055	-9.794481	0.138230	0.001333	0.001023	-0.001384
56891	0.186309	-9.815608	0.102816	0.000672	0.001353	-0.003682
56892	0.178640	-9.823794	0.135271	-0.003032	0.001843	-0.003492
56893	0.142864	-9.765147	0.141163	0.002950	0.003920	-0.000753
56894	0.179001	-9.823783	0.135570	0.003042	-0.000160	-0.002487
56895	0.174112	-9.805025	0.120767	-0.002895	0.001938	0.000506
56896	0.166182	-9.813214	0.153368	0.003474	0.003494	-0.002453
56897	0.174435	-9.805017	0.120941	-0.000661	0.000330	-0.002297
56898	0.154594	-9.816531	0.113082	0.000147	0.001779	-0.001981
56899	0.166896	-9.813200	0.153528	0.000672	0.001353	-0.003681
56900	0.182161	-9.782919	0.146750	0.003326	0.001715	-0.000471
56901	0.195412	-9.793477	0.129121	-0.000890	0.004314	-0.004560
56902	0.155524	-9.816513	0.113424	0.000377	-0.002205	0.000281
56903	0.175764	-9.804989	0.121279	-0.000082	0.005763	-0.004244
56904	0.171133	-9.786228	0.106557	0.001857	0.000597	-0.003084
56905	0.161323	-9.835252	0.128407	-0.000661	0.000330	-0.002297
56906	0.143475	-9.805931	0.131437	0.002518	0.000267	-0.000787
56907	0.148709	-9.824680	0.146352	-0.000513	0.002109	-0.004278
56908	0.184034	-9.782878	0.147173	-0.000377	0.002205	-0.000281
56909	0.182222	-9.823713	0.136341	-0.000890	0.004314	-0.004560
56910	0.144551	-9.805915	0.131466	0.001427	-0.003056	-0.003119
56911	0.195910	-9.834262	0.118595	-0.001846	0.001086	-0.002894
56912	0.165084	-9.794383	0.139301	0.002141	0.002472	-0.001068
56913	0.160279	-9.775624	0.124724	0.002666	0.002046	-0.002768
56914	0.198558	-9.793405	0.129770	0.000147	0.001779	-0.001981
56915	0.178735	-9.804928	0.121890	-0.001038	0.002535	-0.002578
56916	0.178982	-9.804922	0.121991	0.003043	-0.000159	-0.002486
56917	0.179171	-9.804916	0.122206	0.001333	0.001023	-0.001384
56918	0.179380	-9.804913	0.122183	-0.001846	0.001086	-0.002894
56919	0.146608	-9.805876	0.132118	0.002288	0.004251	-0.003049
56920	0.171797	-9.813094	0.154874	-0.000377	0.002205	-0.000281
56921	0.159991	-9.816429	0.114468	0.000295	0.003558	-0.003962
56922	0.162280	-9.775583	0.125324	0.001333	0.001023	-0.001384
56923	0.165443	-9.835168	0.129568	0.002666	0.002047	-0.002767
56924	0.167784	-9.794320	0.140506	0.000672	0.001354	-0.003680
56925	0.153021	-9.824593	0.147706	0.003851	0.001291	-0.002170
56926	0.188282	-9.782775	0.148631	-0.002748	0.003717	-0.001476
56927	0.153446	-9.824587	0.147666	0.000672	0.001354	-0.003680
56928	0.181869	-9.804854	0.123235	0.005184	0.002315	-0.003553
56929	0.182154	-9.804846	0.123459	-0.000660	0.000330	-0.002297
56930	0.154293	-9.824567	0.148157	0.000147	0.001779	-0.001981
56931	0.174604	-9.813026	0.156044	0.000672	0.001354	-0.003680
56932	0.190018	-9.782734	0.149120	0.000295	0.003559	-0.003961
56933	0.163363	-9.816359	0.115697	-0.000135	-0.000095	-0.003996
56934	0.176710	-9.826909	0.098096	0.003043	-0.000158	-0.002485
56935	0.170956	-9.794248	0.141693	0.002288	0.004252	-0.003048
56936	0.184503	-9.804793	0.124118	0.000967	0.004913	-0.007641
56937	0.180003	-9.786035	0.109553	0.003954	0.013011	-0.002661
56938	0.186406	-9.818682	0.066487	0.000553	0.032858	-0.005189
56939	0.144592	-9.813937	0.167259	0.001745	0.047906	-0.003342
56940	0.121449	-9.783729	0.334271	0.006446	-0.020006	0.000044
56941	0.044156	-9.820769	0.435142	0.018305	-0.102379	0.005547
56942	-0.040490	-9.797194	0.696604	0.023162	-0.259011	0.005412
56943	0.099666	-9.835964	0.320336	0.017780	-0.424053	0.011094
56944	0.435258	-9.820742	-0.580315	0.030162	-0.312173	0.007984
56945	0.327847	-9.835688	-0.277957	0.035778	-0.142720	0.012159
56946	0.259734	-9.823791	-0.194013	0.077492	-0.073542	0.020377
56947	0.091672	-9.830717	0.266188	0.092533	-0.020583	0.020803
56948	0.185857	-9.740064	0.351710	-0.002134	-0.002465	0.001092
56949	0.146959	-9.819504	0.104699	0.013891	0.002354	-0.005399
56950	0.167214	-9.793842	0.171170	0.002269	0.004236	-0.003084
56951	0.152988	-9.838178	0.120835	0.008190	0.002145	-0.006093
56952	0.141175	-9.855742	0.024342	0.029672	0.001966	-0.001915
56953	0.138059	-9.965773	-0.107503	0.082296	-0.001693	-0.010443
56954	0.154422	-9.949853	-0.160682	0.163214	-0.001950	-0.011726
56955	0.220945	-9.919677	-0.044996	0.242953	-0.001361	-0.013478
56956	0.188172	-9.891652	0.107511	0.284152	0.003778	-0.002024
56957	0.181553	-9.943025	-0.002676	0.341943	0.003506	0.000002
56958	0.182589	-9.872203	0.159892	0.395557	0.002650	0.010097
56959	0.102471	-9.831864	0.353576	0.407319	-0.002906	0.006705
56960	0.188390	-9.817181	0.380439	0.410976	-0.005596	-0.004593
56961	0.157664	-9.759494	0.498162	0.406330	-0.013773	-0.001810
56962	0.159927	-9.700523	0.602694	0.361834	-0.012122	-0.004999
56963	0.164858	-9.837775	0.355150	0.347383	-0.018010	-0.003248
56964	0.187795	-10.022514	0.052553	0.432005	-0.019490	-0.001349
56965	0.210136	-9.985509	0.060059	0.546898	0.005249	0.005774
56966	0.170481	-9.900049	0.343247	0.634510	0.019850	0.002932
56967	0.210019	-9.856431	0.479842	0.688190	0.027578	0.004241
56968	0.150558	-9.829701	0.594603	0.732093	0.030548	0.011313
56969	0.130437	-9.741347	0.839993	0.760000	0.011922	0.010663
56970	0.139280	-9.751275	1.002783	0.749531	0.002466	0.012104
56971	0.120516	-9.733002	1.019139	0.738335	-0.012651	0.011690
56972	0.165599	-9.756783	1.007305	0.740773	-0.018792	0.011305
56973	0.186899	-9.695089	1.092679	0.745679	-0.004691	0.012145
56974	0.144740	-9.650873	1.320088	0.721588	0.009603	0.008139
56975	0.156228	-9.612928	1.482863	0.667699	0.011054	0.003954
56976	0.150379	-9.586525	1.526901	0.601288	0.011071	0.006995
56977	0.168316	-9.649449	1.471564	0.563705	0.001773	0.003763
56978	0.145931	-9.738433	1.403435	0.568538	-0.001744	0.009633
56979	0.150824	-9.790321	1.366551	0.606777	-0.018877	0.010707
56980	0.130978	-9.685548	1.592344	0.628467	-0.034441	0.019087
56981	0.172619	-9.630940	1.613447	0.623957	-0.040762	0.016806
56982	0.169575	-9.662937	1.668111	0.599105	-0.011387	0.009164
56983	0.156137	-9.639450	1.741693	0.594656	0.003761	0.005948
56984	0.096593	-9.577708	1.895389	0.581464	0.007434	0.009506
56985	0.148073	-9.483624	2.108360	0.533703	0.002098	0.007853
56986	0.119789	-9.511939	2.129353	0.468226	-0.009837	0.009404
56987	0.127170	-9.549073	2.029221	0.430093	-0.019116	0.010974
56988	0.137287	-9.645432	1.942856	0.430911	-0.018701	0.013904
56989	0.131741	-9.670930	1.858691	0.455417	-0.023915	0.010496
56990	0.097713	-9.610528	2.023746	0.500892	-0.040295	0.018127
56991	0.129578	-9.601300	2.062444	0.521515	-0.059177	0.024945
56992	0.141442	-9.629979	2.044206	0.545360	-0.059809	0.020878
56993	0.140350	-9.618376	2.098201	0.578519	-0.064185	0.028503
56994	0.141171	-9.484799	2.317128	0.594931	-0.070806	0.031572
56995	0.150244	-9.474460	2.463066	0.573065	-0.076033	0.033573
56996	0.151177	-9.499177	2.356673	0.543938	-0.077719	0.030929
56997	0.197587	-9.541819	2.224030	0.547728	-0.041049	0.021638
56998	0.141741	-9.445677	2.546210	0.528675	0.005075	0.009998
56999	0.146275	-9.364052	2.771356	0.474811	0.017968	0.006792
57000	0.121921	-9.363910	2.684210	0.414978	0.018457	0.004252
57001	0.105738	-9.436938	2.630904	0.384744	0.028823	0.002099
57002	0.124782	-9.498943	2.513865	0.389407	0.041393	-0.003160
57003	0.111202	-9.530936	2.462239	0.426643	0.056608	-0.006748
57004	0.103100	-9.432440	2.695518	0.463751	0.054704	-0.007060
57005	0.074660	-9.373636	2.873488	0.467485	0.032084	-0.002001
57006	0.086592	-9.346242	2.953896	0.442998	0.010782	0.004977
57007	0.118700	-9.365056	2.932051	0.422120	0.004256	0.007059
57008	0.145530	-9.400566	2.837959	0.418007	0.005600	0.009000
57009	0.111598	-9.386196	2.888292	0.435056	0.009790	0.008349
57010	0.123218	-9.328250	3.018842	0.448679	0.006412	0.009336
57011	0.162500	-9.318841	3.016621	0.444913	-0.000012	0.013105
57012	0.110558	-9.335161	2.960686	0.461893	-0.007162	0.014864
57013	0.147305	-9.367732	2.963415	0.489390	-0.006362	0.017069
57014	0.118099	-9.332515	3.091092	0.507390	-0.000340	0.016833
57015	0.096425	-9.298394	3.185986	0.512937	0.002568	0.014155
57016	0.097571	-9.239836	3.230750	0.511897	0.008833	0.008958
57017	0.121810	-9.254872	3.251029	0.514691	0.004239	0.010355
57018	0.092683	-9.279919	3.280111	0.550014	-0.026220	0.026436
57019	0.050574	-9.254424	3.378489	0.631022	-0.109592	0.059327
57020	0.048890	-9.198814	3.490094	0.704655	-0.192043	0.092489
57021	0.077285	-9.122027	3.521229	0.730328	-0.235661	0.109331
57022	0.115373	-9.136868	3.494132	0.726345	-0.224781	0.104119
57023	0.146502	-9.114650	3.549528	0.719441	-0.180468	0.088932
57024	0.164471	-9.110417	3.567368	0.696935	-0.111987	0.062248
57025	0.117629	-9.065942	3.652515	0.667821	-0.029337	0.029616
57026	0.082636	-8.912773	4.023509	0.620859	0.016562	0.011404
57027	0.073053	-8.918789	4.061582	0.569592	0.022206	0.008713
57028	0.111370	-8.905557	4.066113	0.511545	0.030679	0.002962
57029	0.049743	-8.889630	4.151491	0.476383	0.034051	-0.002135
57030	0.087976	-8.915806	4.100727	0.436297	0.044796	-0.012335
57031	0.080653	-8.959013	4.023051	0.429031	0.046857	-0.014710
57032	0.087811	-8.910847	4.076482	0.446414	0.035645	-0.006665
57033	0.079554	-8.886201	4.150111	0.461031	0.017158	0.005842
57034	0.079019	-8.935501	4.043105	0.475946	0.017329	0.005356
57035	0.096089	-8.906759	4.142958	0.501308	0.029137	0.001990
57036	0.063635	-8.770309	4.337604	0.493737	0.043281	-0.001864
57037	0.073852	-8.696137	4.514761	0.449411	0.040996	-0.007508
57038	0.064832	-8.707523	4.538700	0.409094	0.029252	-0.002029
57039	0.085490	-8.710153	4.474548	0.393543	0.016046	0.004841
57040	0.050985	-8.726843	4.471859	0.375949	0.007267	0.009128
57041	0.063790	-8.762515	4.392979	0.382023	0.003229	0.012454
57042	0.094834	-8.787759	4.371656	0.404565	-0.002290	0.014280
57043	0.048386	-8.747484	4.429698	0.434081	-0.003704	0.015256
57044	0.043443	-8.694045	4.622527	0.443261	0.000807	0.018154
57045	0.036972	-8.663860	4.638673	0.427591	-0.002006	0.011732
57046	0.056448	-8.630570	4.676799	0.424530	-0.002188	0.010366
57047	0.047616	-8.642117	4.700884	0.417871	0.004274	0.010820
57048	0.041331	-8.612733	4.715099	0.416251	0.010484	0.006307
57049	0.074568	-8.635714	4.642455	0.428657	0.010376	0.006506
57050	0.060427	-8.636995	4.647017	0.458354	0.009312	0.007808
57051	0.056237	-8.604419	4.611945	0.501263	0.010587	0.006664
57052	0.052327	-8.620837	4.667781	0.554790	0.008166	0.011631
57053	0.058527	-8.561569	4.729780	0.622613	0.005452	0.019984
57054	0.036227	-8.421737	4.968838	0.652155	-0.003811	0.018439
57055	0.016910	-8.328557	5.239996	0.630778	-0.023153	0.026547
57056	0.038907	-8.242347	5.279805	0.589833	-0.054177	0.048493
57057	0.063360	-8.333107	5.167229	0.571680	-0.072894	0.058380
57058	0.068569	-8.356326	5.138464	0.536925	-0.009061	0.023090
57059	0.064507	-8.241975	5.375057	0.488419	0.018966	0.007261
57060	0.019114	-8.237231	5.336410	0.453034	0.013959	0.007074
57061	0.022384	-8.264118	5.353494	0.438661	0.011395	0.005260
57062	0.037557	-8.264042	5.271454	0.447428	0.011577	0.011521
57063	0.041463	-8.247862	5.331646	0.466497	0.006853	0.007685
57064	0.043090	-8.182619	5.357255	0.472545	0.010950	0.008759
57065	0.026658	-8.178191	5.418843	0.481858	0.010394	0.007448
57066	0.025427	-8.151858	5.458384	0.486602	0.009384	0.009530
57067	0.043931	-8.020889	5.633220	0.472174	0.011136	0.008181
57068	0.003711	-7.978093	5.841357	0.417546	0.009642	0.008034
57069	0.017623	-7.935248	5.848358	0.334761	0.007671	0.011865
57070	0.004705	-7.990577	5.747305	0.294691	0.004605	0.007120
57071	0.055332	-8.012525	5.588917	0.277060	-0.001327	0.010179
57072	0.005010	-8.100187	5.564301	0.299346	0.003431	0.009063
57073	0.037491	-8.044050	5.620056	0.320263	0.007449	0.009436
57074	0.009469	-7.982503	5.717740	0.325559	0.011839	0.005365
57075	0.025079	-7.993199	5.626920	0.337155	0.014502	-0.000040
57076	0.016256	-8.006071	5.646858	0.363015	0.025738	-0.007338
57077	0.032182	-7.915526	5.823349	0.369744	0.035409	-0.012393
57078	-0.008941	-7.875897	5.892514	0.357735	0.037130	-0.014639
57079	0.071008	-7.846413	5.879014	0.359249	0.017887	-0.003682
57080	-0.004151	-7.891629	5.878941	0.361286	0.012054	0.004552
57081	0.005030	-7.843836	5.860902	0.366980	0.009168	0.003645
57082	0.022335	-7.801993	5.943288	0.375188	0.010131	0.005094
57083	0.024988	-7.733603	6.087377	0.360453	0.011240	0.003222
57084	0.004458	-7.680175	6.152709	0.320264	0.008868	0.001858
57085	-0.000615	-7.754530	6.023308	0.297935	0.007727	0.006022
57086	0.014595	-7.816507	5.893239	0.315350	0.013931	0.001129
57087	0.023225	-7.817705	5.834540	0.356899	0.018508	-0.003100
57088	0.019865	-7.787291	5.918804	0.418447	0.019595	0.004006
57089	0.021982	-7.712501	6.067133	0.453690	0.015347	0.005575
57090	0.043119	-7.678819	6.048116	0.484210	0.009740	0.012992
57091	0.008597	-7.642314	6.095012	0.512109	0.003758	0.020967
57092	-0.022481	-7.553498	6.257128	0.530315	-0.005978	0.028007
57093	0.036250	-7.411601	6.513012	0.507270	-0.018132	0.034457
57094	-0.003525	-7.415852	6.498141	0.464440	-0.029529	0.039195
57095	-0.000915	-7.453623	6.387949	0.430747	-0.026985	0.038015
57096	-0.043660	-7.501113	6.386888	0.414605	-0.012158	0.026953
57097	-0.034755	-7.451780	6.369120	0.402826	0.010309	0.009219
57098	-0.016457	-7.460749	6.362387	0.411762	0.019978	0.001176
57099	-0.054102	-7.480954	6.290648	0.442801	0.030859	-0.012840
57100	-0.031066	-7.384234	6.434747	0.471396	0.052043	-0.030933
57101	0.027999	-7.237133	6.682119	0.466521	0.047882	-0.023483
57102	0.032321	-7.162550	6.772508	0.432540	0.026333	-0.005901
57103	0.012178	-7.207800	6.716856	0.405504	0.002820	0.015429
57104	0.018300	-7.196936	6.715623	0.388230	-0.008112	0.023171
57105	-0.028733	-7.193656	6.723578	0.372711	-0.006656	0.022270
57106	-0.048100	-7.193914	6.699122	0.368818	0.001586	0.016008
57107	-0.017909	-7.115317	6.803002	0.339897	0.011885	0.001112
57108	-0.039422	-7.106175	6.828496	0.315792	0.023864	-0.004620
57109	-0.023613	-7.130717	6.737921	0.290821	0.034355	-0.019039
57110	-0.036776	-7.090652	6.764743	0.298194	0.042258	-0.032155
57111	-0.020138	-7.094048	6.803961	0.306904	0.037017	-0.020856
57112	-0.028965	-7.078375	6.726116	0.324374	0.027433	-0.009641
57113	-0.014917	-7.066411	6.820625	0.344194	0.019661	-0.006130
57114	-0.009468	-6.922897	7.062279	0.331627	0.015003	0.002146
57115	-0.048104	-6.867303	7.196813	0.273005	0.006918	0.005739
57116	-0.028491	-6.837411	7.210249	0.191378	0.002634	0.007554
57117	-0.044833	-6.866562	7.118097	0.127601	0.001776	0.007989
57118	-0.066613	-6.946710	6.967045	0.094242	0.006949	-0.002101
57119	-0.004528	-7.015405	6.849630	0.101940	0.013410	-0.008071
57120	-0.027881	-7.031237	6.783992	0.132807	0.013216	-0.008664
57121	-0.013502	-7.054675	6.737227	0.188404	0.016906	-0.007686
57122	-0.024033	-7.033421	6.705557	0.257665	0.016891	-0.009796
57123	-0.016387	-6.955216	6.857217	0.314152	0.011958	-0.003804
57124	0.034382	-6.861141	6.953766	0.350708	-0.005235	0.014962
57125	-0.018732	-6.764526	7.148863	0.367599	-0.024026	0.032817
57126	-0.016085	-6.676094	7.279907	0.337858	-0.030683	0.042192
57127	0.000317	-6.727992	7.288388	0.278868	-0.039281	0.045512
57128	-0.056892	-6.805868	7.081250	0.246172	-0.037957	0.046405
57129	-0.081763	-6.916686	6.963777	0.251056	-0.024822	0.028481
57130	-0.071662	-6.879764	6.931960	0.287877	-0.005559	0.009983
57131	-0.052702	-6.750210	7.160421	0.310370	0.003515	0.000960
57132	-0.052100	-6.676810	7.211002	0.296400	0.007677	-0.009394
57133	-0.042022	-6.660951	7.277501	0.272169	0.011706	-0.012229
57134	-0.028971	-6.610552	7.320241	0.252984	0.013501	-0.014515
57135	-0.024002	-6.595521	7.359562	0.217695	0.012091	-0.012238
57136	-0.041893	-6.587500	7.226279	0.206279	0.007902	-0.005609
57137	-0.027919	-6.660833	7.154478	0.224758	-0.000325	-0.000290
57138	-0.041051	-6.674796	7.145772	0.265045	-0.003079	0.005942
57139	-0.088628	-6.609898	7.228296	0.295848	-0.002444	0.000982
57140	-0.054888	-6.512711	7.396567	0.283299	0.016267	-0.013684
57141	-0.004420	-6.492030	7.552751	0.226003	0.021395	-0.027520
57142	-0.071371	-6.360067	7.788771	0.172236	0.011433	-0.015510
57143	0.020017	-6.369395	7.574009	0.009324	0.002778	-0.007433
57144	0.001265	-6.483332	7.369988	0.012242	0.000005	-0.001524
57145	-0.070241	-6.569794	7.304644	0.022019	-0.003385	-0.007639
57146	-0.271564	-6.901999	7.076359	0.092620	-0.034068	-0.031911
57147	-0.194122	-6.734603	7.232910	0.189468	-0.072750	-0.069125
57148	-0.003802	-6.516102	7.348175	0.220400	-0.086199	-0.079960
57149	0.000755	-6.428218	7.418915	0.222516	-0.086005	-0.073841
57150	0.044805	-6.419766	7.425291	0.210460	-0.090217	-0.072074
57151	0.022558	-6.448960	7.418233	0.216489	-0.095452	-0.060093
57152	0.046459	-6.453352	7.428316	0.220065	-0.109445	-0.058722
57153	0.045708	-6.416352	7.446349	0.219751	-0.103053	-0.059941
57154	0.077481	-6.334851	7.483874	0.197907	-0.080580	-0.066491
57155	0.165981	-6.251273	7.531734	0.161494	-0.063183	-0.057496
57156	0.171371	-6.222440	7.591928	0.121127	-0.049097	-0.045487
57157	0.170979	-6.266479	7.546668	0.080994	-0.028074	-0.032554
57158	0.095157	-6.331452	7.514755	0.058296	-0.018571	-0.017670
57159	0.097750	-6.327259	7.518252	0.052790	-0.019154	-0.019447
57160	0.092608	-6.357211	7.521353	0.044804	-0.017820	-0.019749
57161	0.077063	-6.384893	7.476788	0.050545	-0.020770	-0.020338
57162	0.091066	-6.330059	7.555369	0.057775	-0.022952	-0.022374
57163	0.108935	-6.311807	7.531075	0.049428	-0.018875	-0.017768
57164	0.072881	-6.352610	7.490406	0.045753	-0.016078	-0.019896
57165	0.016900	-6.405771	7.454292	0.069066	-0.025250	-0.021152
57166	0.077120	-6.377287	7.522838	0.084037	-0.031537	-0.032654
57167	0.175810	-6.233208	7.563350	0.078954	-0.028483	-0.027162
57168	0.197222	-6.197041	7.614514	0.042821	-0.017546	-0.016956
57169	0.167320	-6.259118	7.545157	0.010632	-0.002400	-0.003685
57170	0.152357	-6.273057	7.573029	-0.006313	0.003879	0.001860
57171	0.144186	-6.254551	7.599704	-0.020992	0.011808	0.008308
57172	0.169888	-6.263597	7.566198	-0.045798	0.020204	0.011013
57173	0.113621	-6.326190	7.547176	-0.057633	0.028864	0.017098
57174	0.071759	-6.374995	7.500038	-0.055991	0.026273	0.021972
57175	0.058320	-6.376638	7.449154	-0.046767	0.022924	0.011054
57176	0.053762	-6.414181	7.470736	-0.027566	0.018280	0.006407
57177	0.027149	-6.427308	7.449754	-0.004820	0.004651	0.000415
57178	0.045883	-6.395169	7.497888	0.024441	-0.006861	-0.012656
57179	0.159408	-6.277356	7.555015	0.020475	-0.005704	-0.009731
57180	0.231626	-6.134152	7.645890	-0.020125	0.012523	0.001987
57181	0.210441	-6.169632	7.595180	-0.086222	0.048880	0.017396
57182	0.170355	-6.277205	7.540649	-0.148290	0.088364	0.021091
57183	0.090307	-6.326256	7.494299	-0.177495	0.112827	0.016437
57184	0.118565	-6.348822	7.499039	-0.190228	0.127597	0.007686
57185	0.062724	-6.335414	7.498058	-0.202252	0.133868	0.012819
57186	0.064606	-6.371021	7.481566	-0.198481	0.117448	0.026686
57187	0.016272	-6.429200	7.425112	-0.182236	0.097535	0.036618
57188	-0.025968	-6.487036	7.393578	-0.156427	0.077790	0.042848
57189	-0.028844	-6.551736	7.379997	-0.127827	0.053307	0.042614
57190	-0.001687	-6.514826	7.393413	-0.096934	0.044272	0.031701
57191	-0.070084	-6.576215	7.322876	-0.071103	0.033833	0.026379
57192	-0.093244	-6.593059	7.322896	-0.032992	0.012730	0.007410
57193	-0.022725	-6.505587	7.387361	-0.001959	0.005398	0.000098
57194	0.051161	-6.381968	7.429413	-0.005704	0.003006	0.000617
57195	0.047643	-6.418251	7.451779	-0.024461	0.010425	0.006433
57196	0.012875	-6.465534	7.429007	-0.033353	0.015468	0.012354
57197	-0.027094	-6.511528	7.382111	-0.032060	0.014443	0.007262
57198	-0.028535	-6.565796	7.352306	-0.011972	0.006950	0.002524
57199	-0.008054	-6.500181	7.377177	0.010014	-0.001550	-0.002422
57200	0.030808	-6.403578	7.450693	0.000879	0.000738	-0.006331
57201	0.086211	-6.363773	7.415802	-0.024667	0.013997	0.008857
57202	0.027854	-6.459840	7.419191	-0.048902	0.020880	0.012883
57203	-0.045897	-6.551762	7.350428	-0.040939	0.019505	0.013195
57204	-0.072909	-6.565318	7.328107	-0.016334	0.009899	0.004230
57205	-0.027359	-6.488654	7.373179	0.004312	0.001457	-0.001803
57206	0.010990	-6.445087	7.418127	-0.002099	-0.000788	-0.003448
57207	0.056139	-6.421573	7.434319	-0.024343	0.015686	0.003824
57208	0.021393	-6.416525	7.439580	-0.042419	0.018756	0.014645
57209	-0.024558	-6.514129	7.339574	-0.043389	0.021468	0.014704
57210	0.008505	-6.509001	7.405019	-0.039784	0.017674	0.010638
57211	0.006687	-6.459493	7.430860	-0.042653	0.021392	0.010907
57212	0.007063	-6.427799	7.404595	-0.053218	0.023900	0.014628
57213	0.049098	-6.460646	7.389074	-0.074558	0.032480	0.024496
57214	0.042152	-6.449685	7.435372	-0.094433	0.040899	0.026759
57215	-0.026960	-6.512083	7.362866	-0.116604	0.057479	0.034109
57216	-0.258385	-6.918273	7.076501	-0.022888	0.019987	-0.003831
57217	-0.028605	-6.483011	7.334260	-0.007830	0.006659	-0.002907
57218	-0.026875	-6.520421	7.380842	-0.001625	0.007100	-0.004915
57219	-0.004009	-6.524617	7.325696	-0.001464	0.007943	-0.007434
57220	-0.035013	-6.554029	7.380033	0.004581	0.007541	-0.006922
57221	-0.062233	-6.528043	7.312769	0.001811	0.002451	-0.006478
57222	-0.052291	-6.531370	7.360580	0.001762	0.006855	-0.006564
57223	-0.031820	-6.518243	7.357392	0.000727	-0.000089	-0.003810
57224	-0.021079	-6.501613	7.306552	0.003141	0.002373	-0.005397
57225	-0.051807	-6.530912	7.360989	0.003141	0.002373	-0.005397
57226	-0.016062	-6.555316	7.302100	0.003547	0.000598	-0.004168
57227	-0.018469	-6.537881	7.354150	0.005037	0.001364	-0.005607
57228	-0.022940	-6.483411	7.359280	0.002980	0.001531	-0.002877
57229	-0.043479	-6.548868	7.333866	-0.001820	0.005315	-0.008577
57230	-0.025666	-6.518674	7.382390	0.002574	0.003306	-0.004106
57231	-0.030617	-6.516796	7.358679	0.001762	0.006857	-0.006563
57232	-0.035596	-6.515092	7.334815	-0.002141	0.003629	-0.003538
57233	-0.005589	-6.557957	7.350519	0.001652	0.001609	-0.003957
57234	-0.030584	-6.516746	7.358724	0.000678	0.004316	-0.003896
57235	-0.050998	-6.529731	7.362044	0.001084	0.002541	-0.002667
57236	-0.030714	-6.516401	7.359028	0.006563	0.003074	-0.000863
57237	-0.023181	-6.534951	7.331377	0.001491	0.000766	-0.001438
57238	-0.035489	-6.514406	7.335424	-0.001930	0.000067	-0.005971
57239	-0.022575	-6.534771	7.331540	0.007342	-0.001419	-0.004586
57240	-0.067814	-6.506446	7.343151	-0.000406	0.001775	-0.001229
57241	-0.030076	-6.515716	7.359638	-0.000812	0.003551	-0.002457
57242	-0.017731	-6.536358	7.355505	-0.001379	0.004483	-0.001167
57243	-0.043249	-6.547782	7.334837	-0.000973	0.002707	0.000062
57244	-0.035417	-6.514248	7.335565	-0.001168	0.000922	-0.003600
57245	-0.043164	-6.547851	7.334777	0.001491	0.000766	-0.001438
57246	-0.022811	-6.534655	7.331643	0.002414	0.002464	-0.001586
57247	-0.038242	-6.549209	7.358946	0.003387	-0.000243	-0.001647
57248	-0.027346	-6.479981	7.336942	0.004472	0.002299	-0.004314
57249	-0.042930	-6.547041	7.335501	0.000162	0.000844	-0.002519
57250	-0.033131	-6.550439	7.383228	0.000517	0.003473	-0.001376
57251	-0.009939	-6.502054	7.356913	-0.000406	0.001776	-0.001229
57252	-0.035168	-6.513235	7.336466	0.004878	0.000524	-0.003085
57253	-0.022489	-6.533555	7.332623	0.001653	0.001610	-0.003957
57254	-0.022408	-6.585559	7.304338	0.010975	-0.004279	-0.002483
57255	-0.176222	-6.739765	7.176752	0.036071	-0.010456	-0.012842
57256	-0.258442	-6.836858	7.143099	0.131652	-0.054102	-0.048294
57257	-0.152718	-6.724565	7.242084	0.219173	-0.087256	-0.075426
57258	-0.002860	-6.476028	7.394650	0.252044	-0.098080	-0.092598
57259	0.187263	-6.200972	7.538507	0.203942	-0.081365	-0.074615
57260	0.248502	-6.097005	7.692548	0.108466	-0.040535	-0.035558
57261	0.266301	-6.078574	7.668223	-0.008949	0.004058	-0.000271
57262	0.174462	-6.202595	7.551184	-0.101801	0.048873	0.032051
57263	0.055750	-6.379935	7.456311	-0.149230	0.061822	0.052368
57264	0.029569	-6.474865	7.369650	-0.165445	0.067418	0.056752
57265	-0.027382	-6.546526	7.365309	-0.156674	0.066076	0.053337
57266	-0.035407	-6.557598	7.355418	-0.144631	0.059232	0.050881
57267	-0.085428	-6.556834	7.306010	-0.129465	0.054734	0.043010
57268	-0.191294	-6.805203	7.176904	-0.102936	0.044154	0.033870
57269	-0.164724	-6.760688	7.172335	0.042252	-0.010947	-0.021019
57270	0.000339	-6.410923	7.390800	0.033096	-0.011980	-0.009958
57271	0.015931	-6.466837	7.435126	0.011141	-0.003430	-0.004998
57272	0.001155	-6.513907	7.335222	-0.001381	0.004482	-0.001169
57273	-0.009578	-6.530479	7.386083	-0.002304	0.002783	-0.001021
57274	-0.022258	-6.510095	7.389967	-0.002304	0.002783	-0.001021
57275	-0.039923	-6.488268	7.369782	-0.008919	0.004109	-0.000248
57276	0.012635	-6.483743	7.358283	-0.019705	0.010170	0.005891
57277	-0.067342	-6.554954	7.317992	-0.028864	0.016902	0.001898
57278	-0.055378	-6.576356	7.313183	0.005722	0.005689	-0.009496
57279	-0.075479	-6.536811	7.345249	-0.001703	0.010568	-0.011180
57280	-0.034890	-6.510743	7.338679	-0.000099	0.016588	-0.015221
57281	-0.025294	-6.514175	7.386361	-0.000779	0.012269	-0.011326
57282	-0.042946	-6.544468	7.337796	-0.000890	0.007019	-0.008722
57283	-0.039993	-6.509112	7.314760	0.001931	0.007710	-0.009076
57284	-0.009936	-6.551745	7.330687	0.002337	0.005934	-0.007848
57285	-0.030133	-6.512029	7.362900	0.006485	0.006549	-0.007121
57286	-0.034866	-6.509963	7.339371	0.003717	0.001451	-0.006680
57287	-0.014348	-6.496546	7.336425	0.005399	0.004005	-0.004456
57288	-0.032522	-6.546195	7.386994	0.006702	0.002989	-0.009552
57289	-0.071897	-6.604058	7.266984	0.019417	-0.003133	-0.009715
57290	-0.090483	-6.614555	7.272605	0.052178	-0.017716	-0.020791
57291	-0.069704	-6.579650	7.325288	0.074729	-0.027157	-0.027011
57292	-0.007203	-6.517288	7.372425	0.084626	-0.034873	-0.032971
57293	-0.015357	-6.490314	7.382095	0.089912	-0.030725	-0.028713
57294	0.001395	-6.504489	7.383724	0.082554	-0.030235	-0.030294
57295	0.005897	-6.445943	7.417389	0.078235	-0.032618	-0.034655
57296	0.022585	-6.460996	7.418202	0.069533	-0.025769	-0.025077
57297	0.020802	-6.402391	7.426549	0.049443	-0.018281	-0.020357
57298	-0.002265	-6.463581	7.380333	0.032577	-0.011877	-0.014767
57299	-0.038395	-6.504747	7.337683	0.036735	-0.011239	-0.014038
57300	-0.013625	-6.525180	7.384263	0.048542	-0.019952	-0.020185
57301	0.037254	-6.408866	7.409565	0.052483	-0.015742	-0.017038
57302	0.049130	-6.356295	7.487990	0.024059	-0.009559	-0.013788
57303	0.090215	-6.329377	7.481750	-0.006185	0.009166	-0.000737
57304	0.063705	-6.395294	7.431696	-0.036079	0.015525	0.010115
57305	0.021119	-6.477245	7.407604	-0.045019	0.019596	0.009847
57306	-0.044030	-6.535487	7.339742	-0.032575	0.020552	0.005860
57307	-0.025170	-6.524121	7.334796	-0.015284	0.012400	0.001518
57308	-0.040895	-6.539264	7.361579	0.001568	0.005061	-0.010229
57309	-0.014990	-6.526888	7.382751	0.019368	0.000378	-0.015959
57310	-0.023605	-6.521985	7.336701	0.031872	-0.003072	-0.019844
57311	-0.029199	-6.552807	7.338707	0.045587	-0.012779	-0.026188
57312	-0.008940	-6.465538	7.418653	0.060029	-0.016257	-0.024097
57313	0.026876	-6.468606	7.415131	0.056457	-0.017808	-0.026097
57314	0.057526	-6.417916	7.415556	0.048113	-0.013715	-0.021482
57315	0.014111	-6.386839	7.429441	0.037101	-0.009496	-0.019036
57316	0.058474	-6.394793	7.471842	0.024526	-0.001655	-0.015266
57317	0.016638	-6.488585	7.376383	0.015412	0.001557	-0.013027
57318	-0.015046	-6.479664	7.385031	0.026574	-0.002765	-0.024147
57319	-0.008713	-6.426349	7.438736	0.026444	0.006044	-0.024367
57320	0.038192	-6.452103	7.429445	0.030583	0.005736	-0.029801
57321	0.006666	-6.442676	7.438518	0.025030	0.009562	-0.031719
57322	0.010514	-6.405807	7.416596	0.023216	0.007119	-0.025241
57323	0.016714	-6.458152	7.413983	0.026459	0.006068	-0.024354
57324	0.063404	-6.431292	7.432595	0.024211	0.004431	-0.025277
57325	0.051901	-6.409193	7.437777	0.018241	0.010018	-0.028438
57326	0.044895	-6.388974	7.466382	0.010543	0.018393	-0.027760
57327	0.072838	-6.394961	7.435226	-0.012185	0.031136	-0.027907
57328	0.014126	-6.453363	7.393087	-0.016479	0.039299	-0.028860
57329	-0.031425	-6.531615	7.347676	0.005843	0.036074	-0.045005
57330	-0.025511	-6.531591	7.372783	0.032238	0.028270	-0.057779
57331	0.054733	-6.457836	7.413352	0.051246	0.013143	-0.057097
57332	0.019542	-6.445118	7.400263	0.059967	-0.004676	-0.036571
57333	0.015293	-6.474013	7.404127	0.069926	-0.021015	-0.033544
57334	0.011526	-6.449151	7.436707	0.083484	-0.027061	-0.037405
57335	0.084015	-6.369472	7.431936	0.083507	-0.027025	-0.037384
57336	0.097966	-6.366127	7.484650	0.072976	-0.019369	-0.036363
57337	0.056186	-6.386374	7.472001	0.060602	-0.015145	-0.035034
57338	0.046970	-6.414379	7.451758	0.059288	-0.005426	-0.038874
57339	0.042725	-6.443408	7.455614	0.066202	-0.001533	-0.050910
57340	-0.008385	-6.460744	7.395920	0.085523	-0.011449	-0.061469
57341	0.047058	-6.429287	7.442865	0.108867	-0.020529	-0.062609
57342	0.013474	-6.500082	7.430030	0.128321	-0.033816	-0.066845
57343	0.028418	-6.455733	7.439287	0.156554	-0.048420	-0.074485
57344	0.056830	-6.376745	7.473880	0.179243	-0.058223	-0.077897
57345	0.086619	-6.349492	7.481999	0.191879	-0.066575	-0.078933
57346	0.141216	-6.256222	7.537664	0.188091	-0.069674	-0.075788
57347	0.140621	-6.257645	7.600323	0.172566	-0.058187	-0.071858
57348	0.157007	-6.264347	7.583405	0.163207	-0.051394	-0.067249
57349	0.139835	-6.264638	7.573276	0.156827	-0.044039	-0.071663
57350	0.141539	-6.339837	7.556611	0.157336	-0.046656	-0.076465
57351	0.087962	-6.385415	7.503759	0.177721	-0.058795	-0.078176
57352	0.135183	-6.325054	7.559256	0.207528	-0.072089	-0.078391
57353	0.171910	-6.208305	7.594382	0.212237	-0.078092	-0.073573
57354	0.190057	-6.212116	7.580067	0.205996	-0.074086	-0.071667
57355	0.185393	-6.210207	7.620641	0.207596	-0.078283	-0.070274
57356	0.242568	-6.133528	7.624430	0.209992	-0.076370	-0.069254
57357	0.217558	-6.144782	7.669034	0.204484	-0.071487	-0.065031
57358	0.623499	-5.495652	8.052940	0.165342	-0.060057	-0.051236
57359	0.207268	-6.117941	7.740110	-0.004625	0.002003	0.004115
57360	0.225490	-6.177888	7.635174	0.001186	-0.001853	-0.002505
57361	0.223042	-6.157777	7.686334	0.009132	0.001404	-0.002327
57362	0.234393	-6.250549	7.583241	0.013325	0.002166	-0.001602
57363	0.247259	-6.268401	7.582206	0.053590	0.006130	-0.002604
57364	0.252952	-6.175690	7.611191	0.078287	0.006241	-0.002889
57365	0.215390	-6.176817	7.699258	0.083971	0.002638	-0.000850
57366	0.231397	-6.122385	7.651585	0.089254	0.006997	0.003288
57367	0.190054	-6.088681	7.691044	0.082069	0.003634	-0.000651
57368	0.228894	-6.143417	7.687029	0.086570	0.001898	0.003896
57369	0.230102	-6.102554	7.667449	0.091698	0.004422	0.004450
57370	0.214830	-6.108710	7.701472	0.102188	0.000689	0.005989
57371	0.215185	-6.154465	7.682502	0.113757	0.000542	0.010926
57372	0.249256	-6.118233	7.657575	0.129974	-0.001590	0.011774
57373	0.226688	-6.154829	7.695640	0.149539	0.001598	0.016915
57374	0.225807	-6.142617	7.705418	0.168358	0.001768	0.007522
57375	0.231806	-6.095142	7.714854	0.187093	0.008485	0.010127
57376	0.222055	-6.005867	7.778175	0.190195	0.009133	0.001212
57377	0.195884	-6.004643	7.770010	0.185647	0.011285	0.005371
57378	0.212177	-5.956708	7.826829	0.173095	0.009023	0.003233
57379	0.206042	-5.943553	7.813107	0.166854	0.008485	0.005242
57380	0.221655	-5.842562	7.893248	0.150967	0.007095	0.002139
57381	0.197515	-5.812338	7.855740	0.107074	0.008158	0.001805
57382	0.204889	-5.967982	7.811298	0.085558	0.005863	-0.003172
57383	0.208817	-6.090428	7.717609	0.108202	0.010748	-0.000890
57384	0.227140	-6.154810	7.722548	0.159760	0.009787	0.001247
57385	0.215810	-6.140963	7.686424	0.216244	0.013962	0.000143
57386	0.210895	-6.046314	7.775849	0.270277	0.020144	0.000492
57387	0.204774	-5.893789	7.891076	0.286618	0.017666	0.004135
57388	0.212728	-5.858989	7.855631	0.286406	0.019709	0.003005
57389	0.205063	-5.924449	7.851429	0.302038	0.016347	0.004372
57390	0.190247	-5.879354	7.872199	0.323389	0.024196	0.001947
57391	0.213517	-5.839101	7.910932	0.344122	0.021642	0.000388
57392	0.210528	-5.756335	7.954596	0.354930	0.024137	0.008127
57393	0.208210	-5.728229	7.974921	0.351192	0.024531	0.005093
57394	0.193073	-5.679564	7.997036	0.353192	0.021456	0.004245
57395	0.183213	-5.630119	8.042461	0.341358	0.019571	0.007081
57396	0.193249	-5.568511	8.081872	0.324013	0.018647	0.011555
57397	0.172279	-5.611577	8.082096	0.306859	0.008914	0.016698
57398	0.185524	-5.575181	8.070329	0.303136	0.005994	0.020015
57399	0.229869	-5.578869	8.078931	0.303080	0.004937	0.025310
57400	0.175113	-5.559680	8.107683	0.307752	0.001872	0.026651
57401	0.171857	-5.615128	8.030579	0.321785	0.001711	0.031872
57402	0.200896	-5.627743	8.070445	0.351493	0.003285	0.035602
57403	0.177772	-5.555269	8.117483	0.381129	0.002993	0.035882
57404	0.181716	-5.434133	8.156052	0.397959	0.001296	0.039959
57405	0.163709	-5.356954	8.227349	0.390874	-0.001245	0.044957
57406	0.157184	-5.189314	8.337193	0.358097	-0.002523	0.045764
57407	0.168071	-5.182208	8.353429	0.309530	-0.017469	0.066507
57408	0.176852	-5.205684	8.295172	0.272361	-0.036109	0.085371
57409	0.161051	-5.251080	8.317866	0.250350	-0.041988	0.097928
57410	0.182728	-5.299415	8.256873	0.244278	-0.038140	0.088294
57411	0.173945	-5.312333	8.274802	0.255840	-0.029049	0.076654
57412	0.161377	-5.238891	8.260858	0.269551	-0.023780	0.071461
57413	0.177642	-5.234931	8.298017	0.272897	-0.021905	0.068722
57414	0.163396	-5.247895	8.293748	0.280464	-0.016085	0.060247
57415	0.194957	-5.288518	8.283498	0.304557	-0.017338	0.058725
57416	0.142291	-5.292131	8.264686	0.342186	-0.007738	0.057472
57417	0.152387	-5.226556	8.301933	0.374883	-0.004470	0.053679
57418	0.159867	-5.075554	8.406458	0.392110	-0.005204	0.055350
57419	0.124515	-5.034523	8.432398	0.386878	-0.000723	0.050665
57420	0.129618	-4.968878	8.445942	0.382196	0.001246	0.038743
57421	0.124995	-4.910614	8.511835	0.361554	0.012035	0.030611
57422	0.135434	-4.844591	8.546601	0.336906	0.009229	0.020635
57423	0.146175	-4.837985	8.562112	0.304701	0.019487	0.011968
57424	0.139251	-4.873567	8.535147	0.276450	0.017104	0.000797
57425	0.145257	-4.874319	8.524974	0.270939	0.021148	-0.004116
57426	0.146046	-4.935718	8.474276	0.279697	0.025836	-0.006365
57427	0.156653	-4.874772	8.505615	0.295236	0.032012	-0.012993
57428	0.147304	-4.881932	8.527017	0.313110	0.033667	-0.021635
57429	0.140199	-4.915275	8.502740	0.335984	0.038059	-0.015953
57430	0.157840	-4.872737	8.513905	0.375793	0.031659	-0.002334
57431	0.119703	-4.744904	8.601437	0.405591	0.020298	0.015239
57432	0.069067	-4.652409	8.672048	0.396778	0.017024	0.021697
57433	0.152537	-4.623093	8.672535	0.397566	0.026496	0.007010
57434	0.041185	-4.510495	8.776060	0.358556	0.029388	-0.005644
57435	0.142756	-4.564660	8.682169	0.324877	0.038258	-0.027108
57436	0.145857	-4.709248	8.575546	0.356097	0.033341	-0.002864
57437	0.130644	-4.770321	8.563542	0.436753	0.025267	0.020462
57438	0.114387	-4.708878	8.584985	0.512459	0.024518	0.037029
57439	0.132892	-4.557577	8.687119	0.577877	0.023787	0.046973
57440	0.082489	-4.295953	8.859693	0.589173	0.019425	0.065565
57441	0.078278	-4.245147	8.884185	0.557479	0.003312	0.084467
57442	0.117397	-4.319141	8.822414	0.560908	-0.001160	0.098471
57443	0.075139	-4.265018	8.828767	0.577155	-0.010426	0.122765
57444	0.106518	-4.186235	8.916352	0.590529	-0.014425	0.128859
57445	0.079476	-4.181856	8.880278	0.594557	-0.024836	0.147858
57446	0.000275	-3.994033	8.992530	0.593277	-0.012453	0.121655
57447	0.042210	-3.913911	9.023925	0.552074	0.021589	0.047790
57448	0.047911	-3.982400	8.968960	0.532193	0.032529	0.017228
57449	0.046199	-4.025047	8.935682	0.550491	0.035502	0.015563
57450	0.080115	-3.977636	8.976692	0.586884	0.041181	0.016624
57451	0.050624	-3.882400	8.994945	0.608534	0.040838	0.018227
57452	0.059357	-3.729804	9.041154	0.621165	0.039874	0.024139
57453	0.067556	-3.621351	9.176080	0.612721	0.036389	0.048930
57454	0.074877	-3.660264	9.092387	0.603590	0.018654	0.074023
57455	0.092063	-3.745101	9.047081	0.637365	0.013965	0.097953
57456	0.102112	-3.680745	9.041103	0.692758	0.011662	0.118584
57457	0.054212	-3.543899	9.133142	0.741550	0.004139	0.144627
57458	0.029530	-3.366468	9.182790	0.782112	-0.007252	0.183476
57459	0.016043	-3.324333	9.221332	0.818449	-0.016925	0.212261
57460	-0.013992	-3.206901	9.240410	0.829653	-0.021142	0.220214
57461	-0.077591	-3.119316	9.354611	0.801270	0.006430	0.171884
57462	-0.061317	-2.977412	9.375491	0.732894	0.016515	0.100778
57463	-0.040761	-3.048073	9.359715	0.688231	0.036095	0.049646
57464	-0.023341	-3.010513	9.331641	0.680289	0.048218	0.014969
57465	-0.002666	-2.928349	9.365801	0.683023	0.049755	0.012122
57466	-0.033288	-2.882637	9.371903	0.688309	0.051276	0.004155
57467	-0.060186	-2.911570	9.299070	0.698771	0.059299	-0.009249
57468	-0.077649	-3.235583	9.181882	0.761289	0.083417	-0.074048
57469	-0.048657	-2.614480	9.436023	0.826002	0.093432	-0.114333
57470	-0.005677	-2.118994	9.704601	0.787870	0.075959	-0.059183
57471	-0.078872	-1.988016	9.764450	0.679589	0.053471	-0.013964
57472	-0.094542	-2.163715	9.690874	0.580242	0.044093	0.010544
57473	-0.037830	-2.327255	9.538536	0.536621	0.039388	0.009608
57474	-0.057925	-2.364287	9.484779	0.546641	0.038306	0.013509
57475	-0.082446	-2.321102	9.506833	0.566844	0.039052	0.015858
57476	-0.061013	-2.247070	9.532585	0.579242	0.039564	0.015637
57477	-0.095125	-2.131335	9.606680	0.574107	0.040890	0.012280
57478	-0.071409	-2.097056	9.594412	0.569830	0.037361	0.014171
57479	-0.083736	-2.071936	9.622094	0.567490	0.041215	0.011392
57480	-0.069531	-1.966960	9.660640	0.570965	0.037776	0.016049
57481	-0.079708	-1.822258	9.684344	0.555674	0.037735	0.021784
57482	-0.061424	-1.608402	9.775472	0.514400	0.028173	0.051532
57483	-0.034909	-1.622754	9.724071	0.474549	0.016318	0.111789
57484	-0.101577	-1.758353	9.670459	0.457833	0.004937	0.145311
57485	-0.131505	-1.793823	9.669501	0.453181	0.005312	0.145730
57486	-0.128293	-1.678830	9.695613	0.458791	0.009218	0.137594
57487	-0.107716	-1.573404	9.749389	0.432783	0.005223	0.148994
57488	-0.120368	-1.554538	9.713685	0.408372	-0.002488	0.160241
57489	-0.126053	-1.634505	9.727720	0.397324	0.001869	0.149852
57490	-0.133958	-1.607225	9.713062	0.392323	0.010757	0.122480
57491	-0.114458	-1.501076	9.705102	0.384184	0.011588	0.115831
57492	-0.098654	-1.514460	9.705684	0.388009	0.013479	0.121136
57493	-0.136416	-1.524193	9.718250	0.404909	0.014920	0.121925
57494	-0.158331	-1.433307	9.729073	0.410765	0.017975	0.098059
57495	-0.168077	-1.362364	9.747417	0.398749	0.018029	0.079592
57496	-0.171023	-1.323698	9.752691	0.391874	0.022448	0.065133
57497	-0.181234	-1.356741	9.742858	0.391206	0.021803	0.048651
57498	-0.169879	-1.278767	9.750394	0.390317	0.022555	0.027711
57499	-0.145939	-1.118040	9.792361	0.376696	0.024817	0.016152
57500	-0.171515	-1.149605	9.812830	0.358133	0.024758	0.020922
57501	-0.180464	-1.123418	9.736594	0.354154	0.020162	0.021349
57502	-0.160617	-1.084422	9.790098	0.344393	0.021120	0.020874
57503	-0.171980	-1.078439	9.812518	0.339912	0.025312	0.008950
57504	-0.151181	-0.978260	9.798657	0.329268	0.018141	0.004553
57505	-0.134682	-0.998020	9.799125	0.314298	0.021470	0.004181
57506	-0.146985	-0.992099	9.761522	0.316535	0.020103	-0.000208
57507	-0.137205	-0.980155	9.773641	0.325064	0.021019	0.002959
57508	-0.180102	-0.860646	9.820403	0.318623	0.021168	0.004166
57509	-0.157840	-0.765397	9.864292	0.292142	0.019271	0.007473
57510	-0.178653	-0.790783	9.845359	0.259716	0.013208	-0.000157
57511	-0.159700	-0.904875	9.723805	0.258332	0.015537	0.004454
57512	-0.182235	-0.886477	9.736405	0.279634	0.019876	0.007170
57513	-0.193950	-0.736533	9.811200	0.289693	0.016899	0.010495
57514	-0.169654	-0.688271	9.822984	0.272319	0.013908	0.005331
57515	-0.191964	-0.670266	9.835005	0.250485	0.016924	0.002964
57516	-0.164346	-0.716047	9.785367	0.238499	0.011134	0.009778
57517	-0.172439	-0.660232	9.797429	0.242892	0.016147	0.012433
57518	-0.184517	-0.618338	9.849115	0.229714	0.012370	0.015741
57519	-0.161469	-0.574643	9.800241	0.229606	0.018209	0.032451
57520	-0.131561	-0.667654	9.780755	0.238631	0.013851	0.056286
57521	-0.211101	-0.705323	9.754012	0.265280	0.017232	0.051829
57522	-0.201432	-0.697192	9.765702	0.289845	0.019330	0.029011
57523	-0.194484	-0.641329	9.747439	0.311857	0.020841	0.018322
57524	-0.186566	-0.582809	9.788848	0.335405	0.023672	0.016692
57525	-0.181684	-0.477210	9.799615	0.344307	0.029771	0.006045
57526	-0.235649	-0.334531	9.889962	0.320730	0.024490	-0.006862
57527	-0.232872	-0.291404	9.910445	0.275919	0.023180	-0.025755
57528	-0.216400	-0.317674	9.911905	0.232866	0.016798	-0.039999
57529	-0.183450	-0.400582	9.794860	0.228268	0.020319	-0.037525
57530	-0.209558	-0.444736	9.758071	0.248724	0.020650	-0.037126
57531	-0.246175	-0.465942	9.771123	0.282775	0.017741	-0.046378
57532	-0.214155	-0.343245	9.788807	0.315172	0.011407	-0.044923
57533	-0.183659	-0.275898	9.818031	0.344292	-0.001594	-0.022191
57534	-0.178585	-0.227609	9.838254	0.353685	0.001587	-0.011464
57535	-0.210873	-0.077206	9.854501	0.329984	0.006266	-0.012334
57536	-0.236091	-0.064851	9.905840	0.297632	0.001999	-0.025353
57537	-0.224661	-0.055554	9.916656	0.265911	0.004991	-0.039948
57538	-0.241955	-0.026372	9.886872	0.239796	0.005814	-0.057300
57539	-0.258212	0.003021	9.916714	0.209838	0.003797	-0.067182
57540	-0.221849	0.021773	9.876165	0.179232	0.000447	-0.079348
57541	-0.201143	0.044975	9.865389	0.152113	0.000607	-0.076445
57542	-0.189454	0.040606	9.876176	0.135037	0.001310	-0.062050
57543	-0.240164	-0.145420	9.759024	0.137300	-0.001502	-0.047120
57544	-0.209418	-0.199692	9.772994	0.178438	-0.000598	-0.061035
57545	-0.177514	-0.090081	9.727176	0.215597	-0.001603	-0.059622
57546	-0.245461	-0.051766	9.827335	0.248458	-0.003277	-0.059627
57547	-0.247744	0.016732	9.794563	0.264242	-0.010722	-0.073749
57548	-0.152300	0.213140	9.920733	0.251644	-0.006856	-0.084467
57549	-0.142739	0.475854	9.982455	0.190359	-0.001237	-0.057547
57550	-0.166431	0.421104	9.947316	0.104581	0.000287	-0.028829
57551	-0.198949	0.333431	9.934666	0.033982	0.001312	-0.020117
57552	-0.143328	0.177261	9.885610	-0.002183	0.002571	-0.002637
57553	-0.202578	0.056327	9.805699	-0.001521	0.003981	-0.000445
57554	-0.207673	0.042721	9.786890	0.025667	0.000116	0.001195
57555	-0.204345	0.217499	9.903705	0.015056	0.001506	0.007669
57556	-0.229065	0.144718	9.809710	0.008985	0.003660	0.000750
57557	-0.191879	0.149060	9.828804	0.006359	0.003740	0.000451
57558	-0.212523	0.142597	9.839658	0.003104	-0.005639	0.001293
57559	-0.196603	0.134952	9.810006	0.001488	0.004069	-0.002885
57560	-0.184926	0.117110	9.821180	0.004653	0.000753	-0.001193
57561	-0.217742	0.128566	9.820850	0.000444	0.002491	-0.002339
57562	-0.318698	0.046613	9.848766	0.008494	-0.014923	-0.002442
57563	-0.177063	0.134025	9.839996	0.020691	-0.036404	-0.001794
57564	-0.098736	0.196367	9.804122	0.013807	-0.012766	-0.001441
57565	-0.199455	0.114868	9.832114	0.004148	-0.004063	0.000748
57566	-0.294286	0.048301	9.878944	0.016159	-0.032519	0.000210
57567	-0.255440	0.097661	9.864868	0.035789	-0.056751	0.004117
57568	-0.178164	0.147133	9.810184	0.038639	-0.071715	0.003857
57569	-0.099758	0.201132	9.814983	0.034736	-0.058370	0.004713
57570	-0.042089	0.199303	9.804287	0.015609	-0.029318	-0.001144
57571	-0.037334	0.210050	9.763416	-0.004245	0.009800	-0.004498
57572	-0.122558	0.181359	9.807151	-0.017229	0.039032	-0.003053
57573	-0.219203	0.122146	9.813310	-0.021441	0.040766	-0.004190
57574	-0.243393	0.113599	9.824164	-0.011469	0.029885	-0.009495
57575	-0.223676	0.124214	9.872830	-0.006810	0.012200	-0.004394
57576	-0.138256	0.161516	9.788339	-0.005006	0.014110	-0.010418
57577	-0.210729	0.115136	9.843115	-0.006307	0.017013	-0.006338
57578	-0.293704	0.087523	9.886713	0.008111	-0.015103	0.000313
57579	-0.221741	0.077003	9.846484	0.025437	-0.041413	0.000795
57580	-0.182877	0.126333	9.832296	0.026230	-0.049147	-0.001323
57581	-0.049524	0.185056	9.785515	0.022328	-0.035787	-0.000487
57582	-0.022008	0.208029	9.793313	0.002564	-0.002408	-0.000095
57583	0.071707	0.274553	9.746255	-0.023198	0.059620	-0.004085
57584	-0.099851	0.167841	9.807346	-0.049846	0.102834	-0.008442
57585	-0.260116	0.099653	9.864727	-0.049135	0.106516	-0.005793
57586	-0.505348	-0.009744	9.946518	-0.021397	0.043037	-0.003743
57587	-0.663278	-0.097421	10.025919	0.036452	-0.061027	-0.002167
57588	-0.675448	-0.111869	10.019011	0.109050	-0.207535	0.006412
57589	-0.318940	0.064821	9.931347	0.162007	-0.317505	0.008980
57590	0.068949	0.424963	9.786149	0.171014	-0.330631	0.056397
57591	0.179021	0.352160	9.770333	0.150109	-0.293717	0.120542
57592	0.982141	0.884965	9.293320	0.047907	-0.098907	0.139895
57593	-0.088055	0.007329	9.877409	-0.036754	0.094157	0.134371
57594	-0.425985	-0.055322	9.921769	-0.014908	0.031723	0.065213
57595	-0.394463	-0.018183	9.947896	0.023631	-0.042366	-0.000188
57596	0.250435	0.352308	9.698854	0.024923	-0.053391	-0.000828
57597	-0.061929	0.188619	9.821613	-0.015527	0.037589	-0.002448
57598	-0.257420	0.102888	9.944410	0.014042	-0.015073	-0.004489
57599	0.210523	0.340523	9.721093	0.013164	-0.020070	0.000251
57600	-0.219412	0.103048	9.903489	-0.008662	0.016129	-0.002222
57601	0.060729	0.278458	9.780650	0.006618	-0.008867	0.000314
57602	-0.169846	0.141592	9.858807	-0.000998	0.008841	-0.002474
57603	0.034427	0.257244	9.773190	0.004646	0.000729	-0.001215
57604	-0.148086	0.153785	9.907193	0.001413	0.001741	-0.003312
57605	-0.033006	0.222454	9.788065	0.000439	0.002497	-0.002369
57606	-0.083100	0.184202	9.832731	0.002019	0.000823	-0.001509
57607	-0.086564	0.227404	9.799218	0.002698	0.002241	0.000671
57608	-0.057510	0.206302	9.840171	0.001341	-0.000594	-0.003690
57609	-0.104067	0.177960	9.843885	0.000439	0.002497	-0.002369
57610	-0.047447	0.183376	9.791768	0.000974	-0.000756	-0.000943
57611	-0.099018	0.193062	9.862496	0.001413	0.001741	-0.003312
57612	-0.069809	0.224602	9.828993	-0.002993	-0.000068	0.002452
57613	-0.083861	0.184893	9.832712	0.004478	0.004143	-0.005386
57614	-0.083956	0.185107	9.832707	-0.000071	-0.002335	-0.000377
57615	-0.058134	0.206782	9.840157	0.000071	0.002335	0.000377
57616	-0.070359	0.224929	9.828982	0.000806	0.002658	-0.005115
57617	-0.063796	0.192011	9.821535	0.001413	0.001741	-0.003312
57618	-0.051987	0.174026	9.832706	0.001045	0.001579	-0.000566
57619	-0.084799	0.185444	9.832693	0.000439	0.002496	-0.002368
57620	-0.059231	0.207164	9.840143	0.000439	0.002496	-0.002368
57621	-0.071296	0.225336	9.828966	0.000974	-0.000756	-0.000943
57622	-0.085300	0.185802	9.832682	0.004110	0.003981	-0.002639
57623	-0.047752	0.189550	9.851306	-0.000607	0.000917	-0.001803
57624	-0.097610	0.204143	9.821498	0.002019	0.000823	-0.001508
57625	-0.080618	0.201082	9.851286	0.000439	0.002496	-0.002368
57626	-0.118609	0.197703	9.832650	0.003671	0.001485	-0.000271
57627	-0.086155	0.186463	9.832662	-0.001581	0.001673	-0.000860
57628	-0.081031	0.201372	9.851277	0.001342	-0.000595	-0.003689
57629	-0.093108	0.219558	9.840096	0.000438	0.002496	-0.002368
57630	-0.057187	0.218275	9.799154	0.002019	0.000823	-0.001508
57631	-0.065995	0.193645	9.821489	0.002697	0.002241	0.000672
57632	-0.081649	0.202010	9.851259	0.001413	0.001740	-0.003311
57633	-0.054232	0.175910	9.832660	0.001949	-0.001512	-0.001886
57634	-0.061084	0.209050	9.840091	0.000438	0.002496	-0.002368
57635	-0.037378	0.172895	9.862450	0.000438	0.002496	-0.002368
57636	-0.049607	0.191036	9.851268	0.000438	0.002496	-0.002368
