// General information: 
//  MT Manager version: 2019.2.0 
//  XDA version: 2019.2.0 build 3853 rev 94535 built on 2019-09-09
// Device information: 
//  DeviceId: 00B44058
//  ProductCode: MTW2-3A7G6
//  Firmware Version: 4.3.5
//  Hardware Version: 1.1.0
// Device settings: 
//  Filter Profile: human(46.1)
//  Option Flags: Orientation Smoother Disabled, AHS Disabled, ICC Disabled
// Coordinate system: ENU
PacketCounter	Acc_X	Acc_Y	Acc_Z	Gyr_X	Gyr_Y	Gyr_Z	Mat[1][1]	Mat[2][1]	Mat[3][1]	Mat[1][2]	Mat[2][2]	Mat[3][2]	Mat[1][3]	Mat[2][3]	Mat[3][3]
02267	9.390173	-0.011880	2.637969	-0.001289	0.002608	0.004960	-0.236734	-0.127657	0.963151	0.467167	-0.884166	-0.002362	0.851887	0.449393	0.268949
02268	9.393702	-0.021019	2.615653	-0.003603	0.003312	0.006826	-0.236735	-0.127665	0.963150	0.467155	-0.884172	-0.002373	0.851894	0.449378	0.268954
02269	9.393618	-0.021696	2.615947	-0.002446	0.002959	0.005893	-0.236740	-0.127664	0.963149	0.467150	-0.884175	-0.002371	0.851895	0.449374	0.268958
02270	9.410713	-0.049411	2.629058	-0.001738	0.000834	0.007436	-0.236724	-0.127668	0.963153	0.467156	-0.884172	-0.002381	0.851896	0.449379	0.268945
02271	9.393541	-0.023075	2.616212	-0.002702	0.001025	0.006202	-0.236711	-0.127661	0.963157	0.467150	-0.884175	-0.002383	0.851903	0.449374	0.268930
02272	9.397071	-0.032258	2.593887	-0.001226	0.004701	0.006820	-0.236726	-0.127677	0.963151	0.467158	-0.884171	-0.002388	0.851894	0.449378	0.268952
02273	9.416698	-0.028971	2.622321	-0.003410	0.003150	0.004659	-0.236739	-0.127666	0.963149	0.467142	-0.884179	-0.002376	0.851900	0.449365	0.268958
02274	9.389654	-0.016509	2.639792	0.000702	0.004318	0.009289	-0.236739	-0.127699	0.963145	0.467172	-0.884163	-0.002397	0.851883	0.449387	0.268974
02275	9.393219	-0.025741	2.617342	-0.001801	-0.001261	0.005577	-0.236710	-0.127676	0.963155	0.467172	-0.884163	-0.002390	0.851891	0.449394	0.268937
02276	9.379778	-0.031656	2.670075	-0.003409	0.003150	0.004659	-0.236721	-0.127668	0.963153	0.467158	-0.884171	-0.002382	0.851896	0.449381	0.268943
02277	9.426267	-0.017498	2.593108	-0.000131	0.002254	0.004027	-0.236729	-0.127647	0.963154	0.467169	-0.884165	-0.002356	0.851888	0.449398	0.268940
02278	9.410155	-0.054225	2.630960	-0.003153	0.005083	0.004351	-0.236761	-0.127639	0.963147	0.467154	-0.884173	-0.002338	0.851887	0.449384	0.268965
02279	9.399146	-0.005453	2.610866	-0.002896	0.001184	0.008370	-0.236739	-0.127652	0.963151	0.467151	-0.884174	-0.002361	0.851895	0.449378	0.268952
02280	9.416246	-0.033304	2.623892	-0.001738	0.000832	0.007437	-0.236721	-0.127655	0.963155	0.467156	-0.884172	-0.002370	0.851897	0.449382	0.268937
02281	9.369478	-0.024706	2.613289	-0.000969	0.006633	0.006513	-0.236755	-0.127676	0.963144	0.467166	-0.884167	-0.002371	0.851882	0.449386	0.268977
02282	9.412433	-0.026080	2.647205	-0.003666	0.001215	0.004967	-0.236753	-0.127661	0.963146	0.467149	-0.884175	-0.002363	0.851892	0.449373	0.268968
02283	9.392711	-0.030608	2.619113	0.000126	-0.001646	0.008046	-0.236709	-0.127659	0.963157	0.467171	-0.884164	-0.002375	0.851892	0.449397	0.268928
02284	9.389057	-0.022713	2.641868	-0.003152	0.005083	0.004352	-0.236737	-0.127652	0.963151	0.467157	-0.884171	-0.002360	0.851892	0.449384	0.268949
02285	9.382741	-0.045656	2.649672	-0.000324	0.002413	0.006196	-0.236736	-0.127651	0.963152	0.467171	-0.884164	-0.002355	0.851885	0.449399	0.268948
02286	9.392520	-0.032438	2.619777	-0.001738	0.000831	0.007437	-0.236715	-0.127653	0.963157	0.467176	-0.884161	-0.002366	0.851888	0.449404	0.268931
02287	9.392470	-0.033165	2.619945	-0.001482	0.002764	0.007129	-0.236712	-0.127663	0.963156	0.467183	-0.884158	-0.002373	0.851885	0.449408	0.268933
02288	9.385181	-0.016690	2.665394	-0.002252	0.002797	0.003727	-0.236730	-0.127643	0.963154	0.467175	-0.884162	-0.002349	0.851884	0.449406	0.268939
02289	9.392376	-0.034408	2.620267	-0.000068	-0.001488	0.010214	-0.236677	-0.127660	0.963165	0.467201	-0.884148	-0.002383	0.851884	0.449428	0.268901
02290	9.421876	-0.017302	2.618483	-0.005079	0.005467	0.001883	-0.236723	-0.127637	0.963157	0.467165	-0.884167	-0.002350	0.851891	0.449397	0.268931
02291	9.368830	-0.030961	2.615546	-0.001161	0.006789	0.008682	-0.236748	-0.127678	0.963145	0.467178	-0.884160	-0.002372	0.851877	0.449399	0.268972
02292	9.398279	-0.013925	2.613954	-0.003666	0.001214	0.004968	-0.236742	-0.127663	0.963149	0.467162	-0.884169	-0.002366	0.851888	0.449386	0.268959
02293	9.411719	-0.033110	2.649666	-0.001482	0.002762	0.007130	-0.236740	-0.127672	0.963148	0.467168	-0.884165	-0.002374	0.851885	0.449390	0.268961
02294	9.394545	-0.006755	2.636995	-0.001482	0.002762	0.007130	-0.236737	-0.127679	0.963148	0.467174	-0.884162	-0.002379	0.851882	0.449395	0.268963
02295	9.378358	-0.019781	2.586590	-0.002445	0.002955	0.005895	-0.236743	-0.127678	0.963147	0.467170	-0.884164	-0.002377	0.851883	0.449390	0.268967
02296	9.418704	-0.052030	2.605274	-0.002251	0.002796	0.003727	-0.236759	-0.127658	0.963145	0.467162	-0.884169	-0.002353	0.851883	0.449388	0.268972
02297	9.397928	-0.017006	2.615199	-0.001482	0.002761	0.007130	-0.236757	-0.127667	0.963144	0.467169	-0.884165	-0.002360	0.851880	0.449392	0.268974
02298	9.391615	-0.040218	2.622910	-0.001676	0.002920	0.009298	-0.236749	-0.127700	0.963142	0.467180	-0.884159	-0.002391	0.851876	0.449394	0.268983
02299	9.414884	-0.045632	2.628589	-0.003666	0.001214	0.004968	-0.236744	-0.127683	0.963146	0.467163	-0.884168	-0.002383	0.851887	0.449381	0.268970
02300	9.397721	-0.019223	2.615928	-0.000260	0.004501	0.008058	-0.236752	-0.127706	0.963141	0.467181	-0.884158	-0.002394	0.851875	0.449394	0.268988
02301	9.414730	-0.047007	2.629117	-0.002703	0.001020	0.006203	-0.236739	-0.127699	0.963145	0.467175	-0.884162	-0.002396	0.851881	0.449390	0.268974
02302	9.374304	-0.015938	2.610760	0.000381	0.000282	0.007740	-0.236714	-0.127700	0.963151	0.467198	-0.884149	-0.002402	0.851876	0.449414	0.268952
02303	9.397580	-0.021344	2.616416	-0.003602	0.003305	0.006829	-0.236718	-0.127709	0.963149	0.467186	-0.884156	-0.002412	0.851881	0.449399	0.268959
02304	9.418209	-0.057677	2.606943	-0.001739	0.000826	0.007438	-0.236698	-0.127714	0.963153	0.467192	-0.884153	-0.002424	0.851884	0.449403	0.268944
02305	9.366924	-0.000860	2.656531	0.001285	0.003831	0.002789	-0.236725	-0.127689	0.963149	0.467212	-0.884142	-0.002382	0.851865	0.449431	0.268956
02306	9.420719	-0.027650	2.622554	-0.003666	0.001213	0.004968	-0.236719	-0.127670	0.963153	0.467194	-0.884151	-0.002373	0.851876	0.449418	0.268943
02307	9.394642	-0.054489	2.602302	-0.003086	0.007171	0.006214	-0.236759	-0.127691	0.963141	0.467185	-0.884156	-0.002376	0.851870	0.449402	0.268987
02308	9.423145	0.001937	2.638481	-0.001740	0.000825	0.007438	-0.236740	-0.127696	0.963145	0.467191	-0.884153	-0.002388	0.851873	0.449407	0.268972
02309	9.397157	-0.024924	2.617903	-0.001546	0.000667	0.005270	-0.236728	-0.127679	0.963150	0.467192	-0.884152	-0.002378	0.851875	0.449414	0.268954
02310	9.426711	-0.007814	2.616035	-0.002703	0.001019	0.006203	-0.236718	-0.127673	0.963153	0.467187	-0.884155	-0.002379	0.851881	0.449409	0.268943
02311	9.397080	-0.026155	2.618168	-0.002445	0.002952	0.005896	-0.236723	-0.127672	0.963152	0.467182	-0.884158	-0.002377	0.851882	0.449405	0.268947
02312	9.397004	-0.026818	2.618435	-0.001481	0.002758	0.007131	-0.236720	-0.127684	0.963151	0.467190	-0.884154	-0.002387	0.851879	0.449409	0.268950
02313	9.416670	-0.023625	2.646684	-0.001546	0.000667	0.005270	-0.236709	-0.127667	0.963156	0.467191	-0.884153	-0.002376	0.851881	0.449416	0.268932
02314	9.383436	-0.009464	2.583323	-0.001223	0.004691	0.006824	-0.236725	-0.127678	0.963151	0.467198	-0.884149	-0.002376	0.851873	0.449420	0.268951
02315	9.433574	-0.051944	2.660142	-0.003666	0.001212	0.004968	-0.236720	-0.127661	0.963154	0.467181	-0.884158	-0.002369	0.851883	0.449407	0.268939
02316	9.396788	-0.029199	2.619186	0.000575	0.000121	0.005572	-0.236703	-0.127641	0.963161	0.467201	-0.884148	-0.002353	0.851877	0.449433	0.268914
02317	9.403012	-0.007368	2.611896	-0.002444	0.002951	0.005896	-0.236708	-0.127640	0.963160	0.467196	-0.884150	-0.002351	0.851878	0.449428	0.268918
02318	9.384131	-0.075169	2.634474	-0.002444	0.002951	0.005896	-0.236712	-0.127639	0.963159	0.467192	-0.884153	-0.002349	0.851880	0.449424	0.268922
02319	9.399249	-0.000094	2.635047	-0.002444	0.002950	0.005896	-0.236717	-0.127638	0.963158	0.467187	-0.884155	-0.002347	0.851881	0.449420	0.268926
02320	9.392898	-0.023211	2.642764	-0.002639	0.003107	0.008065	-0.236712	-0.127656	0.963157	0.467186	-0.884156	-0.002366	0.851883	0.449413	0.268929
02321	9.416135	-0.028687	2.648534	-0.001481	0.002756	0.007132	-0.236709	-0.127665	0.963156	0.467193	-0.884152	-0.002374	0.851880	0.449418	0.268931
02322	9.373043	-0.028475	2.615178	0.000639	0.002209	0.007434	-0.236701	-0.127678	0.963157	0.467219	-0.884138	-0.002382	0.851868	0.449442	0.268930
02323	9.419610	-0.038486	2.626398	-0.001287	0.002598	0.004963	-0.236707	-0.127667	0.963157	0.467223	-0.884137	-0.002368	0.851864	0.449448	0.268931
02324	9.402495	-0.012046	2.613738	-0.002638	0.003106	0.008065	-0.236702	-0.127686	0.963156	0.467221	-0.884137	-0.002388	0.851867	0.449442	0.268934
02325	9.399746	-0.043566	2.598847	-0.002250	0.002793	0.003728	-0.236715	-0.127665	0.963155	0.467213	-0.884141	-0.002364	0.851867	0.449439	0.268937
02326	9.396063	-0.035616	2.621704	-0.001481	0.002754	0.007132	-0.236715	-0.127676	0.963154	0.467220	-0.884138	-0.002372	0.851863	0.449444	0.268942
02327	9.415692	-0.032488	2.650068	-0.002444	0.002949	0.005897	-0.236720	-0.127675	0.963152	0.467216	-0.884140	-0.002370	0.851864	0.449439	0.268946
02328	9.395939	-0.036902	2.622131	-0.000583	0.000470	0.006506	-0.236701	-0.127669	0.963158	0.467229	-0.884133	-0.002371	0.851862	0.449455	0.268926
02329	9.378816	-0.010423	2.609536	-0.000962	0.006620	0.006519	-0.236734	-0.127690	0.963147	0.467239	-0.884128	-0.002371	0.851848	0.449459	0.268965
02330	9.432449	-0.061429	2.663924	-0.001287	0.002597	0.004964	-0.236742	-0.127681	0.963146	0.467242	-0.884126	-0.002357	0.851844	0.449465	0.268967
02331	9.378627	-0.011490	2.610212	-0.001287	0.002597	0.004964	-0.236748	-0.127670	0.963146	0.467246	-0.884124	-0.002343	0.851840	0.449471	0.268968
02332	9.435110	-0.007619	2.591337	-0.000584	0.000469	0.006506	-0.236729	-0.127662	0.963152	0.467258	-0.884118	-0.002342	0.851839	0.449486	0.268947
02333	9.399172	-0.048343	2.600838	-0.001481	0.002753	0.007133	-0.236726	-0.127672	0.963151	0.467265	-0.884114	-0.002349	0.851836	0.449491	0.268949
02334	9.398170	-0.009600	2.638874	-0.002444	0.002948	0.005897	-0.236728	-0.127670	0.963151	0.467261	-0.884117	-0.002349	0.851838	0.449487	0.268950
02335	9.418747	-0.045804	2.629374	-0.001547	0.000664	0.005271	-0.236716	-0.127654	0.963156	0.467262	-0.884116	-0.002338	0.851840	0.449493	0.268932
02336	9.378375	-0.014578	2.611103	-0.001481	0.002752	0.007133	-0.236717	-0.127663	0.963155	0.467269	-0.884112	-0.002344	0.851836	0.449497	0.268937
02337	9.418578	-0.046894	2.629961	-0.000572	0.006306	0.002182	-0.236768	-0.127644	0.963145	0.467272	-0.884111	-0.002302	0.851821	0.449505	0.268974
02338	9.375477	-0.046510	2.596669	0.000184	0.000428	0.009911	-0.236731	-0.127668	0.963151	0.467299	-0.884096	-0.002333	0.851816	0.449527	0.268952
02339	9.394268	-0.004079	2.662503	-0.001807	-0.001270	0.005577	-0.236701	-0.127646	0.963161	0.467300	-0.884096	-0.002326	0.851824	0.449534	0.268916
02340	9.424760	-0.026500	2.622935	-0.005721	0.003845	0.006528	-0.236714	-0.127653	0.963157	0.467268	-0.884113	-0.002337	0.851837	0.449499	0.268930
02341	9.374448	-0.009150	2.634822	-0.001286	0.002595	0.004964	-0.236720	-0.127642	0.963157	0.467271	-0.884111	-0.002323	0.851834	0.449506	0.268931
02342	9.441604	-0.054867	2.636417	-0.001481	0.002751	0.007133	-0.236716	-0.127654	0.963156	0.467279	-0.884107	-0.002333	0.851831	0.449510	0.268932
02343	9.371628	-0.041328	2.620072	-0.002704	0.001014	0.006204	-0.236703	-0.127647	0.963160	0.467273	-0.884110	-0.002335	0.851838	0.449506	0.268917
02344	9.430806	-0.006674	2.616432	-0.002444	0.002946	0.005898	-0.236709	-0.127648	0.963159	0.467269	-0.884112	-0.002334	0.851838	0.449502	0.268923
02345	9.391171	-0.038741	2.648712	-0.001026	0.004528	0.004658	-0.236733	-0.127643	0.963153	0.467274	-0.884110	-0.002317	0.851829	0.449508	0.268942
02346	9.397377	-0.016955	2.641660	-0.003601	0.003297	0.006831	-0.236740	-0.127654	0.963150	0.467262	-0.884116	-0.002328	0.851834	0.449493	0.268953
02347	9.424214	-0.030826	2.624848	-0.001286	0.002594	0.004965	-0.236746	-0.127644	0.963150	0.467265	-0.884114	-0.002314	0.851830	0.449499	0.268954
02348	9.400834	-0.026639	2.619598	-0.002444	0.002945	0.005898	-0.236753	-0.127642	0.963149	0.467261	-0.884117	-0.002310	0.851831	0.449494	0.268960
02349	9.381086	-0.031030	2.591675	-0.002704	0.001013	0.006204	-0.236741	-0.127635	0.963153	0.467255	-0.884120	-0.002312	0.851837	0.449490	0.268945
02350	9.420426	-0.024099	2.648062	-0.001286	0.002594	0.004965	-0.236747	-0.127624	0.963153	0.467258	-0.884118	-0.002298	0.851834	0.449497	0.268945
02351	9.400658	-0.028412	2.620213	-0.002443	0.002945	0.005898	-0.236752	-0.127623	0.963152	0.467253	-0.884121	-0.002296	0.851835	0.449492	0.268949
02352	9.377303	-0.024189	2.614879	-0.002510	0.000857	0.004036	-0.236750	-0.127597	0.963156	0.467244	-0.884126	-0.002275	0.851841	0.449490	0.268935
02353	9.396999	-0.021053	2.642976	-0.002003	-0.001117	0.007747	-0.236712	-0.127594	0.963165	0.467247	-0.884124	-0.002290	0.851849	0.449494	0.268900
02354	9.423862	-0.035041	2.626057	-0.001220	0.004681	0.006828	-0.236727	-0.127609	0.963160	0.467256	-0.884119	-0.002294	0.851841	0.449499	0.268921
02355	9.377104	-0.026285	2.615569	-0.001154	0.006768	0.008691	-0.236751	-0.127650	0.963148	0.467269	-0.884112	-0.002316	0.851827	0.449501	0.268962
02356	9.423602	-0.036510	2.626971	-0.003667	0.001208	0.004969	-0.236747	-0.127632	0.963152	0.467251	-0.884122	-0.002307	0.851838	0.449488	0.268949
02357	9.403861	-0.040830	2.599026	-0.000324	0.002396	0.006201	-0.236745	-0.127631	0.963152	0.467266	-0.884114	-0.002302	0.851830	0.449503	0.268948
02358	9.390246	-0.046799	2.651860	-0.000324	0.002396	0.006201	-0.236744	-0.127629	0.963153	0.467280	-0.884107	-0.002296	0.851823	0.449518	0.268945
02359	9.419812	-0.029771	2.650190	-0.000324	0.002396	0.006202	-0.236743	-0.127628	0.963153	0.467294	-0.884099	-0.002292	0.851815	0.449533	0.268944
02360	9.369552	-0.012463	2.661924	-0.002900	0.001165	0.008374	-0.236722	-0.127642	0.963156	0.467292	-0.884100	-0.002316	0.851822	0.449527	0.268932
02361	9.423313	-0.039701	2.627960	-0.003405	0.003140	0.004663	-0.236735	-0.127631	0.963155	0.467276	-0.884108	-0.002304	0.851827	0.449514	0.268938
02362	9.406246	-0.013150	2.615401	-0.001219	0.004678	0.006829	-0.236748	-0.127646	0.963149	0.467284	-0.884104	-0.002309	0.851819	0.449518	0.268957
02363	9.399830	-0.036152	2.623086	-0.003667	0.001207	0.004969	-0.236743	-0.127629	0.963153	0.467267	-0.884113	-0.002301	0.851830	0.449505	0.268944
02364	9.399803	-0.036851	2.623171	-0.000781	0.000616	0.008677	-0.236717	-0.127642	0.963158	0.467283	-0.884105	-0.002320	0.851828	0.449518	0.268927
02365	9.406096	-0.015197	2.615930	-0.002443	0.002942	0.005899	-0.236722	-0.127641	0.963157	0.467279	-0.884107	-0.002318	0.851829	0.449514	0.268931
02366	9.406020	-0.015861	2.616198	-0.001481	0.002745	0.007135	-0.236718	-0.127647	0.963157	0.467285	-0.884104	-0.002324	0.851827	0.449518	0.268931
02367	9.402360	-0.008042	2.638973	-0.002705	0.001010	0.006205	-0.236705	-0.127640	0.963161	0.467279	-0.884107	-0.002326	0.851834	0.449514	0.268916
02368	9.399548	-0.039439	2.624048	-0.001986	0.004721	0.003424	-0.236736	-0.127624	0.963155	0.467272	-0.884111	-0.002298	0.851829	0.449511	0.268936
02369	9.402236	-0.009134	2.639412	-0.002005	-0.001121	0.007747	-0.236698	-0.127621	0.963165	0.467276	-0.884109	-0.002313	0.851838	0.449516	0.268901
02370	9.379785	-0.044583	2.596180	-0.001676	0.002897	0.009305	-0.236687	-0.127649	0.963164	0.467286	-0.884103	-0.002341	0.851835	0.449519	0.268904
02371	9.399397	-0.041575	2.624557	-0.001285	0.002590	0.004966	-0.236693	-0.127638	0.963164	0.467289	-0.884102	-0.002327	0.851832	0.449525	0.268905
02372	9.402100	-0.011154	2.639889	-0.000391	0.000307	0.004339	-0.236682	-0.127614	0.963170	0.467299	-0.884096	-0.002307	0.851829	0.449542	0.268884
02373	9.382349	-0.015413	2.612002	-0.001218	0.004676	0.006830	-0.236698	-0.127630	0.963164	0.467307	-0.884092	-0.002311	0.851821	0.449546	0.268905
02374	9.399196	-0.043109	2.625251	-0.000128	0.002239	0.004033	-0.236707	-0.127605	0.963165	0.467317	-0.884087	-0.002281	0.851813	0.449563	0.268902
02375	9.405533	-0.021266	2.617910	-0.002968	-0.000924	0.006511	-0.236677	-0.127592	0.963174	0.467309	-0.884091	-0.002286	0.851825	0.449559	0.268869
02376	9.399170	-0.044422	2.625322	-0.002900	0.001161	0.008375	-0.236658	-0.127607	0.963177	0.467307	-0.884092	-0.002310	0.851831	0.449553	0.268859
02377	9.405462	-0.022589	2.618154	0.001292	0.003820	0.002794	-0.236685	-0.127583	0.963173	0.467327	-0.884081	-0.002268	0.851813	0.449581	0.268872
02378	9.401786	-0.014485	2.640991	-0.003667	0.001206	0.004969	-0.236751	-0.127758	0.963134	0.467252	-0.884121	-0.002421	0.851836	0.449453	0.269012
02379	9.395345	-0.037483	2.648667	-0.001218	0.004674	0.006831	-0.236766	-0.127774	0.963128	0.467260	-0.884117	-0.002425	0.851827	0.449457	0.269033
02380	9.398849	-0.046583	2.626433	-0.003404	0.003138	0.004664	-0.236779	-0.127764	0.963126	0.467244	-0.884125	-0.002414	0.851832	0.449444	0.269039
02381	9.401497	-0.016262	2.642010	-0.002180	0.004872	0.005595	-0.236802	-0.127769	0.963120	0.467241	-0.884126	-0.002409	0.851827	0.449439	0.269062
02382	9.405006	-0.025407	2.619767	-0.001481	0.002741	0.007137	-0.236803	-0.127780	0.963118	0.467249	-0.884123	-0.002416	0.851823	0.449443	0.269068
02383	9.414910	-0.012192	2.590036	-0.002442	0.002939	0.005900	-0.236808	-0.127779	0.963117	0.467244	-0.884125	-0.002415	0.851824	0.449439	0.269072
02384	9.375200	-0.044297	2.622144	0.000638	0.002192	0.007440	-0.236798	-0.127789	0.963118	0.467270	-0.884112	-0.002421	0.851813	0.449463	0.269068
02385	9.430864	-0.001380	2.641173	-0.003863	0.001358	0.007139	-0.236784	-0.127792	0.963121	0.467256	-0.884119	-0.002435	0.851825	0.449448	0.269057
02386	9.392029	-0.072872	2.635351	-0.003667	0.001205	0.004969	-0.236779	-0.127775	0.963125	0.467239	-0.884128	-0.002427	0.851836	0.449435	0.269044
02387	9.381419	-0.023811	2.615275	0.001097	0.003970	0.004965	-0.236797	-0.127771	0.963121	0.467262	-0.884115	-0.002407	0.851818	0.449460	0.269058
02388	9.387699	-0.002021	2.608221	-0.003600	0.003289	0.006834	-0.236799	-0.127780	0.963119	0.467250	-0.884122	-0.002418	0.851824	0.449445	0.269064
02389	9.404525	-0.029839	2.621446	-0.003404	0.003137	0.004664	-0.236811	-0.127769	0.963118	0.467234	-0.884130	-0.002407	0.851829	0.449432	0.269070
02390	9.404469	-0.030431	2.621639	-0.002706	0.001006	0.006206	-0.236800	-0.127763	0.963121	0.467229	-0.884133	-0.002408	0.851835	0.449428	0.269057
02391	9.400805	-0.022571	2.644425	-0.002442	0.002938	0.005901	-0.236805	-0.127762	0.963120	0.467224	-0.884136	-0.002407	0.851836	0.449423	0.269061
02392	9.374698	-0.049205	2.623853	-0.001549	0.000655	0.005273	-0.236794	-0.127746	0.963125	0.467226	-0.884135	-0.002397	0.851838	0.449429	0.269044
02393	9.410681	-0.009770	2.614844	-0.001021	0.004519	0.004662	-0.236818	-0.127741	0.963120	0.467231	-0.884132	-0.002379	0.851829	0.449436	0.269063
02394	9.401451	-0.063622	2.607274	-0.001744	0.000806	0.007443	-0.236799	-0.127743	0.963124	0.467235	-0.884130	-0.002389	0.851832	0.449440	0.269047
02395	9.400577	-0.025029	2.645213	-0.005982	0.001906	0.006836	-0.236791	-0.127746	0.963126	0.467203	-0.884147	-0.002406	0.851852	0.449405	0.269041
02396	9.390866	-0.015490	2.587208	-0.001549	0.000654	0.005273	-0.236778	-0.127728	0.963131	0.467204	-0.884146	-0.002395	0.851855	0.449412	0.269022
02397	9.400520	-0.026339	2.645401	-0.001744	0.000806	0.007443	-0.236758	-0.127732	0.963136	0.467209	-0.884143	-0.002406	0.851858	0.449416	0.269005
02398	9.387187	-0.008316	2.610054	-0.002442	0.002937	0.005901	-0.236763	-0.127730	0.963135	0.467205	-0.884146	-0.002404	0.851859	0.449412	0.269009
02399	9.380737	-0.031385	2.617642	-0.003863	0.001355	0.007140	-0.236749	-0.127733	0.963138	0.467191	-0.884153	-0.002418	0.851870	0.449397	0.268998
02400	9.403937	-0.036890	2.623466	-0.002178	0.004868	0.005597	-0.236770	-0.127740	0.963132	0.467188	-0.884154	-0.002415	0.851866	0.449392	0.269020
02401	9.410249	-0.015194	2.616372	-0.003863	0.001355	0.007140	-0.236755	-0.127743	0.963135	0.467175	-0.884162	-0.002429	0.851877	0.449377	0.269008
02402	9.397419	-0.060610	2.631260	-0.003667	0.001203	0.004970	-0.236750	-0.127725	0.963138	0.467157	-0.884171	-0.002420	0.851888	0.449364	0.268995
02403	9.380473	-0.034053	2.618552	-0.003599	0.003286	0.006835	-0.236754	-0.127734	0.963136	0.467145	-0.884177	-0.002431	0.851894	0.449349	0.269003
02404	9.410077	-0.017132	2.616979	-0.001285	0.002585	0.004968	-0.236760	-0.127723	0.963136	0.467148	-0.884176	-0.002416	0.851891	0.449355	0.269003
02405	9.403627	-0.040083	2.624529	-0.002706	0.001003	0.006207	-0.236747	-0.127716	0.963141	0.467142	-0.884179	-0.002418	0.851897	0.449351	0.268988
02406	9.409986	-0.018229	2.617299	-0.000127	0.002234	0.004035	-0.236753	-0.127695	0.963142	0.467153	-0.884173	-0.002393	0.851890	0.449368	0.268984
02407	9.403520	-0.041089	2.624898	-0.000323	0.002384	0.006205	-0.236752	-0.127695	0.963142	0.467167	-0.884166	-0.002389	0.851882	0.449383	0.268983
02408	9.409861	-0.019309	2.617741	-0.000323	0.002384	0.006205	-0.236752	-0.127695	0.963142	0.467182	-0.884158	-0.002385	0.851874	0.449398	0.268983
02409	9.409793	-0.019960	2.617981	-0.001480	0.002735	0.007139	-0.236749	-0.127704	0.963141	0.467188	-0.884155	-0.002392	0.851871	0.449402	0.268985
02410	9.386461	-0.015754	2.612629	-0.003667	0.001202	0.004970	-0.236744	-0.127687	0.963145	0.467171	-0.884164	-0.002384	0.851882	0.449389	0.268972
02411	9.376334	-0.030340	2.642984	-0.001147	0.006748	0.008700	-0.236768	-0.127728	0.963134	0.467184	-0.884157	-0.002406	0.851868	0.449391	0.269013
02412	9.426459	-0.049236	2.631597	0.000040	-0.003763	0.006186	-0.236715	-0.127700	0.963151	0.467202	-0.884148	-0.002400	0.851874	0.449417	0.268952
02413	9.409599	-0.022678	2.618657	-0.003598	0.003284	0.006836	-0.236718	-0.127709	0.963148	0.467190	-0.884154	-0.002411	0.851879	0.449402	0.268960
02414	9.399492	-0.037132	2.648923	-0.002245	0.002783	0.003732	-0.236730	-0.127685	0.963149	0.467181	-0.884159	-0.002386	0.851881	0.449400	0.268959
02415	9.432715	-0.028676	2.624766	-0.003599	0.003284	0.006836	-0.236734	-0.127694	0.963147	0.467169	-0.884165	-0.002397	0.851886	0.449385	0.268967
02416	9.386101	-0.019773	2.613895	-0.002902	0.001151	0.008377	-0.236711	-0.127710	0.963150	0.467167	-0.884166	-0.002422	0.851894	0.449378	0.268954
02417	9.386035	-0.020319	2.614127	0.001295	0.003813	0.002798	-0.236738	-0.127686	0.963147	0.467187	-0.884155	-0.002381	0.851875	0.449406	0.268967
02418	9.375890	-0.034650	2.644505	-0.001215	0.004664	0.006835	-0.236753	-0.127700	0.963141	0.467195	-0.884151	-0.002384	0.851867	0.449410	0.268986
02419	9.409093	-0.026331	2.620440	-0.003598	0.003283	0.006836	-0.236757	-0.127709	0.963139	0.467183	-0.884158	-0.002395	0.851872	0.449395	0.268994
02420	9.382920	-0.053009	2.599958	-0.002441	0.002932	0.005903	-0.236764	-0.127708	0.963137	0.467178	-0.884160	-0.002392	0.851873	0.449390	0.268999
02421	9.385639	-0.022738	2.615528	-0.000058	0.004313	0.005902	-0.236780	-0.127714	0.963133	0.467194	-0.884152	-0.002384	0.851860	0.449405	0.269017
02422	9.405256	-0.019733	2.643835	-0.002972	-0.000931	0.006512	-0.236748	-0.127702	0.963142	0.467187	-0.884155	-0.002391	0.851873	0.449401	0.268983
02423	9.425710	-0.056172	2.634140	-0.001746	0.000799	0.007444	-0.236728	-0.127705	0.963147	0.467192	-0.884153	-0.002402	0.851876	0.449406	0.268966
02424	9.385527	-0.024622	2.615913	0.000139	0.004163	0.003732	-0.236754	-0.127692	0.963142	0.467205	-0.884146	-0.002373	0.851861	0.449422	0.268984
02425	9.425515	-0.057246	2.634814	-0.003333	0.005214	0.006532	-0.236776	-0.127707	0.963135	0.467194	-0.884152	-0.002380	0.851861	0.449407	0.269010
02426	9.381748	-0.017175	2.639108	0.000499	-0.001983	0.003712	-0.236751	-0.127664	0.963146	0.467209	-0.884144	-0.002348	0.851859	0.449435	0.268968
02427	9.402210	-0.053439	2.629364	-0.001746	0.000799	0.007445	-0.236731	-0.127668	0.963151	0.467214	-0.884141	-0.002359	0.851862	0.449439	0.268952
02428	9.408569	-0.031737	2.622259	-0.002175	0.004863	0.005599	-0.236752	-0.127675	0.963145	0.467212	-0.884142	-0.002356	0.851857	0.449435	0.268974
02429	9.404836	-0.023820	2.645295	-0.000057	0.004311	0.005903	-0.236769	-0.127681	0.963140	0.467228	-0.884134	-0.002348	0.851844	0.449450	0.268991
02430	9.398316	-0.046806	2.652939	-0.004825	0.001551	0.005904	-0.236763	-0.127675	0.963142	0.467204	-0.884147	-0.002354	0.851859	0.449426	0.268983
02431	9.385035	-0.028807	2.617634	-0.002637	0.003080	0.008074	-0.236759	-0.127694	0.963140	0.467203	-0.884147	-0.002374	0.851861	0.449420	0.268989
02432	9.411838	-0.042938	2.600849	-0.001480	0.002729	0.007141	-0.236756	-0.127704	0.963140	0.467209	-0.884143	-0.002382	0.851858	0.449424	0.268991
02433	9.408148	-0.035071	2.623729	-0.003402	0.003132	0.004666	-0.236768	-0.127693	0.963138	0.467194	-0.884152	-0.002371	0.851863	0.449411	0.268997
02434	9.408094	-0.035708	2.623913	-0.001746	0.000797	0.007445	-0.236746	-0.127699	0.963143	0.467200	-0.884149	-0.002385	0.851866	0.449415	0.268980
02435	9.411663	-0.044909	2.601447	0.000638	0.002176	0.007445	-0.236738	-0.127709	0.963144	0.467225	-0.884135	-0.002390	0.851854	0.449439	0.268977
02436	9.381127	-0.023678	2.641266	-0.003668	0.001200	0.004971	-0.236730	-0.127692	0.963148	0.467208	-0.884144	-0.002384	0.851866	0.449426	0.268962
02437	9.431217	-0.042523	2.629954	-0.002441	0.002929	0.005904	-0.236735	-0.127692	0.963147	0.467204	-0.884146	-0.002383	0.851867	0.449422	0.268966
02438	9.407878	-0.038245	2.624653	-0.000323	0.002377	0.006208	-0.236734	-0.127691	0.963147	0.467218	-0.884139	-0.002378	0.851859	0.449437	0.268966
02439	9.414258	-0.016441	2.617548	-0.003401	0.003131	0.004667	-0.236747	-0.127681	0.963145	0.467203	-0.884147	-0.002367	0.851864	0.449424	0.268971
02440	9.384448	-0.034653	2.619667	-0.003794	0.003428	0.009008	-0.236739	-0.127708	0.963143	0.467194	-0.884152	-0.002399	0.851871	0.449406	0.268978
02441	9.371164	-0.016618	2.584453	-0.003401	0.003131	0.004667	-0.236752	-0.127698	0.963142	0.467178	-0.884160	-0.002388	0.851876	0.449393	0.268984
02442	9.454094	-0.050553	2.636848	0.002952	0.001474	0.005579	-0.236746	-0.127689	0.963144	0.467219	-0.884138	-0.002370	0.851855	0.449438	0.268975
02443	9.367379	-0.009174	2.607678	-0.003064	0.007141	0.006230	-0.236785	-0.127710	0.963132	0.467210	-0.884143	-0.002373	0.851849	0.449423	0.269019
02444	9.434215	-0.055365	2.609478	-0.002708	0.000997	0.006208	-0.236770	-0.127701	0.963137	0.467204	-0.884147	-0.002374	0.851857	0.449419	0.269002
02445	9.410164	-0.011841	2.641859	-0.001747	0.000794	0.007445	-0.236750	-0.127704	0.963141	0.467209	-0.884144	-0.002385	0.851860	0.449423	0.268985
02446	9.383976	-0.038544	2.621303	-0.000253	0.004455	0.008075	-0.236756	-0.127731	0.963136	0.467229	-0.884133	-0.002401	0.851847	0.449436	0.269004
02447	9.410752	-0.052619	2.604599	-0.002441	0.002928	0.005904	-0.236761	-0.127731	0.963135	0.467224	-0.884136	-0.002399	0.851848	0.449432	0.269008
02448	9.420002	0.000073	2.612758	-0.002244	0.002780	0.003734	-0.236773	-0.127710	0.963135	0.467216	-0.884140	-0.002377	0.851850	0.449429	0.269008
02449	9.433885	-0.058720	2.610598	-0.001944	0.000941	0.009617	-0.236743	-0.127733	0.963139	0.467225	-0.884135	-0.002410	0.851853	0.449432	0.268993
02450	9.380110	-0.032796	2.644776	-0.001747	0.000793	0.007446	-0.236723	-0.127737	0.963143	0.467230	-0.884133	-0.002421	0.851856	0.449436	0.268977
02451	9.409805	-0.016056	2.643117	0.000638	0.002171	0.007446	-0.236715	-0.127746	0.963144	0.467255	-0.884119	-0.002426	0.851844	0.449460	0.268974
02452	9.413343	-0.025250	2.620767	-0.003597	0.003277	0.006838	-0.236720	-0.127752	0.963142	0.467242	-0.884126	-0.002433	0.851850	0.449445	0.268981
02453	9.383524	-0.043424	2.622845	-0.001480	0.002724	0.007142	-0.236717	-0.127761	0.963142	0.467249	-0.884122	-0.002441	0.851847	0.449449	0.268983
02454	9.409575	-0.018158	2.643920	-0.002440	0.002926	0.005905	-0.236724	-0.127761	0.963140	0.467245	-0.884125	-0.002439	0.851848	0.449445	0.268989
02455	9.436370	-0.032220	2.627139	-0.001480	0.002723	0.007142	-0.236721	-0.127771	0.963140	0.467251	-0.884121	-0.002447	0.851845	0.449449	0.268991
02456	9.386980	-0.053950	2.600758	-0.003243	-0.002868	0.006816	-0.236671	-0.127754	0.963154	0.467243	-0.884126	-0.002458	0.851863	0.449445	0.268939
02457	9.402959	-0.042494	2.651724	-0.002865	0.006991	0.004060	-0.236719	-0.127755	0.963142	0.467230	-0.884132	-0.002440	0.851857	0.449432	0.268982
02458	9.379596	-0.038178	2.646528	-0.001748	0.000791	0.007446	-0.236701	-0.127758	0.963146	0.467235	-0.884130	-0.002450	0.851859	0.449436	0.268967
02459	9.436214	-0.034799	2.627668	-0.001819	-0.001287	0.005579	-0.236671	-0.127735	0.963156	0.467235	-0.884130	-0.002443	0.851867	0.449442	0.268931
02460	9.389641	-0.025653	2.616746	-0.004486	0.005557	0.007469	-0.236691	-0.127763	0.963148	0.467218	-0.884139	-0.002465	0.851871	0.449417	0.268961
02461	9.389529	-0.026371	2.617143	-0.002440	0.002925	0.005905	-0.236696	-0.127763	0.963147	0.467214	-0.884141	-0.002463	0.851872	0.449412	0.268965
02462	9.405486	-0.015002	2.668185	-0.001480	0.002721	0.007143	-0.236693	-0.127772	0.963146	0.467220	-0.884137	-0.002472	0.851869	0.449417	0.268967
02463	9.385766	-0.019220	2.640280	-0.002440	0.002925	0.005906	-0.236698	-0.127772	0.963145	0.467216	-0.884140	-0.002470	0.851871	0.449412	0.268971
02464	9.416223	-0.041748	2.600694	-0.000859	-0.001491	0.006817	-0.236663	-0.127758	0.963155	0.467227	-0.884134	-0.002471	0.851874	0.449427	0.268934
02465	9.389283	-0.028899	2.617996	-0.002863	0.006990	0.004061	-0.236711	-0.127760	0.963143	0.467215	-0.884141	-0.002453	0.851868	0.449414	0.268977
02466	9.399241	-0.015586	2.588588	-0.001212	0.004651	0.006840	-0.236727	-0.127774	0.963138	0.467223	-0.884136	-0.002457	0.851859	0.449418	0.268998
02467	9.408730	-0.026632	2.646854	0.000101	-0.001696	0.008054	-0.236682	-0.127772	0.963149	0.467245	-0.884124	-0.002469	0.851859	0.449442	0.268957
02468	9.389038	-0.030860	2.618855	-0.004288	0.005408	0.005298	-0.236710	-0.127777	0.963141	0.467223	-0.884136	-0.002467	0.851863	0.449418	0.268984
02469	9.408593	-0.027950	2.647328	-0.002708	0.000992	0.006209	-0.236697	-0.127770	0.963146	0.467217	-0.884139	-0.002469	0.851870	0.449414	0.268969
02470	9.378758	-0.046034	2.649370	-0.001211	0.004650	0.006841	-0.236709	-0.127787	0.963140	0.467226	-0.884134	-0.002476	0.851862	0.449418	0.268988
02471	9.422179	-0.023868	2.595273	-0.000591	0.000438	0.006514	-0.236690	-0.127781	0.963146	0.467239	-0.884128	-0.002475	0.851860	0.449433	0.268968
02472	9.405504	-0.060725	2.632725	-0.002440	0.002923	0.005906	-0.236693	-0.127779	0.963145	0.467234	-0.884130	-0.002474	0.851862	0.449429	0.268970
02473	9.375534	-0.015150	2.584643	-0.001014	0.004504	0.004670	-0.236717	-0.127775	0.963140	0.467239	-0.884128	-0.002456	0.851853	0.449435	0.268989
02474	9.435120	-0.044376	2.631450	-0.001820	-0.001289	0.005579	-0.236690	-0.127751	0.963150	0.467239	-0.884128	-0.002447	0.851860	0.449441	0.268955
02475	9.382124	-0.057474	2.627579	0.002485	-0.000321	0.008056	-0.236657	-0.127754	0.963157	0.467281	-0.884105	-0.002453	0.851846	0.449485	0.268927
02476	9.395090	-0.013403	2.613108	-0.002171	0.004853	0.005603	-0.236680	-0.127761	0.963151	0.467279	-0.884107	-0.002449	0.851841	0.449480	0.268950
02477	9.415337	-0.049725	2.603760	-0.001282	0.002572	0.004973	-0.236686	-0.127750	0.963151	0.467282	-0.884105	-0.002435	0.851838	0.449487	0.268951
02478	9.368790	-0.040404	2.592786	-0.002709	0.000991	0.006209	-0.236672	-0.127743	0.963155	0.467276	-0.884108	-0.002437	0.851845	0.449482	0.268935
02479	9.388404	-0.037471	2.621040	-0.001551	0.000641	0.005276	-0.236660	-0.127726	0.963160	0.467277	-0.884107	-0.002427	0.851847	0.449489	0.268917
02480	9.384766	-0.029544	2.643734	-0.003668	0.001195	0.004972	-0.236656	-0.127709	0.963164	0.467260	-0.884117	-0.002419	0.851858	0.449475	0.268905
02481	9.418099	-0.021349	2.619521	0.000440	0.002308	0.009620	-0.236638	-0.127738	0.963164	0.467289	-0.884101	-0.002445	0.851847	0.449497	0.268903
02482	9.414423	-0.013571	2.642359	-0.001282	0.002572	0.004973	-0.236643	-0.127727	0.963164	0.467292	-0.884100	-0.002431	0.851844	0.449504	0.268902
02483	9.388165	-0.040031	2.621857	-0.001210	0.004647	0.006842	-0.236659	-0.127742	0.963159	0.467300	-0.884095	-0.002435	0.851835	0.449508	0.268923
02484	9.417860	-0.023257	2.620365	-0.003668	0.001195	0.004972	-0.236656	-0.127727	0.963161	0.467283	-0.884104	-0.002428	0.851845	0.449495	0.268914
02485	9.361196	-0.027926	2.639274	-0.002906	0.001135	0.008381	-0.236635	-0.127740	0.963165	0.467281	-0.884106	-0.002451	0.851853	0.449489	0.268900
02486	9.417773	-0.024714	2.620664	-0.002439	0.002921	0.005907	-0.236639	-0.127738	0.963164	0.467276	-0.884108	-0.002449	0.851854	0.449484	0.268903
02487	9.384304	-0.034351	2.645316	-0.002636	0.003065	0.008079	-0.236635	-0.127757	0.963163	0.467275	-0.884108	-0.002469	0.851856	0.449478	0.268909
02488	9.394368	-0.021199	2.615652	-0.002439	0.002920	0.005907	-0.236640	-0.127756	0.963161	0.467271	-0.884111	-0.002466	0.851857	0.449473	0.268913
02489	9.387752	-0.044122	2.623269	-0.003399	0.003125	0.004669	-0.236652	-0.127745	0.963160	0.467255	-0.884119	-0.002455	0.851862	0.449460	0.268918
02490	9.417465	-0.027136	2.621745	0.001032	0.001870	0.003107	-0.236661	-0.127711	0.963162	0.467272	-0.884110	-0.002414	0.851850	0.449488	0.268910
02491	9.410864	-0.050080	2.629301	-0.001677	0.002859	0.009317	-0.236649	-0.127740	0.963161	0.467283	-0.884105	-0.002444	0.851847	0.449490	0.268914
02492	9.390497	-0.015118	2.639172	-0.001749	0.000784	0.007448	-0.236630	-0.127742	0.963166	0.467287	-0.884102	-0.002453	0.851850	0.449494	0.268897
02493	9.383882	-0.038027	2.646762	-0.001971	0.004706	0.003433	-0.236661	-0.127727	0.963160	0.467281	-0.884106	-0.002427	0.851845	0.449492	0.268918
02494	9.427359	-0.015811	2.592714	-0.001750	0.000783	0.007448	-0.236643	-0.127729	0.963164	0.467285	-0.884103	-0.002436	0.851848	0.449496	0.268902
02495	9.387375	-0.047729	2.624556	-0.000322	0.002364	0.006212	-0.236641	-0.127728	0.963165	0.467300	-0.884096	-0.002431	0.851840	0.449511	0.268901
02496	9.413501	-0.022462	2.645579	-0.003669	0.001194	0.004972	-0.236633	-0.127713	0.963169	0.467283	-0.884104	-0.002426	0.851852	0.449498	0.268886
02497	9.387304	-0.048947	2.624788	0.000367	0.000227	0.007753	-0.236606	-0.127716	0.963175	0.467307	-0.884092	-0.002435	0.851846	0.449522	0.268864
02498	9.417021	-0.032185	2.623284	-0.003128	0.005055	0.004367	-0.236637	-0.127712	0.963168	0.467293	-0.884099	-0.002420	0.851845	0.449509	0.268889
02499	9.393670	-0.027819	2.618096	-0.003596	0.003268	0.006841	-0.236641	-0.127721	0.963166	0.467281	-0.884106	-0.002430	0.851851	0.449494	0.268897
02500	9.416831	-0.033572	2.623946	-0.000520	0.002507	0.008384	-0.236630	-0.127739	0.963166	0.467298	-0.884096	-0.002447	0.851844	0.449507	0.268896
02501	9.393494	-0.029280	2.618712	-0.002168	0.004849	0.005605	-0.236652	-0.127744	0.963160	0.467296	-0.884098	-0.002442	0.851840	0.449502	0.268918
02502	9.393395	-0.029822	2.619059	-0.001282	0.002568	0.004974	-0.236659	-0.127734	0.963160	0.467299	-0.884096	-0.002428	0.851836	0.449509	0.268920
02503	9.393329	-0.030369	2.619291	-0.000322	0.002362	0.006213	-0.236658	-0.127733	0.963160	0.467313	-0.884089	-0.002423	0.851828	0.449524	0.268918
02504	9.420110	-0.044332	2.602504	-0.002241	0.002774	0.003736	-0.236673	-0.127712	0.963159	0.467305	-0.884093	-0.002399	0.851829	0.449521	0.268921
02505	9.369972	-0.026560	2.614122	-0.001948	0.000925	0.009621	-0.236644	-0.127735	0.963163	0.467314	-0.884088	-0.002432	0.851832	0.449524	0.268906
02506	9.409892	-0.059444	2.632581	-0.001428	-0.001581	0.001236	-0.236631	-0.127673	0.963174	0.467307	-0.884092	-0.002383	0.851839	0.449534	0.268867
02507	9.393142	-0.032515	2.619933	-0.003054	0.007128	0.006237	-0.236671	-0.127694	0.963162	0.467298	-0.884097	-0.002386	0.851833	0.449519	0.268911
02508	9.422839	-0.015917	2.618554	-0.000791	0.000574	0.008687	-0.236647	-0.127711	0.963166	0.467315	-0.884088	-0.002407	0.851830	0.449532	0.268898
02509	9.399539	-0.011618	2.613199	-0.000051	0.004291	0.005911	-0.236664	-0.127716	0.963161	0.467331	-0.884079	-0.002399	0.851817	0.449547	0.268915
02510	9.389946	-0.065385	2.605482	-0.002710	0.000986	0.006211	-0.236653	-0.127709	0.963165	0.467325	-0.884083	-0.002400	0.851823	0.449543	0.268902
02511	9.389211	-0.026716	2.643653	-0.002167	0.004847	0.005606	-0.236675	-0.127714	0.963158	0.467322	-0.884084	-0.002395	0.851819	0.449538	0.268925
02512	9.392765	-0.035883	2.621241	-0.004138	-0.000595	0.007446	-0.236641	-0.127712	0.963167	0.467307	-0.884092	-0.002414	0.851836	0.449523	0.268893
02513	9.389067	-0.028045	2.644151	-0.002855	0.006983	0.004066	-0.236689	-0.127714	0.963155	0.467295	-0.884098	-0.002396	0.851830	0.449510	0.268936
02514	9.392575	-0.037117	2.621904	-0.001751	0.000779	0.007449	-0.236670	-0.127719	0.963159	0.467300	-0.884095	-0.002408	0.851832	0.449514	0.268922
02515	9.415795	-0.042751	2.627531	0.000563	0.000079	0.005583	-0.236653	-0.127702	0.963165	0.467321	-0.884085	-0.002395	0.851826	0.449540	0.268899
02516	9.399097	-0.015965	2.614765	-0.002438	0.002915	0.005909	-0.236657	-0.127703	0.963164	0.467316	-0.884087	-0.002395	0.851827	0.449536	0.268903
02517	9.395416	-0.007996	2.637617	-0.000124	0.002216	0.004042	-0.236664	-0.127682	0.963165	0.467327	-0.884081	-0.002369	0.851819	0.449553	0.268900
02518	9.415618	-0.044262	2.628138	-0.001281	0.002566	0.004975	-0.236670	-0.127673	0.963165	0.467331	-0.884079	-0.002357	0.851815	0.449559	0.268901
02519	9.392338	-0.039829	2.622715	-0.002710	0.000985	0.006211	-0.236657	-0.127667	0.963169	0.467325	-0.884082	-0.002359	0.851822	0.449555	0.268886
02520	9.392317	-0.040470	2.622781	-0.000594	0.000428	0.006516	-0.236639	-0.127662	0.963174	0.467338	-0.884075	-0.002359	0.851820	0.449570	0.268868
02521	9.415448	-0.046027	2.628718	-0.002854	0.006982	0.004066	-0.236687	-0.127663	0.963162	0.467326	-0.884082	-0.002341	0.851813	0.449557	0.268911
02522	9.398716	-0.019303	2.616111	-0.004139	-0.000596	0.007447	-0.236654	-0.127659	0.963171	0.467310	-0.884090	-0.002358	0.851831	0.449542	0.268880
02523	9.421909	-0.025093	2.621826	-0.003595	0.003264	0.006843	-0.236657	-0.127668	0.963169	0.467298	-0.884097	-0.002369	0.851837	0.449527	0.268887
02524	9.388404	-0.034614	2.646425	-0.000322	0.002357	0.006214	-0.236660	-0.127669	0.963168	0.467313	-0.884089	-0.002363	0.851828	0.449542	0.268890
02525	9.388332	-0.035219	2.646672	-0.002438	0.002914	0.005909	-0.236665	-0.127668	0.963167	0.467308	-0.884091	-0.002362	0.851829	0.449537	0.268893
02526	9.421690	-0.026929	2.622596	-0.001281	0.002564	0.004976	-0.236670	-0.127655	0.963167	0.467311	-0.884090	-0.002347	0.851826	0.449543	0.268892
02527	9.368596	-0.039847	2.618880	-0.001751	0.000776	0.007450	-0.236649	-0.127658	0.963172	0.467316	-0.884087	-0.002358	0.851829	0.449548	0.268875
02528	9.418010	-0.019834	2.645437	-0.001751	0.000776	0.007450	-0.236628	-0.127662	0.963177	0.467321	-0.884084	-0.002370	0.851832	0.449552	0.268859
02529	9.411310	-0.042778	2.653113	-0.002852	0.006981	0.004067	-0.236676	-0.127663	0.963165	0.467309	-0.884091	-0.002352	0.851825	0.449539	0.268902
02530	9.401829	-0.032859	2.595251	-0.001826	-0.001297	0.005580	-0.236646	-0.127639	0.963175	0.467309	-0.884091	-0.002344	0.851834	0.449545	0.268864
02531	9.391540	-0.047351	2.625446	-0.003050	0.007122	0.006240	-0.236685	-0.127660	0.963163	0.467300	-0.884096	-0.002348	0.851828	0.449530	0.268908
02532	9.401677	-0.034142	2.595787	-0.000867	-0.001505	0.006819	-0.236651	-0.127648	0.963173	0.467311	-0.884090	-0.002349	0.851831	0.449545	0.268872
02533	9.391441	-0.048657	2.625774	-0.002438	0.002912	0.005910	-0.236656	-0.127647	0.963172	0.467306	-0.884092	-0.002347	0.851833	0.449541	0.268876
02534	9.417603	-0.023523	2.646856	-0.002710	0.000982	0.006212	-0.236642	-0.127643	0.963176	0.467301	-0.884095	-0.002352	0.851839	0.449537	0.268862
02535	9.397936	-0.027696	2.618837	-0.002636	0.003054	0.008082	-0.236638	-0.127662	0.963174	0.467300	-0.884096	-0.002372	0.851841	0.449530	0.268867
02536	9.417462	-0.025053	2.647342	-0.003595	0.003261	0.006844	-0.236641	-0.127672	0.963172	0.467288	-0.884102	-0.002383	0.851847	0.449515	0.268874
02537	9.378188	-0.032541	2.591105	-0.001554	0.000632	0.005278	-0.236629	-0.127655	0.963178	0.467290	-0.884101	-0.002373	0.851849	0.449522	0.268856
02538	9.420951	-0.034763	2.625159	-0.001206	0.004633	0.006848	-0.236645	-0.127670	0.963172	0.467298	-0.884097	-0.002376	0.851840	0.449526	0.268877
02539	9.378022	-0.033732	2.591689	-0.001281	0.002562	0.004977	-0.236651	-0.127659	0.963172	0.467301	-0.884095	-0.002363	0.851837	0.449532	0.268877
02540	9.417162	-0.027510	2.648384	-0.003595	0.003260	0.006844	-0.236657	-0.127673	0.963168	0.467290	-0.884101	-0.002375	0.851841	0.449517	0.268889
02541	9.374279	-0.026520	2.614756	-0.001554	0.000632	0.005278	-0.236646	-0.127656	0.963173	0.467292	-0.884100	-0.002365	0.851843	0.449524	0.268871
02542	9.417093	-0.028733	2.648616	-0.000595	0.000423	0.006517	-0.236621	-0.127649	0.963180	0.467305	-0.884093	-0.002366	0.851843	0.449539	0.268846
02543	9.401052	-0.041236	2.597946	-0.002438	0.002911	0.005911	-0.236626	-0.127648	0.963179	0.467300	-0.884096	-0.002365	0.851844	0.449534	0.268850
02544	9.407588	-0.019578	2.590933	-0.003594	0.003260	0.006844	-0.236631	-0.127654	0.963177	0.467287	-0.884102	-0.002372	0.851850	0.449519	0.268857
02545	9.416911	-0.030677	2.649244	-0.001554	0.000631	0.005279	-0.236619	-0.127637	0.963182	0.467289	-0.884102	-0.002362	0.851852	0.449526	0.268839
02546	9.397250	-0.034725	2.621213	-0.003594	0.003259	0.006844	-0.236621	-0.127646	0.963181	0.467277	-0.884108	-0.002373	0.851858	0.449511	0.268845
02547	9.397112	-0.035427	2.621699	-0.003048	0.007119	0.006242	-0.236660	-0.127668	0.963168	0.467268	-0.884112	-0.002376	0.851852	0.449495	0.268889
02548	9.397011	-0.036074	2.622053	-0.000596	0.000422	0.006518	-0.236643	-0.127664	0.963173	0.467282	-0.884105	-0.002377	0.851850	0.449510	0.268872
02549	9.416577	-0.033281	2.650399	-0.000322	0.002351	0.006217	-0.236641	-0.127663	0.963173	0.467296	-0.884098	-0.002373	0.851842	0.449526	0.268870
02550	9.396924	-0.037263	2.622348	-0.003669	0.001188	0.004973	-0.236635	-0.127648	0.963177	0.467279	-0.884107	-0.002367	0.851853	0.449513	0.268858
02551	9.396852	-0.037869	2.622595	0.000910	0.004072	0.007155	-0.236644	-0.127663	0.963173	0.467306	-0.884092	-0.002368	0.851836	0.449536	0.268873
02552	9.377176	-0.041978	2.594630	-0.003868	0.001328	0.007146	-0.236630	-0.127668	0.963176	0.467293	-0.884099	-0.002383	0.851847	0.449521	0.268863
02553	9.422960	-0.013591	2.643959	-0.001479	0.002700	0.007150	-0.236627	-0.127677	0.963175	0.467300	-0.884096	-0.002391	0.851844	0.449526	0.268865
02554	9.396624	-0.040014	2.623380	-0.001205	0.004629	0.006849	-0.236640	-0.127689	0.963170	0.467307	-0.884092	-0.002393	0.851836	0.449530	0.268882
02555	9.363090	-0.049320	2.647924	-0.001356	0.000489	0.003106	-0.236638	-0.127653	0.963176	0.467305	-0.884093	-0.002362	0.851838	0.449538	0.268862
02556	9.422758	-0.015296	2.644668	0.000636	0.002140	0.007456	-0.236630	-0.127665	0.963176	0.467331	-0.884079	-0.002368	0.851826	0.449562	0.268862
02557	9.376824	-0.045045	2.595850	-0.002163	0.004838	0.005610	-0.236653	-0.127670	0.963170	0.467329	-0.884081	-0.002363	0.851821	0.449558	0.268884
02558	9.399348	-0.011464	2.639754	-0.002437	0.002908	0.005911	-0.236657	-0.127668	0.963169	0.467324	-0.884083	-0.002361	0.851823	0.449553	0.268887
02559	9.402892	-0.020531	2.617387	-0.000322	0.002349	0.006217	-0.236656	-0.127668	0.963169	0.467338	-0.884075	-0.002357	0.851815	0.449568	0.268885
02560	9.379616	-0.016049	2.611999	-0.000322	0.002349	0.006217	-0.236653	-0.127666	0.963170	0.467352	-0.884068	-0.002352	0.851808	0.449583	0.268883
02561	9.419295	-0.049179	2.630863	-0.003320	0.005186	0.006544	-0.236675	-0.127681	0.963163	0.467342	-0.884073	-0.002359	0.851808	0.449568	0.268909
02562	9.406291	-0.030869	2.595529	-0.001829	-0.001301	0.005580	-0.236647	-0.127659	0.963173	0.467342	-0.884073	-0.002352	0.851816	0.449574	0.268874
02563	9.396000	-0.045395	2.625526	-0.003594	0.003256	0.006845	-0.236650	-0.127668	0.963171	0.467330	-0.884080	-0.002362	0.851821	0.449559	0.268881
02564	9.425804	-0.028842	2.624043	-0.002712	0.000977	0.006213	-0.236637	-0.127662	0.963175	0.467324	-0.884083	-0.002365	0.851828	0.449555	0.268866
02565	9.402548	-0.024384	2.618589	-0.000322	0.002348	0.006218	-0.236635	-0.127661	0.963175	0.467338	-0.884075	-0.002361	0.851821	0.449570	0.268864
02566	9.425690	-0.030121	2.624437	-0.001479	0.002697	0.007151	-0.236632	-0.127671	0.963175	0.467345	-0.884072	-0.002369	0.851818	0.449575	0.268866
02567	9.402405	-0.025702	2.619089	-0.002437	0.002906	0.005912	-0.236637	-0.127670	0.963174	0.467341	-0.884074	-0.002367	0.851819	0.449570	0.268870
02568	9.379141	-0.021356	2.613666	-0.002911	0.001116	0.008386	-0.236614	-0.127682	0.963178	0.467338	-0.884076	-0.002389	0.851827	0.449564	0.268855
02569	9.398671	-0.018533	2.642123	0.001309	0.003788	0.002811	-0.236641	-0.127657	0.963174	0.467358	-0.884065	-0.002348	0.851808	0.449591	0.268868
02570	9.421813	-0.024020	2.647969	-0.003670	0.001187	0.004973	-0.236634	-0.127639	0.963178	0.467340	-0.884074	-0.002340	0.851820	0.449578	0.268853
02571	9.398545	-0.019581	2.642564	-0.003594	0.003255	0.006846	-0.236637	-0.127648	0.963176	0.467328	-0.884081	-0.002351	0.851826	0.449563	0.268860
02572	9.402079	-0.028764	2.620228	-0.001479	0.002695	0.007152	-0.236633	-0.127654	0.963177	0.467334	-0.884078	-0.002356	0.851824	0.449568	0.268859
02573	9.398422	-0.020976	2.642989	-0.000597	0.000416	0.006519	-0.236613	-0.127647	0.963182	0.467347	-0.884071	-0.002356	0.851822	0.449583	0.268839
02574	9.391715	-0.043869	2.650414	-0.001280	0.002556	0.004979	-0.236620	-0.127638	0.963182	0.467350	-0.884069	-0.002343	0.851819	0.449589	0.268840
02575	9.408588	-0.008336	2.613492	-0.002636	0.003044	0.008086	-0.236615	-0.127657	0.963181	0.467349	-0.884070	-0.002363	0.851820	0.449583	0.268845
02576	9.401866	-0.031557	2.620961	-0.001953	0.000903	0.009626	-0.236585	-0.127684	0.963185	0.467359	-0.884064	-0.002399	0.851823	0.449585	0.268830
02577	9.391526	-0.046169	2.651048	-0.003394	0.003115	0.004673	-0.236597	-0.127674	0.963183	0.467344	-0.884073	-0.002389	0.851829	0.449572	0.268836
02578	9.424917	-0.038097	2.627109	0.000712	0.004202	0.009331	-0.236688	-0.127770	0.963148	0.467328	-0.884080	-0.002438	0.851812	0.449529	0.268962
02579	9.401649	-0.033586	2.621713	-0.001356	0.000487	0.003107	-0.236685	-0.127734	0.963153	0.467327	-0.884082	-0.002406	0.851813	0.449538	0.268942
02580	9.401631	-0.034123	2.621771	-0.001754	0.000764	0.007453	-0.236663	-0.127735	0.963158	0.467331	-0.884079	-0.002417	0.851817	0.449542	0.268924
02581	9.424781	-0.039869	2.627570	-0.003394	0.003115	0.004673	-0.236676	-0.127725	0.963157	0.467316	-0.884087	-0.002406	0.851822	0.449529	0.268930
02582	9.381910	-0.038726	2.593991	-0.001479	0.002693	0.007153	-0.236672	-0.127734	0.963156	0.467322	-0.884084	-0.002415	0.851819	0.449533	0.268931
02583	9.374635	-0.022391	2.639388	-0.002513	0.000836	0.004040	-0.236668	-0.127708	0.963161	0.467313	-0.884089	-0.002395	0.851826	0.449531	0.268915
02584	9.420964	-0.033131	2.650890	-0.002161	0.004833	0.005613	-0.236690	-0.127716	0.963154	0.467311	-0.884090	-0.002393	0.851821	0.449526	0.268939
02585	9.397711	-0.028702	2.645443	-0.002030	-0.001167	0.007754	-0.236652	-0.127714	0.963164	0.467314	-0.884088	-0.002408	0.851829	0.449531	0.268903
02586	9.411620	-0.023960	2.592932	-0.003670	0.001185	0.004974	-0.236647	-0.127700	0.963167	0.467298	-0.884097	-0.002403	0.851839	0.449518	0.268893
02587	9.407898	-0.016121	2.615939	-0.003041	0.007110	0.006246	-0.236686	-0.127722	0.963155	0.467289	-0.884101	-0.002406	0.851833	0.449502	0.268938
02588	9.401115	-0.039034	2.623552	0.000559	0.000064	0.005586	-0.236669	-0.127705	0.963161	0.467310	-0.884090	-0.002393	0.851827	0.449528	0.268915
02589	9.401076	-0.039645	2.623682	-0.001479	0.002691	0.007153	-0.236666	-0.127715	0.963160	0.467316	-0.884087	-0.002401	0.851824	0.449532	0.268917
02590	9.377831	-0.035147	2.618216	-0.001555	0.000624	0.005280	-0.236656	-0.127699	0.963165	0.467318	-0.884086	-0.002391	0.851826	0.449539	0.268900
02591	9.400989	-0.040834	2.623976	-0.000322	0.002342	0.006220	-0.236655	-0.127698	0.963165	0.467332	-0.884078	-0.002387	0.851819	0.449554	0.268899
02592	9.397304	-0.032987	2.646839	-0.002436	0.002902	0.005914	-0.236661	-0.127697	0.963164	0.467328	-0.884081	-0.002384	0.851819	0.449549	0.268904
02593	9.394680	-0.000794	2.581579	0.000360	0.000200	0.007760	-0.236634	-0.127700	0.963170	0.467352	-0.884068	-0.002393	0.851814	0.449573	0.268882
02594	9.420387	-0.039391	2.652852	-0.003117	0.005043	0.004374	-0.236663	-0.127697	0.963164	0.467338	-0.884075	-0.002380	0.851813	0.449560	0.268906
02595	9.400691	-0.043333	2.625001	-0.003593	0.003250	0.006847	-0.236667	-0.127706	0.963162	0.467326	-0.884082	-0.002390	0.851819	0.449545	0.268913
02596	9.397020	-0.035577	2.647816	-0.002713	0.000972	0.006214	-0.236654	-0.127697	0.963166	0.467319	-0.884085	-0.002390	0.851826	0.449540	0.268897
02597	9.396974	-0.036201	2.647971	-0.000322	0.002340	0.006220	-0.236652	-0.127696	0.963166	0.467333	-0.884078	-0.002386	0.851819	0.449555	0.268896
02598	9.407247	-0.023003	2.618227	-0.001755	0.000760	0.007454	-0.236633	-0.127699	0.963171	0.467338	-0.884075	-0.002396	0.851821	0.449560	0.268880
02599	9.413364	-0.065071	2.661199	-0.003593	0.003250	0.006848	-0.236636	-0.127708	0.963169	0.467326	-0.884082	-0.002407	0.851827	0.449544	0.268887
02600	9.403477	-0.015896	2.641396	-0.001002	0.004481	0.004680	-0.236660	-0.127706	0.963163	0.467332	-0.884079	-0.002391	0.851818	0.449551	0.268907
02601	9.407045	-0.024972	2.618934	-0.002032	-0.001170	0.007754	-0.236622	-0.127703	0.963173	0.467335	-0.884077	-0.002406	0.851826	0.449555	0.268872
02602	9.400288	-0.048022	2.626364	-0.001201	0.004617	0.006854	-0.236632	-0.127716	0.963169	0.467343	-0.884073	-0.002411	0.851819	0.449559	0.268888
02603	9.380129	-0.012701	2.636306	0.000558	0.000061	0.005587	-0.236614	-0.127700	0.963175	0.467363	-0.884062	-0.002398	0.851813	0.449585	0.268864
02604	9.430593	-0.071241	2.587140	-0.004550	0.003461	0.005608	-0.236626	-0.127701	0.963172	0.467340	-0.884074	-0.002400	0.851822	0.449561	0.268874
02605	9.426376	-0.024366	2.648047	-0.003792	0.003385	0.009022	-0.236620	-0.127730	0.963170	0.467332	-0.884079	-0.002433	0.851829	0.449544	0.268883
02606	9.396409	-0.042237	2.649883	-0.002513	0.000834	0.004041	-0.236614	-0.127702	0.963175	0.467322	-0.884084	-0.002413	0.851836	0.449542	0.268865
02607	9.396360	-0.042816	2.650048	-0.001478	0.002687	0.007155	-0.236612	-0.127711	0.963174	0.467329	-0.884080	-0.002421	0.851833	0.449546	0.268867
02608	9.413346	-0.007328	2.613125	0.000636	0.002125	0.007461	-0.236602	-0.127721	0.963175	0.467354	-0.884067	-0.002426	0.851821	0.449570	0.268863
02609	9.406588	-0.030257	2.620519	-0.001556	0.000621	0.005281	-0.236590	-0.127704	0.963180	0.467356	-0.884066	-0.002416	0.851824	0.449576	0.268845
02610	9.396200	-0.044762	2.650583	-0.003592	0.003248	0.006848	-0.236597	-0.127714	0.963178	0.467344	-0.884072	-0.002426	0.851829	0.449561	0.268855
02611	9.402896	-0.023101	2.643409	-0.001834	-0.001308	0.005581	-0.236567	-0.127692	0.963188	0.467344	-0.884072	-0.002420	0.851837	0.449567	0.268818
02612	9.410088	-0.040715	2.598279	-0.004749	0.003596	0.007782	-0.236565	-0.127712	0.963186	0.467324	-0.884083	-0.002445	0.851848	0.449542	0.268826
02613	9.425973	-0.029700	2.649424	-0.000321	0.002336	0.006222	-0.236564	-0.127712	0.963186	0.467339	-0.884075	-0.002441	0.851840	0.449557	0.268825
02614	9.416671	-0.019671	2.591524	-0.001278	0.002549	0.004981	-0.236570	-0.127703	0.963186	0.467342	-0.884073	-0.002429	0.851837	0.449563	0.268826
02615	9.372754	-0.042869	2.645809	-0.001756	0.000756	0.007455	-0.236549	-0.127706	0.963190	0.467348	-0.884070	-0.002441	0.851840	0.449567	0.268809
02616	9.429418	-0.040069	2.627378	-0.003592	0.003246	0.006849	-0.236553	-0.127713	0.963188	0.467335	-0.884077	-0.002449	0.851846	0.449552	0.268816
02617	9.356680	-0.055979	2.595306	-0.001556	0.000620	0.005281	-0.236541	-0.127697	0.963194	0.467336	-0.884076	-0.002439	0.851848	0.449558	0.268798
02618	9.402550	-0.027529	2.644599	-0.001357	0.000484	0.003108	-0.236538	-0.127660	0.963199	0.467335	-0.884077	-0.002408	0.851850	0.449567	0.268778
02619	9.382901	-0.031521	2.616599	-0.001599	0.004884	0.011204	-0.236534	-0.127715	0.963193	0.467350	-0.884069	-0.002455	0.851843	0.449567	0.268801
02620	9.402355	-0.028963	2.645274	0.000157	0.004128	0.003749	-0.236560	-0.127703	0.963188	0.467363	-0.884062	-0.002427	0.851828	0.449584	0.268817
02621	9.399158	-0.060228	2.630152	-0.002713	0.000968	0.006215	-0.236547	-0.127696	0.963192	0.467357	-0.884066	-0.002429	0.851835	0.449580	0.268803
02622	9.405850	-0.038492	2.623059	-0.001278	0.002548	0.004982	-0.236553	-0.127685	0.963192	0.467360	-0.884064	-0.002415	0.851832	0.449586	0.268803
02623	9.378982	-0.025478	2.640289	-0.001478	0.002683	0.007156	-0.236550	-0.127694	0.963192	0.467366	-0.884060	-0.002423	0.851829	0.449590	0.268805
02624	9.425280	-0.036433	2.651804	-0.001278	0.002548	0.004982	-0.236555	-0.127687	0.963191	0.467371	-0.884058	-0.002413	0.851825	0.449597	0.268805
02625	9.405650	-0.040252	2.623750	-0.005784	0.001743	0.004668	-0.236555	-0.127670	0.963194	0.467335	-0.884077	-0.002408	0.851845	0.449564	0.268798
02626	9.395289	-0.054793	2.653624	0.000079	-0.001738	0.008062	-0.236509	-0.127668	0.963205	0.467357	-0.884065	-0.002421	0.851846	0.449588	0.268756
02627	9.412373	-0.019360	2.616565	-0.003592	0.003244	0.006850	-0.236513	-0.127677	0.963203	0.467345	-0.884072	-0.002432	0.851851	0.449573	0.268763
02628	9.378775	-0.028788	2.640991	-0.001756	0.000753	0.007456	-0.236493	-0.127680	0.963208	0.467350	-0.884069	-0.002442	0.851854	0.449577	0.268747
02629	9.378700	-0.029453	2.641252	-0.002156	0.004824	0.005617	-0.236516	-0.127685	0.963201	0.467347	-0.884071	-0.002437	0.851849	0.449573	0.268770
02630	9.405389	-0.043685	2.624630	-0.002435	0.002895	0.005916	-0.236523	-0.127682	0.963200	0.467342	-0.884073	-0.002433	0.851850	0.449568	0.268775
02631	9.424888	-0.041032	2.653132	-0.000321	0.002332	0.006223	-0.236522	-0.127682	0.963200	0.467356	-0.884066	-0.002429	0.851842	0.449583	0.268774
02632	9.382114	-0.039851	2.619307	-0.003192	-0.000828	0.008689	-0.236479	-0.127689	0.963210	0.467352	-0.884068	-0.002457	0.851857	0.449577	0.268739
02633	9.405211	-0.045719	2.625232	-0.002833	0.006966	0.004077	-0.236527	-0.127690	0.963198	0.467340	-0.884074	-0.002439	0.851850	0.449564	0.268782
02634	9.388730	-0.018706	2.612556	0.002391	-0.002437	0.006195	-0.236484	-0.127668	0.963211	0.467377	-0.884055	-0.002428	0.851842	0.449609	0.268734
02635	9.415453	-0.032844	2.595813	-0.004947	0.007529	0.003771	-0.236538	-0.127669	0.963198	0.467346	-0.884071	-0.002412	0.851843	0.449576	0.268782
02636	9.411737	-0.025107	2.618803	0.000156	0.000322	0.009937	-0.236505	-0.127694	0.963203	0.467374	-0.884056	-0.002443	0.851838	0.449598	0.268764
02637	9.381747	-0.043102	2.620569	-0.002635	0.003028	0.008091	-0.236500	-0.127713	0.963201	0.467373	-0.884057	-0.002463	0.851839	0.449592	0.268769
02638	9.407995	-0.018328	2.641875	-0.003591	0.003242	0.006850	-0.236504	-0.127721	0.963199	0.467360	-0.884063	-0.002472	0.851845	0.449577	0.268776
02639	9.411529	-0.027393	2.619526	-0.001278	0.002545	0.004983	-0.236510	-0.127711	0.963199	0.467364	-0.884062	-0.002458	0.851842	0.449583	0.268777
02640	9.404696	-0.050145	2.626996	-0.000121	0.002196	0.004049	-0.236516	-0.127692	0.963200	0.467375	-0.884056	-0.002435	0.851834	0.449600	0.268774
02641	9.388275	-0.023218	2.614155	-0.002037	-0.001179	0.007756	-0.236477	-0.127690	0.963210	0.467379	-0.884054	-0.002450	0.851843	0.449604	0.268738
02642	9.384611	-0.015411	2.636956	-0.003111	0.005036	0.004377	-0.236509	-0.127686	0.963203	0.467365	-0.884061	-0.002436	0.851841	0.449591	0.268765
02643	9.388113	-0.024470	2.614723	-0.003591	0.003241	0.006851	-0.236512	-0.127695	0.963201	0.467353	-0.884067	-0.002447	0.851847	0.449576	0.268772
02644	9.437973	-0.043927	2.603751	-0.000998	0.004473	0.004684	-0.236538	-0.127689	0.963195	0.467357	-0.884065	-0.002427	0.851837	0.449582	0.268792
02645	9.407505	-0.022337	2.643588	-0.001557	0.000616	0.005282	-0.236526	-0.127673	0.963200	0.467359	-0.884064	-0.002417	0.851840	0.449589	0.268774
02646	9.414682	-0.039802	2.598510	-0.002434	0.002892	0.005917	-0.236531	-0.127675	0.963199	0.467355	-0.884066	-0.002418	0.851840	0.449584	0.268779
02647	9.411022	-0.031939	2.621296	-0.001557	0.000615	0.005282	-0.236519	-0.127658	0.963204	0.467357	-0.884065	-0.002408	0.851843	0.449591	0.268760
02648	9.381029	-0.049496	2.623025	-0.000121	0.002195	0.004050	-0.236529	-0.127637	0.963204	0.467368	-0.884060	-0.002381	0.851834	0.449607	0.268759
02649	9.434059	-0.038157	2.627420	-0.003311	0.005169	0.006552	-0.236550	-0.127653	0.963197	0.467357	-0.884065	-0.002388	0.851834	0.449592	0.268785
02650	9.384048	-0.019926	2.638930	-0.001837	-0.001314	0.005581	-0.236526	-0.127629	0.963206	0.467357	-0.884066	-0.002378	0.851841	0.449599	0.268753
02651	9.410788	-0.034207	2.622109	-0.001198	0.004605	0.006859	-0.236541	-0.127645	0.963201	0.467365	-0.884061	-0.002382	0.851832	0.449603	0.268773
02652	9.410665	-0.034884	2.622542	-0.001198	0.004604	0.006859	-0.236557	-0.127657	0.963195	0.467373	-0.884057	-0.002384	0.851824	0.449607	0.268793
02653	9.387421	-0.030377	2.617145	-0.001758	0.000747	0.007457	-0.236536	-0.127661	0.963200	0.467378	-0.884054	-0.002395	0.851827	0.449611	0.268777
02654	9.410572	-0.036240	2.622856	-0.001558	0.000614	0.005283	-0.236526	-0.127644	0.963204	0.467379	-0.884054	-0.002385	0.851829	0.449618	0.268760
02655	9.436879	-0.011236	2.644036	-0.001277	0.002542	0.004984	-0.236532	-0.127633	0.963204	0.467383	-0.884052	-0.002371	0.851825	0.449624	0.268760
02656	9.383696	-0.023629	2.640152	-0.003671	0.001178	0.004976	-0.236526	-0.127619	0.963208	0.467366	-0.884061	-0.002366	0.851836	0.449611	0.268748
02657	9.403598	-0.060232	2.630713	-0.003310	0.005167	0.006553	-0.236547	-0.127634	0.963201	0.467356	-0.884066	-0.002373	0.851836	0.449596	0.268773
02658	9.410312	-0.038653	2.623753	-0.001758	0.000746	0.007457	-0.236527	-0.127639	0.963205	0.467361	-0.884063	-0.002385	0.851838	0.449600	0.268759
02659	9.410282	-0.039252	2.623855	0.002949	0.001413	0.005599	-0.236521	-0.127629	0.963208	0.467402	-0.884042	-0.002366	0.851818	0.449645	0.268748
02660	9.393872	-0.012284	2.611107	-0.004828	0.001526	0.005909	-0.236515	-0.127621	0.963210	0.467377	-0.884055	-0.002370	0.851833	0.449621	0.268740
02661	9.433348	-0.045701	2.629850	-0.002434	0.002890	0.005918	-0.236520	-0.127621	0.963209	0.467372	-0.884057	-0.002368	0.851834	0.449617	0.268743
02662	9.383300	-0.027446	2.641522	-0.001197	0.004602	0.006861	-0.236533	-0.127638	0.963203	0.467381	-0.884053	-0.002375	0.851825	0.449622	0.268764
02663	9.433130	-0.046865	2.630614	0.000160	0.004121	0.003752	-0.236559	-0.127624	0.963199	0.467394	-0.884046	-0.002345	0.851812	0.449639	0.268779
02664	9.393525	-0.014609	2.612340	-0.004828	0.001525	0.005909	-0.236550	-0.127620	0.963202	0.467370	-0.884059	-0.002354	0.851827	0.449615	0.268770
02665	9.406272	-0.034533	2.647843	-0.000127	-0.001616	0.010238	-0.236496	-0.127638	0.963213	0.467396	-0.884045	-0.002388	0.851828	0.449637	0.268730
02666	9.413027	-0.012870	2.640791	-0.005021	0.005466	0.001897	-0.236540	-0.127616	0.963205	0.467361	-0.884064	-0.002358	0.851835	0.449606	0.268759
02667	9.393365	-0.016684	2.612903	-0.001678	0.002804	0.009334	-0.236528	-0.127645	0.963204	0.467371	-0.884058	-0.002387	0.851833	0.449609	0.268762
02668	9.399225	-0.058849	2.655882	-0.000321	0.002324	0.006226	-0.236526	-0.127643	0.963204	0.467385	-0.884051	-0.002382	0.851826	0.449624	0.268759
02669	9.396841	-0.026486	2.590766	-0.002434	0.002888	0.005919	-0.236530	-0.127642	0.963203	0.467380	-0.884053	-0.002380	0.851827	0.449619	0.268763
02670	9.412684	-0.015444	2.642002	-0.000040	0.004251	0.005928	-0.236548	-0.127647	0.963198	0.467396	-0.884045	-0.002371	0.851813	0.449634	0.268781
02671	9.439385	-0.029795	2.625297	-0.003872	0.001308	0.007151	-0.236534	-0.127650	0.963202	0.467382	-0.884052	-0.002385	0.851825	0.449619	0.268769
02672	9.396641	-0.028453	2.591467	-0.002715	0.000960	0.006217	-0.236520	-0.127643	0.963206	0.467376	-0.884055	-0.002388	0.851832	0.449615	0.268754
02673	9.428871	-0.045062	2.655425	-0.001478	0.002671	0.007160	-0.236517	-0.127652	0.963205	0.467383	-0.884052	-0.002396	0.851829	0.449619	0.268756
02674	9.366154	-0.007648	2.631407	-0.003671	0.001176	0.004976	-0.236511	-0.127637	0.963209	0.467366	-0.884061	-0.002389	0.851840	0.449606	0.268743
02675	9.405586	-0.040954	2.650186	0.001117	0.003902	0.004994	-0.236528	-0.127632	0.963205	0.467390	-0.884048	-0.002369	0.851822	0.449632	0.268757
02676	9.392769	-0.022472	2.615003	-0.002634	0.003018	0.008094	-0.236523	-0.127656	0.963203	0.467390	-0.884048	-0.002393	0.851824	0.449625	0.268763
02677	9.378668	-0.028582	2.667646	-0.001558	0.000611	0.005284	-0.236511	-0.127639	0.963209	0.467391	-0.884047	-0.002383	0.851826	0.449632	0.268744
02678	9.415833	-0.028991	2.620996	-0.002433	0.002887	0.005919	-0.236517	-0.127637	0.963207	0.467387	-0.884050	-0.002380	0.851827	0.449627	0.268749
02679	9.388983	-0.015917	2.638231	-0.002433	0.002887	0.005919	-0.236522	-0.127636	0.963206	0.467382	-0.884052	-0.002378	0.851828	0.449623	0.268753
02680	9.408895	-0.052672	2.628586	-0.003198	-0.000839	0.008691	-0.236483	-0.127640	0.963215	0.467377	-0.884055	-0.002402	0.851842	0.449616	0.268720
02681	9.415677	-0.031059	2.621533	-0.000995	0.004466	0.004688	-0.236507	-0.127635	0.963210	0.467382	-0.884052	-0.002385	0.851833	0.449623	0.268739
02682	9.392380	-0.026336	2.616363	0.001199	0.005959	0.006872	-0.236535	-0.127658	0.963200	0.467411	-0.884037	-0.002383	0.851809	0.449647	0.268774
02683	9.438633	-0.037460	2.627904	-0.001841	-0.001318	0.005582	-0.236505	-0.127635	0.963211	0.467411	-0.884037	-0.002377	0.851817	0.449653	0.268737
02684	9.369134	-0.022318	2.611008	-0.003590	0.003234	0.006853	-0.236509	-0.127645	0.963208	0.467399	-0.884043	-0.002388	0.851823	0.449638	0.268746
02685	9.415343	-0.033560	2.622699	-0.001195	0.004596	0.006863	-0.236524	-0.127661	0.963203	0.467407	-0.884039	-0.002392	0.851814	0.449642	0.268766
02686	9.415241	-0.034314	2.623057	-0.002634	0.003016	0.008095	-0.236519	-0.127682	0.963201	0.467407	-0.884039	-0.002413	0.851815	0.449636	0.268772
02687	9.391990	-0.029633	2.617728	0.000163	0.004117	0.003754	-0.236545	-0.127667	0.963197	0.467419	-0.884032	-0.002384	0.851801	0.449653	0.268787
02688	9.434613	-0.032306	2.651936	-0.003873	0.001305	0.007151	-0.236528	-0.127672	0.963200	0.467406	-0.884039	-0.002401	0.851813	0.449638	0.268775
02689	9.391863	-0.030936	2.618168	-0.001478	0.002667	0.007161	-0.236525	-0.127681	0.963200	0.467413	-0.884036	-0.002409	0.851811	0.449642	0.268776
02690	9.391766	-0.031629	2.618509	-0.001195	0.004594	0.006863	-0.236538	-0.127699	0.963194	0.467422	-0.884031	-0.002415	0.851802	0.449647	0.268797
02691	9.411261	-0.029098	2.646952	-0.001842	-0.001319	0.005582	-0.236509	-0.127676	0.963204	0.467422	-0.884031	-0.002409	0.851810	0.449653	0.268760
02692	9.411210	-0.029632	2.647126	-0.003106	0.005030	0.004381	-0.236537	-0.127671	0.963198	0.467408	-0.884039	-0.002395	0.851810	0.449640	0.268782
02693	9.391573	-0.033329	2.619180	-0.000321	0.002318	0.006228	-0.236535	-0.127670	0.963199	0.467422	-0.884031	-0.002391	0.851803	0.449655	0.268780
02694	9.394744	-0.003254	2.634823	-0.001478	0.002666	0.007162	-0.236533	-0.127680	0.963198	0.467429	-0.884027	-0.002398	0.851799	0.449659	0.268783
02695	9.437741	-0.045202	2.630983	-0.000321	0.002318	0.006228	-0.236532	-0.127679	0.963198	0.467443	-0.884020	-0.002394	0.851792	0.449674	0.268781
02696	9.391340	-0.035177	2.619992	-0.003106	0.005029	0.004381	-0.236564	-0.127679	0.963190	0.467431	-0.884027	-0.002382	0.851790	0.449661	0.268810
02697	9.387645	-0.027468	2.642892	-0.001962	0.000867	0.009635	-0.236534	-0.127702	0.963195	0.467439	-0.884022	-0.002415	0.851794	0.449664	0.268794
02698	9.403912	-0.055902	2.655850	-0.001761	0.000737	0.007460	-0.236515	-0.127705	0.963199	0.467444	-0.884019	-0.002425	0.851796	0.449668	0.268779
02699	9.387577	-0.028944	2.643120	-0.001276	0.002535	0.004987	-0.236521	-0.127694	0.963199	0.467447	-0.884018	-0.002412	0.851793	0.449674	0.268779
02700	9.417906	-0.051680	2.603704	-0.002716	0.000955	0.006218	-0.236510	-0.127688	0.963202	0.467441	-0.884021	-0.002413	0.851799	0.449670	0.268766
02701	9.391070	-0.038516	2.620912	-0.000993	0.004462	0.004689	-0.236533	-0.127684	0.963197	0.467446	-0.884018	-0.002396	0.851790	0.449676	0.268785
02702	9.397862	-0.016785	2.613955	-0.002716	0.000955	0.006218	-0.236519	-0.127680	0.963201	0.467441	-0.884021	-0.002401	0.851797	0.449672	0.268770
02703	9.417678	-0.053379	2.604492	-0.003105	0.005028	0.004382	-0.236549	-0.127675	0.963195	0.467427	-0.884028	-0.002387	0.851796	0.449659	0.268795
02704	9.390838	-0.040271	2.621715	-0.001761	0.000736	0.007460	-0.236528	-0.127679	0.963199	0.467432	-0.884026	-0.002399	0.851799	0.449663	0.268778
02705	9.413929	-0.046150	2.627579	0.003231	0.003328	0.005305	-0.236539	-0.127675	0.963197	0.467475	-0.884003	-0.002377	0.851773	0.449708	0.268786
02706	9.397556	-0.019254	2.615038	-0.005903	0.003926	0.008722	-0.236539	-0.127704	0.963193	0.467448	-0.884017	-0.002412	0.851788	0.449672	0.268800
02707	9.401085	-0.028423	2.592715	-0.001276	0.002534	0.004987	-0.236545	-0.127694	0.963193	0.467451	-0.884016	-0.002398	0.851784	0.449678	0.268800
02708	9.426324	-0.067311	2.663983	-0.002433	0.002881	0.005921	-0.236550	-0.127693	0.963192	0.467446	-0.884018	-0.002396	0.851785	0.449674	0.268804
02709	9.390450	-0.043404	2.623055	-0.001276	0.002533	0.004987	-0.236556	-0.127682	0.963192	0.467450	-0.884016	-0.002383	0.851782	0.449680	0.268805
02710	9.443546	-0.032335	2.627444	-0.001478	0.002662	0.007163	-0.236553	-0.127692	0.963191	0.467457	-0.884013	-0.002392	0.851779	0.449684	0.268806
02711	9.374039	-0.017078	2.610676	-0.002433	0.002881	0.005921	-0.236557	-0.127692	0.963190	0.467452	-0.884015	-0.002390	0.851780	0.449680	0.268810
02712	9.393519	-0.014641	2.639147	-0.001762	0.000734	0.007460	-0.236537	-0.127696	0.963195	0.467457	-0.884012	-0.002402	0.851783	0.449684	0.268794
02713	9.400680	-0.032108	2.594140	-0.000992	0.004460	0.004690	-0.236560	-0.127691	0.963190	0.467462	-0.884010	-0.002385	0.851774	0.449691	0.268812
02714	9.390156	-0.046516	2.624052	-0.004240	-0.002683	0.005571	-0.236521	-0.127663	0.963203	0.467442	-0.884021	-0.002385	0.851796	0.449677	0.268764
02715	9.416509	-0.021765	2.645358	-0.003021	0.007083	0.006261	-0.236559	-0.127684	0.963191	0.467433	-0.884025	-0.002388	0.851790	0.449662	0.268808
02716	9.366878	-0.042516	2.618838	-0.000889	-0.001542	0.006824	-0.236523	-0.127673	0.963201	0.467444	-0.884019	-0.002392	0.851794	0.449677	0.268770
02717	9.396888	-0.026187	2.617376	-0.002433	0.002880	0.005922	-0.236527	-0.127672	0.963200	0.467440	-0.884022	-0.002390	0.851795	0.449673	0.268774
02718	9.377285	-0.029916	2.589342	-0.002433	0.002880	0.005922	-0.236533	-0.127668	0.963199	0.467435	-0.884024	-0.002386	0.851796	0.449668	0.268778
02719	9.416265	-0.024262	2.646205	-0.001276	0.002532	0.004988	-0.236539	-0.127658	0.963199	0.467438	-0.884023	-0.002372	0.851793	0.449675	0.268778
02720	9.419807	-0.033252	2.623833	-0.002433	0.002879	0.005922	-0.236544	-0.127658	0.963198	0.467434	-0.884025	-0.002371	0.851794	0.449670	0.268782
02721	9.396620	-0.028509	2.618317	-0.001560	0.000604	0.005285	-0.236532	-0.127641	0.963203	0.467435	-0.884024	-0.002361	0.851796	0.449677	0.268764
02722	9.389636	-0.051371	2.625824	0.001203	0.005946	0.006878	-0.236557	-0.127663	0.963194	0.467464	-0.884009	-0.002360	0.851773	0.449701	0.268796
02723	9.392854	-0.021251	2.641468	-0.001845	-0.001323	0.005582	-0.236527	-0.127640	0.963204	0.467464	-0.884009	-0.002354	0.851782	0.449707	0.268760
02724	9.433351	0.008972	2.610317	-0.004259	0.005373	0.005317	-0.236554	-0.127645	0.963197	0.467443	-0.884020	-0.002352	0.851786	0.449683	0.268785
02725	9.385787	-0.044850	2.649247	-0.002634	0.003006	0.008098	-0.236550	-0.127664	0.963196	0.467442	-0.884021	-0.002372	0.851788	0.449677	0.268790
02726	9.379992	-0.004146	2.606810	-0.001478	0.002658	0.007164	-0.236546	-0.127673	0.963195	0.467448	-0.884017	-0.002380	0.851785	0.449681	0.268792
02727	9.389278	-0.054671	2.627038	-0.001561	0.000603	0.005285	-0.236535	-0.127657	0.963201	0.467450	-0.884016	-0.002370	0.851788	0.449687	0.268773
02728	9.415633	-0.029902	2.648396	-0.001193	0.004585	0.006867	-0.236548	-0.127674	0.963195	0.467459	-0.884012	-0.002376	0.851779	0.449692	0.268794
02729	9.419183	-0.039029	2.625992	0.000349	0.000162	0.007770	-0.236521	-0.127677	0.963201	0.467483	-0.883999	-0.002385	0.851773	0.449716	0.268771
02730	9.399294	-0.003712	2.635899	-0.003589	0.003225	0.006856	-0.236522	-0.127687	0.963200	0.467471	-0.884005	-0.002397	0.851780	0.449701	0.268776
02731	9.369461	-0.060407	2.599735	-0.003102	0.005025	0.004383	-0.236552	-0.127682	0.963193	0.467457	-0.884013	-0.002382	0.851779	0.449688	0.268801
02732	9.425869	-0.018598	2.619583	0.000551	0.000034	0.005594	-0.236533	-0.127667	0.963200	0.467478	-0.884002	-0.002372	0.851773	0.449713	0.268777
02733	9.388871	-0.058434	2.628409	-0.001478	0.002657	0.007165	-0.236529	-0.127677	0.963199	0.467484	-0.883998	-0.002380	0.851770	0.449718	0.268779
02734	9.383110	-0.017663	2.585960	-0.001478	0.002656	0.007165	-0.236528	-0.127687	0.963198	0.467492	-0.883994	-0.002388	0.851767	0.449722	0.268782
02735	9.395620	-0.037499	2.621789	-0.000035	0.004235	0.005934	-0.236544	-0.127693	0.963193	0.467508	-0.883986	-0.002380	0.851753	0.449737	0.268799
02736	9.402468	-0.015824	2.614841	-0.002718	0.000950	0.006219	-0.236534	-0.127686	0.963197	0.467501	-0.883989	-0.002381	0.851759	0.449733	0.268787
02737	9.398810	-0.008174	2.637616	0.000432	0.002214	0.009650	-0.236515	-0.127715	0.963197	0.467530	-0.883974	-0.002407	0.851749	0.449754	0.268784
02738	9.391764	-0.031237	2.645243	-0.003017	0.007078	0.006263	-0.236552	-0.127738	0.963185	0.467522	-0.883978	-0.002413	0.851743	0.449740	0.268827
02739	9.398918	-0.048708	2.600259	-0.001847	-0.001326	0.005583	-0.236522	-0.127715	0.963196	0.467522	-0.883978	-0.002407	0.851751	0.449746	0.268790
02740	9.402230	-0.018617	2.615678	-0.002718	0.000949	0.006220	-0.236507	-0.127706	0.963201	0.467515	-0.883982	-0.002408	0.851759	0.449741	0.268772
02741	9.412729	-0.005388	2.586014	-0.000321	0.002307	0.006232	-0.236505	-0.127705	0.963201	0.467529	-0.883974	-0.002404	0.851752	0.449756	0.268771
02742	9.395192	-0.042175	2.623252	-0.001477	0.002654	0.007165	-0.236505	-0.127715	0.963200	0.467536	-0.883971	-0.002410	0.851748	0.449761	0.268775
02743	9.375325	-0.006750	2.633180	-0.003672	0.001170	0.004977	-0.236500	-0.127698	0.963204	0.467519	-0.883980	-0.002403	0.851759	0.449748	0.268762
02744	9.405585	-0.029456	2.593970	-0.000703	0.006381	0.004396	-0.236545	-0.127699	0.963192	0.467525	-0.883976	-0.002380	0.851743	0.449754	0.268802
02745	9.401877	-0.021516	2.616925	-0.001561	0.000600	0.005286	-0.236533	-0.127682	0.963198	0.467527	-0.883976	-0.002370	0.851746	0.449760	0.268784
02746	9.424991	-0.027614	2.622659	0.000145	0.000284	0.009947	-0.236497	-0.127708	0.963203	0.467555	-0.883961	-0.002402	0.851740	0.449782	0.268765
02747	9.378666	-0.017599	2.611523	-0.003100	0.005023	0.004384	-0.236527	-0.127703	0.963196	0.467541	-0.883968	-0.002387	0.851740	0.449769	0.268789
02748	9.401718	-0.023479	2.617480	-0.001561	0.000600	0.005286	-0.236514	-0.127684	0.963202	0.467541	-0.883968	-0.002375	0.851743	0.449775	0.268769
02749	9.394732	-0.046336	2.624827	-0.002432	0.002874	0.005924	-0.236519	-0.127683	0.963201	0.467537	-0.883970	-0.002374	0.851744	0.449771	0.268772
02750	9.421083	-0.021547	2.646309	-0.000989	0.004453	0.004693	-0.236543	-0.127680	0.963195	0.467543	-0.883967	-0.002358	0.851734	0.449777	0.268792
02751	9.375056	-0.050435	2.597085	-0.001562	0.000600	0.005286	-0.236531	-0.127664	0.963201	0.467544	-0.883967	-0.002348	0.851737	0.449783	0.268773
02752	9.390900	-0.039537	2.648197	-0.002432	0.002874	0.005924	-0.236534	-0.127664	0.963200	0.467540	-0.883969	-0.002348	0.851738	0.449779	0.268777
02753	9.420899	-0.023392	2.646949	0.000431	0.002209	0.009651	-0.236515	-0.127693	0.963200	0.467569	-0.883953	-0.002375	0.851727	0.449801	0.268774
02754	9.374554	-0.013339	2.635896	-0.003099	0.005022	0.004385	-0.236546	-0.127691	0.963193	0.467556	-0.883960	-0.002362	0.851726	0.449788	0.268799
02755	9.417375	-0.055378	2.632177	0.000633	0.002082	0.007475	-0.236536	-0.127700	0.963194	0.467581	-0.883947	-0.002367	0.851715	0.449812	0.268795
02756	9.397514	-0.020062	2.642165	-0.002634	0.002999	0.008100	-0.236533	-0.127717	0.963193	0.467580	-0.883948	-0.002385	0.851717	0.449805	0.268800
02757	9.420583	-0.026185	2.648047	-0.002719	0.000946	0.006220	-0.236519	-0.127710	0.963197	0.467573	-0.883951	-0.002387	0.851724	0.449801	0.268785
02758	9.390456	-0.043718	2.649708	-0.002432	0.002873	0.005924	-0.236525	-0.127709	0.963196	0.467569	-0.883953	-0.002385	0.851725	0.449796	0.268790
02759	9.377802	-0.025087	2.614561	-0.002145	0.004799	0.005628	-0.236547	-0.127714	0.963190	0.467566	-0.883955	-0.002380	0.851720	0.449792	0.268812
02760	9.400808	-0.030983	2.620668	0.001123	0.003882	0.005003	-0.236568	-0.127710	0.963185	0.467590	-0.883942	-0.002359	0.851701	0.449818	0.268828
02761	9.407679	-0.009286	2.613797	-0.001478	0.002650	0.007167	-0.236564	-0.127720	0.963185	0.467597	-0.883939	-0.002367	0.851699	0.449822	0.268830
02762	9.400641	-0.032285	2.621250	-0.003588	0.003220	0.006858	-0.236568	-0.127727	0.963183	0.467584	-0.883945	-0.002376	0.851704	0.449807	0.268836
02763	9.413081	-0.052023	2.657111	-0.000785	0.004326	0.002518	-0.236601	-0.127703	0.963178	0.467586	-0.883945	-0.002337	0.851694	0.449815	0.268854
02764	9.396859	-0.024805	2.644453	-0.000608	0.000375	0.006529	-0.236581	-0.127698	0.963184	0.467599	-0.883938	-0.002338	0.851693	0.449830	0.268835
02765	9.404046	-0.042332	2.599365	-0.003588	0.003219	0.006858	-0.236584	-0.127707	0.963182	0.467587	-0.883944	-0.002349	0.851698	0.449815	0.268841
02766	9.400321	-0.034573	2.622369	-0.002144	0.004798	0.005628	-0.236607	-0.127713	0.963175	0.467585	-0.883945	-0.002344	0.851694	0.449811	0.268864
02767	9.400224	-0.035268	2.622708	-0.000524	0.002426	0.008410	-0.236596	-0.127733	0.963175	0.467602	-0.883936	-0.002362	0.851687	0.449824	0.268864
02768	9.419683	-0.032960	2.651172	-0.000609	0.000374	0.006530	-0.236572	-0.127724	0.963182	0.467614	-0.883929	-0.002362	0.851687	0.449839	0.268838
02769	9.416288	-0.064325	2.635860	-0.001478	0.002648	0.007167	-0.236569	-0.127733	0.963182	0.467621	-0.883926	-0.002369	0.851684	0.449844	0.268840
02770	9.407063	-0.015023	2.615986	-0.003673	0.001167	0.004978	-0.236563	-0.127716	0.963186	0.467604	-0.883935	-0.002362	0.851695	0.449831	0.268827
02771	9.387457	-0.018659	2.588039	-0.003013	0.007071	0.006267	-0.236601	-0.127737	0.963173	0.467595	-0.883939	-0.002366	0.851689	0.449816	0.268871
02772	9.429945	-0.021674	2.622521	-0.000321	0.002300	0.006234	-0.236601	-0.127735	0.963174	0.467609	-0.883932	-0.002359	0.851682	0.449831	0.268869
02773	9.422899	-0.044553	2.629935	-0.002432	0.002870	0.005925	-0.236605	-0.127734	0.963173	0.467605	-0.883935	-0.002358	0.851683	0.449826	0.268873
02774	9.396113	-0.031368	2.647034	-0.002719	0.000944	0.006221	-0.236592	-0.127728	0.963177	0.467599	-0.883938	-0.002360	0.851690	0.449822	0.268858
02775	9.399730	-0.040461	2.624403	-0.003007	-0.000983	0.006517	-0.236561	-0.127715	0.963186	0.467591	-0.883942	-0.002366	0.851703	0.449817	0.268825
02776	9.403087	-0.010506	2.639876	-0.003876	0.001291	0.007155	-0.236548	-0.127716	0.963189	0.467576	-0.883950	-0.002378	0.851715	0.449802	0.268813
02777	9.395994	-0.033392	2.647431	-0.002809	0.006945	0.004091	-0.236595	-0.127717	0.963178	0.467564	-0.883956	-0.002360	0.851708	0.449789	0.268856
02778	9.406522	-0.020057	2.617898	-0.001851	-0.001331	0.005583	-0.236652	-0.127727	0.963162	0.467277	-0.884107	-0.002432	0.851849	0.449489	0.268910
02779	9.380016	-0.045987	2.596813	-0.003588	0.003216	0.006859	-0.236655	-0.127736	0.963160	0.467265	-0.884114	-0.002443	0.851855	0.449473	0.268917
02780	9.429511	-0.026824	2.624035	0.000921	0.004001	0.007182	-0.236664	-0.127753	0.963156	0.467292	-0.884099	-0.002445	0.851838	0.449497	0.268932
02781	9.402697	-0.013615	2.641251	-0.000321	0.002298	0.006235	-0.236662	-0.127752	0.963157	0.467307	-0.884092	-0.002441	0.851831	0.449512	0.268930
02782	9.406249	-0.022535	2.618858	-0.002228	0.002745	0.003749	-0.236675	-0.127730	0.963156	0.467298	-0.884097	-0.002417	0.851832	0.449509	0.268932
02783	9.409811	-0.031499	2.596428	-0.004830	0.001513	0.005912	-0.236668	-0.127723	0.963159	0.467273	-0.884110	-0.002422	0.851848	0.449485	0.268922
02784	9.376063	-0.040585	2.620597	-0.000609	0.000371	0.006531	-0.236650	-0.127717	0.963164	0.467285	-0.884103	-0.002421	0.851846	0.449499	0.268903
02785	9.409743	-0.032827	2.596657	-0.001478	0.002644	0.007169	-0.236647	-0.127727	0.963164	0.467292	-0.884100	-0.002429	0.851843	0.449504	0.268905
02786	9.386506	-0.028093	2.591401	-0.003010	0.007067	0.006269	-0.236687	-0.127750	0.963151	0.467284	-0.884104	-0.002434	0.851836	0.449489	0.268952
02787	9.402300	-0.017306	2.642642	-0.001852	-0.001332	0.005583	-0.236658	-0.127728	0.963161	0.467283	-0.884104	-0.002428	0.851845	0.449495	0.268915
02788	9.405900	-0.026365	2.620073	-0.001478	0.002643	0.007169	-0.236657	-0.127734	0.963160	0.467289	-0.884101	-0.002433	0.851842	0.449499	0.268917
02789	9.395231	-0.040900	2.650032	-0.002720	0.000941	0.006221	-0.236643	-0.127728	0.963164	0.467283	-0.884105	-0.002435	0.851849	0.449494	0.268902
02790	9.416419	-0.013793	2.590640	-0.003384	0.003091	0.004683	-0.236655	-0.127717	0.963163	0.467267	-0.884113	-0.002424	0.851854	0.449481	0.268908
02791	9.371986	-0.036741	2.644790	-0.002634	0.002990	0.008103	-0.236651	-0.127736	0.963161	0.467266	-0.884113	-0.002445	0.851856	0.449474	0.268913
02792	9.432341	-0.042820	2.604149	-0.000985	0.004445	0.004697	-0.236673	-0.127734	0.963156	0.467271	-0.884111	-0.002429	0.851847	0.449480	0.268932
02793	9.398564	-0.051862	2.628374	-0.002056	-0.001210	0.007760	-0.236635	-0.127731	0.963166	0.467274	-0.884109	-0.002445	0.851856	0.449484	0.268896
02794	9.401902	-0.021823	2.644025	-0.003095	0.005017	0.004388	-0.236666	-0.127727	0.963159	0.467261	-0.884116	-0.002431	0.851855	0.449471	0.268922
02795	9.405399	-0.030915	2.621824	0.000718	0.004119	0.009361	-0.236665	-0.127763	0.963154	0.467291	-0.884100	-0.002454	0.851838	0.449493	0.268938
02796	9.412310	-0.009406	2.615023	-0.004541	0.003437	0.005617	-0.236679	-0.127763	0.963151	0.467268	-0.884112	-0.002455	0.851847	0.449469	0.268951
02797	9.401593	-0.023890	2.645105	-0.002431	0.002866	0.005927	-0.236684	-0.127763	0.963150	0.467264	-0.884115	-0.002454	0.851848	0.449464	0.268954
02798	9.375017	-0.049744	2.624178	-0.002431	0.002865	0.005927	-0.236689	-0.127761	0.963149	0.467259	-0.884117	-0.002451	0.851849	0.449459	0.268959
02799	9.412104	-0.011347	2.615757	-0.001767	0.000715	0.007465	-0.236668	-0.127764	0.963153	0.467263	-0.884115	-0.002463	0.851853	0.449463	0.268942
02800	9.374916	-0.051110	2.624511	-0.002431	0.002865	0.005927	-0.236673	-0.127763	0.963152	0.467259	-0.884117	-0.002461	0.851854	0.449459	0.268945
02801	9.411984	-0.012699	2.616184	-0.001478	0.002640	0.007170	-0.236669	-0.127773	0.963152	0.467265	-0.884114	-0.002469	0.851851	0.449463	0.268946
02802	9.381760	-0.030115	2.617975	-0.003094	0.005015	0.004388	-0.236699	-0.127768	0.963145	0.467251	-0.884121	-0.002455	0.851851	0.449450	0.268970
02803	9.397754	-0.058356	2.631135	-0.003674	0.001163	0.004979	-0.236693	-0.127752	0.963149	0.467234	-0.884130	-0.002448	0.851862	0.449436	0.268958
02804	9.404730	-0.036674	2.624146	-0.000321	0.002292	0.006237	-0.236691	-0.127750	0.963150	0.467248	-0.884123	-0.002444	0.851855	0.449451	0.268955
02805	9.411687	-0.015021	2.617239	-0.002431	0.002864	0.005927	-0.236696	-0.127750	0.963149	0.467243	-0.884126	-0.002442	0.851856	0.449446	0.268959
02806	9.404608	-0.037921	2.624566	-0.002721	0.000938	0.006222	-0.236683	-0.127743	0.963153	0.467237	-0.884129	-0.002444	0.851863	0.449442	0.268945
02807	9.392110	-0.019299	2.589231	-0.001478	0.002638	0.007171	-0.236680	-0.127752	0.963152	0.467243	-0.884125	-0.002452	0.851861	0.449446	0.268946
02808	9.411515	-0.017013	2.617844	-0.002431	0.002863	0.005927	-0.236684	-0.127749	0.963152	0.467238	-0.884128	-0.002449	0.851863	0.449441	0.268948
02809	9.404376	-0.039936	2.625366	-0.003297	0.005136	0.006566	-0.236705	-0.127764	0.963144	0.467227	-0.884134	-0.002456	0.851862	0.449426	0.268973
02810	9.411332	-0.018402	2.618495	-0.001768	0.000712	0.007466	-0.236681	-0.127766	0.963150	0.467231	-0.884132	-0.002468	0.851867	0.449430	0.268953
02811	9.388192	-0.013565	2.612922	-0.001274	0.002516	0.004994	-0.236687	-0.127755	0.963150	0.467234	-0.884130	-0.002455	0.851864	0.449436	0.268953
02812	9.407619	-0.011153	2.641451	-0.003674	0.001162	0.004979	-0.236678	-0.127738	0.963154	0.467217	-0.884139	-0.002449	0.851876	0.449422	0.268938
02813	9.427249	-0.047867	2.631850	-0.000321	0.002290	0.006237	-0.236676	-0.127738	0.963155	0.467231	-0.884132	-0.002445	0.851868	0.449437	0.268936
02814	9.414769	-0.029177	2.596500	-0.002721	0.000937	0.006222	-0.236663	-0.127734	0.963159	0.467225	-0.884135	-0.002449	0.851875	0.449433	0.268923
02815	9.407499	-0.013076	2.641869	-0.003878	0.001283	0.007156	-0.236648	-0.127737	0.963162	0.467211	-0.884142	-0.002464	0.851887	0.449417	0.268911
02816	9.377293	-0.030472	2.643527	0.001126	0.003868	0.005009	-0.236665	-0.127733	0.963158	0.467235	-0.884130	-0.002445	0.851869	0.449443	0.268924
02817	9.418204	-0.039487	2.574519	-0.001478	0.002636	0.007172	-0.236662	-0.127742	0.963158	0.467241	-0.884126	-0.002453	0.851867	0.449447	0.268925
02818	9.414465	-0.031652	2.597575	-0.000692	0.006366	0.004405	-0.236706	-0.127743	0.963147	0.467248	-0.884123	-0.002430	0.851851	0.449453	0.268965
02819	9.391273	-0.026676	2.592200	-0.003674	0.001162	0.004979	-0.236701	-0.127727	0.963150	0.467231	-0.884132	-0.002423	0.851862	0.449440	0.268952
02820	9.410703	-0.024264	2.620707	0.000836	0.001942	0.005304	-0.236698	-0.127717	0.963152	0.467252	-0.884121	-0.002408	0.851851	0.449465	0.268945
02821	9.380326	-0.002597	2.660395	-0.003878	0.001282	0.007157	-0.236683	-0.127720	0.963156	0.467238	-0.884128	-0.002422	0.851862	0.449450	0.268934
02822	9.426613	-0.053260	2.634022	-0.003092	0.005013	0.004390	-0.236715	-0.127714	0.963148	0.467224	-0.884136	-0.002406	0.851861	0.449437	0.268960
02823	9.410466	-0.026142	2.621540	-0.003587	0.003208	0.006862	-0.236718	-0.127724	0.963146	0.467212	-0.884142	-0.002417	0.851867	0.449421	0.268967
02824	9.380228	-0.043401	2.623273	0.001331	0.003746	0.002832	-0.236745	-0.127698	0.963143	0.467231	-0.884132	-0.002374	0.851849	0.449449	0.268978
02825	9.433434	-0.032711	2.627696	-0.000155	-0.001669	0.010249	-0.236691	-0.127715	0.963154	0.467256	-0.884119	-0.002408	0.851850	0.449470	0.268938
02826	9.387223	-0.022714	2.616337	-0.005900	0.003901	0.008730	-0.236690	-0.127745	0.963151	0.467229	-0.884133	-0.002445	0.851865	0.449434	0.268952
02827	9.433315	-0.034427	2.628101	-0.001274	0.002513	0.004995	-0.236696	-0.127734	0.963151	0.467232	-0.884131	-0.002431	0.851862	0.449440	0.268952
02828	9.413781	-0.038000	2.599967	-0.000525	0.002407	0.008416	-0.236687	-0.127755	0.963150	0.467250	-0.884122	-0.002449	0.851855	0.449453	0.268954
02829	9.397687	-0.010969	2.587347	-0.002430	0.002860	0.005929	-0.236692	-0.127754	0.963149	0.467246	-0.884124	-0.002448	0.851856	0.449448	0.268957
02830	9.410009	-0.030883	2.623127	-0.003383	0.003086	0.004685	-0.236705	-0.127740	0.963147	0.467229	-0.884133	-0.002433	0.851861	0.449434	0.268963
02831	9.386843	-0.025965	2.617671	-0.002430	0.002859	0.005929	-0.236710	-0.127739	0.963146	0.467224	-0.884135	-0.002432	0.851863	0.449430	0.268966
02832	9.447102	0.007019	2.615047	-0.002518	0.000814	0.004045	-0.236705	-0.127715	0.963151	0.467215	-0.884140	-0.002415	0.851869	0.449427	0.268951
02833	9.402758	-0.054735	2.630891	-0.003383	0.003086	0.004685	-0.236717	-0.127705	0.963149	0.467200	-0.884149	-0.002404	0.851874	0.449414	0.268957
02834	9.397333	-0.013738	2.588619	-0.001186	0.004557	0.006879	-0.236733	-0.127720	0.963143	0.467208	-0.884144	-0.002408	0.851865	0.449418	0.268978
02835	9.395337	-0.039245	2.676764	-0.001770	0.000706	0.007467	-0.236712	-0.127723	0.963148	0.467213	-0.884142	-0.002419	0.851868	0.449422	0.268961
02836	9.409607	-0.034530	2.624522	-0.001478	0.002631	0.007173	-0.236710	-0.127732	0.963147	0.467219	-0.884138	-0.002427	0.851866	0.449426	0.268963
02837	9.405914	-0.026841	2.647404	-0.001478	0.002631	0.007173	-0.236707	-0.127741	0.963147	0.467225	-0.884135	-0.002435	0.851863	0.449430	0.268965
02838	9.386406	-0.030471	2.619189	-0.001770	0.000706	0.007467	-0.236685	-0.127747	0.963151	0.467231	-0.884132	-0.002448	0.851866	0.449434	0.268948
02839	9.405821	-0.028304	2.647717	-0.001478	0.002631	0.007173	-0.236682	-0.127756	0.963151	0.467237	-0.884129	-0.002457	0.851863	0.449439	0.268950
02840	9.382693	-0.023527	2.642135	-0.001770	0.000705	0.007468	-0.236663	-0.127759	0.963155	0.467242	-0.884126	-0.002467	0.851866	0.449443	0.268934
02841	9.419993	-0.024102	2.595857	-0.004702	0.007390	0.001609	-0.236726	-0.127741	0.963142	0.467208	-0.884144	-0.002430	0.851867	0.449412	0.268981
02842	9.396805	-0.019103	2.590498	-0.001770	0.000705	0.007468	-0.236706	-0.127744	0.963147	0.467212	-0.884142	-0.002442	0.851870	0.449416	0.268965
02843	9.409141	-0.039181	2.626127	0.000631	0.002056	0.007484	-0.236696	-0.127753	0.963148	0.467237	-0.884128	-0.002447	0.851859	0.449440	0.268961
02844	9.386011	-0.034352	2.620554	-0.004831	0.001506	0.005913	-0.236690	-0.127747	0.963150	0.467213	-0.884142	-0.002452	0.851875	0.449416	0.268952
02845	9.432112	-0.046034	2.632238	-0.002430	0.002857	0.005930	-0.236694	-0.127746	0.963149	0.467208	-0.884144	-0.002451	0.851876	0.449411	0.268956
02846	9.396588	-0.021775	2.591267	-0.002430	0.002856	0.005930	-0.236696	-0.127745	0.963149	0.467203	-0.884147	-0.002450	0.851878	0.449406	0.268957
02847	9.392895	-0.013936	2.614154	-0.001273	0.002510	0.004996	-0.236702	-0.127734	0.963149	0.467206	-0.884145	-0.002437	0.851875	0.449412	0.268957
02848	9.385779	-0.036886	2.621352	-0.003220	-0.000876	0.008696	-0.236661	-0.127738	0.963159	0.467200	-0.884148	-0.002462	0.851889	0.449405	0.268923
02849	9.389171	-0.006917	2.637150	-0.002796	0.006934	0.004098	-0.236709	-0.127740	0.963147	0.467188	-0.884154	-0.002444	0.851883	0.449392	0.268966
02850	9.412147	-0.013043	2.643250	-0.001770	0.000703	0.007468	-0.236689	-0.127743	0.963151	0.467193	-0.884152	-0.002455	0.851885	0.449396	0.268950
02851	9.385601	-0.038828	2.621962	-0.001859	-0.001341	0.005584	-0.236660	-0.127720	0.963161	0.467192	-0.884152	-0.002449	0.851894	0.449402	0.268913
02852	9.415747	-0.022716	2.620682	-0.004538	0.003430	0.005620	-0.236668	-0.127717	0.963160	0.467168	-0.884165	-0.002449	0.851905	0.449378	0.268919
02853	9.392590	-0.017870	2.615224	-0.001478	0.002627	0.007175	-0.236665	-0.127727	0.963159	0.467175	-0.884161	-0.002458	0.851902	0.449382	0.268921
02854	9.415593	-0.024066	2.621224	-0.002430	0.002855	0.005930	-0.236668	-0.127726	0.963158	0.467171	-0.884164	-0.002457	0.851904	0.449378	0.268924
02855	9.385315	-0.041432	2.622945	-0.001184	0.004552	0.006881	-0.236683	-0.127742	0.963153	0.467179	-0.884159	-0.002462	0.851895	0.449382	0.268944
02856	9.392324	-0.019880	2.616165	-0.001478	0.002626	0.007175	-0.236679	-0.127754	0.963152	0.467186	-0.884155	-0.002473	0.851892	0.449386	0.268946
02857	9.395903	-0.028903	2.593679	-0.001566	0.000583	0.005290	-0.236667	-0.127738	0.963157	0.467187	-0.884155	-0.002463	0.851895	0.449392	0.268927
02858	9.381458	-0.034838	2.646393	-0.000686	0.006358	0.004410	-0.236708	-0.127741	0.963147	0.467195	-0.884151	-0.002443	0.851879	0.449399	0.268966
02859	9.415196	-0.027030	2.622623	-0.001860	-0.001342	0.005584	-0.236679	-0.127718	0.963157	0.467194	-0.884151	-0.002437	0.851888	0.449404	0.268929
02860	9.392072	-0.022131	2.617053	-0.003293	0.005125	0.006571	-0.236699	-0.127733	0.963150	0.467183	-0.884157	-0.002444	0.851888	0.449389	0.268954
02861	9.391989	-0.022916	2.617342	-0.002928	0.001046	0.008403	-0.236677	-0.127746	0.963154	0.467180	-0.884159	-0.002468	0.851896	0.449383	0.268940
02862	9.395563	-0.031997	2.594872	-0.001273	0.002507	0.004997	-0.236683	-0.127733	0.963154	0.467183	-0.884157	-0.002452	0.851893	0.449389	0.268940
02863	9.404171	-0.043594	2.653364	-0.003293	0.005125	0.006572	-0.236704	-0.127748	0.963147	0.467172	-0.884163	-0.002459	0.851893	0.449373	0.268965
02864	9.388086	-0.016451	2.640968	-0.002136	0.004778	0.005638	-0.236727	-0.127754	0.963140	0.467170	-0.884164	-0.002455	0.851888	0.449369	0.268988
02865	9.414730	-0.031078	2.624247	-0.002065	-0.001226	0.007762	-0.236688	-0.127752	0.963150	0.467173	-0.884163	-0.002470	0.851897	0.449373	0.268952
02866	9.391592	-0.026139	2.618738	-0.000685	0.006356	0.004411	-0.236728	-0.127752	0.963140	0.467179	-0.884159	-0.002449	0.851882	0.449379	0.268989
02867	9.414557	-0.032397	2.624852	-0.004085	0.001391	0.009337	-0.236704	-0.127775	0.963143	0.467168	-0.884165	-0.002485	0.851895	0.449362	0.268978
02868	9.391436	-0.027590	2.619283	-0.001273	0.002506	0.004997	-0.236710	-0.127767	0.963143	0.467172	-0.884163	-0.002474	0.851891	0.449368	0.268979
02869	9.398520	-0.005868	2.612320	-0.001567	0.000581	0.005291	-0.236698	-0.127750	0.963148	0.467173	-0.884162	-0.002464	0.851894	0.449374	0.268961
02870	9.414417	-0.034290	2.625330	-0.001478	0.002623	0.007176	-0.236692	-0.127760	0.963148	0.467180	-0.884159	-0.002474	0.851892	0.449378	0.268961
02871	9.425076	-0.021035	2.595917	-0.000979	0.004430	0.004704	-0.236716	-0.127756	0.963143	0.467185	-0.884156	-0.002457	0.851882	0.449384	0.268979
02872	9.410663	-0.027101	2.648422	0.000042	-0.001803	0.008073	-0.236671	-0.127755	0.963154	0.467207	-0.884144	-0.002471	0.851883	0.449408	0.268940
02873	9.375250	-0.002750	2.607295	-0.000978	0.004430	0.004705	-0.236695	-0.127751	0.963149	0.467212	-0.884142	-0.002454	0.851874	0.449414	0.268958
02874	9.391040	-0.031000	2.620661	-0.000684	0.006355	0.004411	-0.236738	-0.127756	0.963137	0.467220	-0.884138	-0.002434	0.851857	0.449420	0.268999
02875	9.413988	-0.037029	2.626832	-0.001273	0.002505	0.004998	-0.236744	-0.127745	0.963137	0.467223	-0.884136	-0.002421	0.851854	0.449427	0.269000
02876	9.421070	-0.015382	2.619915	-0.004832	0.001502	0.005914	-0.236735	-0.127736	0.963141	0.467197	-0.884150	-0.002426	0.851871	0.449402	0.268987
02877	9.413874	-0.038276	2.627223	-0.002429	0.002851	0.005932	-0.236739	-0.127735	0.963140	0.467193	-0.884152	-0.002424	0.851872	0.449398	0.268990
02878	9.394382	-0.041743	2.599006	-0.002724	0.000926	0.006225	-0.236728	-0.127726	0.963144	0.467185	-0.884156	-0.002423	0.851879	0.449393	0.268976
02879	9.417262	-0.008905	2.643203	-0.002135	0.004775	0.005639	-0.236750	-0.127732	0.963138	0.467183	-0.884158	-0.002419	0.851874	0.449389	0.268998
02880	9.387064	-0.065252	2.606721	-0.001478	0.002620	0.007177	-0.236748	-0.127740	0.963137	0.467189	-0.884154	-0.002425	0.851872	0.449393	0.269000
02881	9.420712	-0.018572	2.621181	-0.003381	0.003080	0.004687	-0.236760	-0.127729	0.963136	0.467173	-0.884163	-0.002415	0.851877	0.449379	0.269006
02882	9.371044	-0.038612	2.594209	-0.001862	-0.001346	0.005584	-0.236727	-0.127706	0.963147	0.467172	-0.884163	-0.002409	0.851887	0.449385	0.268966
02883	9.413465	-0.041985	2.628630	-0.002996	0.007045	0.006280	-0.236765	-0.127727	0.963135	0.467164	-0.884168	-0.002413	0.851881	0.449370	0.269009
02884	9.401083	-0.023156	2.593465	0.000541	0.000002	0.005602	-0.236748	-0.127710	0.963141	0.467183	-0.884157	-0.002399	0.851875	0.449395	0.268986
02885	9.390270	-0.037569	2.623335	-0.002429	0.002849	0.005932	-0.236752	-0.127709	0.963140	0.467179	-0.884160	-0.002398	0.851876	0.449391	0.268990
02886	9.374289	-0.010315	2.610728	-0.001272	0.002503	0.004998	-0.236762	-0.127699	0.963139	0.467182	-0.884158	-0.002383	0.851871	0.449397	0.268994
02887	9.423963	-0.030425	2.599861	-0.002429	0.002849	0.005932	-0.236766	-0.127698	0.963138	0.467177	-0.884160	-0.002381	0.851873	0.449392	0.268997
02888	9.420288	-0.022825	2.622671	-0.001978	0.000810	0.009649	-0.236738	-0.127721	0.963142	0.467185	-0.884156	-0.002414	0.851876	0.449394	0.268983
02889	9.416746	-0.054085	2.607162	0.000746	-0.000114	0.003424	-0.236728	-0.127685	0.963149	0.467202	-0.884147	-0.002380	0.851870	0.449422	0.268958
02890	9.397154	-0.018273	2.617173	-0.003085	0.005003	0.004395	-0.236757	-0.127681	0.963143	0.467188	-0.884155	-0.002367	0.851869	0.449409	0.268981
02891	9.389842	-0.041182	2.624812	-0.001093	0.006583	0.008771	-0.236780	-0.127722	0.963132	0.467202	-0.884147	-0.002390	0.851855	0.449411	0.269020
02892	9.419938	-0.025211	2.623907	-0.001272	0.002502	0.004999	-0.236786	-0.127713	0.963131	0.467205	-0.884146	-0.002377	0.851852	0.449417	0.269021
02893	9.377375	-0.023048	2.590008	-0.003586	0.003194	0.006867	-0.236789	-0.127722	0.963129	0.467193	-0.884152	-0.002388	0.851858	0.449402	0.269028
02894	9.416185	-0.018083	2.646990	-0.001568	0.000577	0.005292	-0.236775	-0.127705	0.963135	0.467194	-0.884152	-0.002378	0.851861	0.449408	0.269008
02895	9.385920	-0.035354	2.648468	-0.001478	0.002617	0.007178	-0.236772	-0.127714	0.963135	0.467201	-0.884148	-0.002387	0.851858	0.449412	0.269009
02896	9.396651	-0.022105	2.618950	0.000835	0.001925	0.005310	-0.236771	-0.127701	0.963136	0.467221	-0.884137	-0.002367	0.851847	0.449437	0.269003
02897	9.393047	-0.053324	2.603617	-0.001478	0.002617	0.007178	-0.236768	-0.127710	0.963136	0.467228	-0.884134	-0.002376	0.851845	0.449441	0.269004
02898	9.419566	-0.029022	2.625202	-0.003586	0.003193	0.006867	-0.236770	-0.127720	0.963134	0.467216	-0.884140	-0.002388	0.851851	0.449426	0.269010
02899	9.369766	-0.009942	2.636542	0.001041	0.001809	0.003131	-0.236778	-0.127690	0.963136	0.467234	-0.884130	-0.002350	0.851838	0.449454	0.269004
02900	9.419439	-0.030017	2.625645	-0.001478	0.002616	0.007178	-0.236775	-0.127699	0.963136	0.467241	-0.884127	-0.002358	0.851836	0.449458	0.269005
02901	9.385538	-0.038947	2.649773	-0.002725	0.000922	0.006226	-0.236761	-0.127692	0.963140	0.467234	-0.884130	-0.002360	0.851843	0.449453	0.268990
02902	9.373265	-0.020100	2.614346	-0.001568	0.000576	0.005292	-0.236748	-0.127679	0.963145	0.467236	-0.884129	-0.002354	0.851845	0.449459	0.268972
02903	9.419353	-0.031842	2.625935	-0.001568	0.000576	0.005292	-0.236736	-0.127662	0.963150	0.467238	-0.884129	-0.002344	0.851848	0.449465	0.268954
02904	9.369647	-0.051941	2.599015	-0.002635	0.002961	0.008112	-0.236732	-0.127679	0.963149	0.467236	-0.884130	-0.002362	0.851850	0.449458	0.268958
02905	9.422820	-0.002476	2.641785	0.000745	-0.000116	0.003424	-0.236723	-0.127643	0.963156	0.467252	-0.884121	-0.002328	0.851844	0.449486	0.268933
02906	9.392529	-0.019592	2.643313	-0.001182	0.004539	0.006886	-0.236737	-0.127662	0.963150	0.467262	-0.884116	-0.002336	0.851834	0.449490	0.268955
02907	9.396001	-0.028655	2.621218	-0.002993	0.007040	0.006283	-0.236776	-0.127683	0.963138	0.467253	-0.884120	-0.002339	0.851828	0.449475	0.268998
02908	9.395899	-0.029258	2.621575	-0.001568	0.000575	0.005292	-0.236764	-0.127667	0.963143	0.467255	-0.884120	-0.002330	0.851831	0.449481	0.268981
02909	9.380018	-0.002060	2.608777	-0.001774	0.000690	0.007471	-0.236742	-0.127671	0.963148	0.467259	-0.884117	-0.002342	0.851834	0.449485	0.268963
02910	9.411695	-0.058325	2.634650	-0.002223	0.002731	0.003755	-0.236754	-0.127650	0.963148	0.467251	-0.884122	-0.002320	0.851836	0.449483	0.268964
02911	9.392159	-0.022627	2.644604	-0.002725	0.000921	0.006226	-0.236740	-0.127643	0.963152	0.467245	-0.884125	-0.002322	0.851843	0.449478	0.268948
02912	9.425976	-0.014981	2.620812	-0.001272	0.002499	0.005000	-0.236747	-0.127634	0.963151	0.467248	-0.884123	-0.002310	0.851839	0.449484	0.268950
02913	9.376259	-0.034912	2.593911	-0.005783	0.001730	0.004670	-0.236748	-0.127617	0.963153	0.467212	-0.884142	-0.002305	0.851859	0.449451	0.268943
02914	9.429490	-0.024464	2.598569	-0.001272	0.002499	0.005000	-0.236749	-0.127607	0.963154	0.467215	-0.884141	-0.002295	0.851857	0.449457	0.268939
02915	9.395580	-0.033315	2.622669	-0.001775	0.000688	0.007472	-0.236727	-0.127610	0.963159	0.467220	-0.884138	-0.002306	0.851860	0.449461	0.268922
02916	9.411357	-0.061832	2.635779	-0.002132	0.004768	0.005642	-0.236749	-0.127616	0.963153	0.467217	-0.884139	-0.002302	0.851855	0.449457	0.268944
02917	9.391806	-0.026112	2.645826	-0.002519	0.000806	0.004047	-0.236745	-0.127590	0.963158	0.467208	-0.884145	-0.002283	0.851862	0.449454	0.268927
02918	9.375910	0.001206	2.633143	-0.002429	0.002844	0.005934	-0.236748	-0.127586	0.963157	0.467202	-0.884148	-0.002279	0.851864	0.449450	0.268929
02919	9.411155	-0.063447	2.636460	-0.001272	0.002498	0.005000	-0.236754	-0.127575	0.963157	0.467205	-0.884146	-0.002266	0.851861	0.449456	0.268929
02920	9.425487	-0.019344	2.622542	-0.002016	0.002616	0.001576	-0.236773	-0.127533	0.963158	0.467193	-0.884152	-0.002222	0.851862	0.449455	0.268926
02921	9.387970	-0.019669	2.669191	-0.002072	-0.001237	0.007764	-0.236734	-0.127530	0.963168	0.467196	-0.884151	-0.002237	0.851871	0.449459	0.268890
02922	9.395143	-0.037165	2.624182	-0.002991	0.007037	0.006285	-0.236771	-0.127552	0.963156	0.467187	-0.884155	-0.002242	0.851866	0.449444	0.268933
02923	9.432464	0.001166	2.616273	-0.003173	0.002962	0.002510	-0.236792	-0.127521	0.963155	0.467168	-0.884166	-0.002209	0.851870	0.449433	0.268938
02924	9.368271	-0.024101	2.641759	-0.000321	0.002265	0.006246	-0.236791	-0.127522	0.963155	0.467183	-0.884158	-0.002206	0.851863	0.449447	0.268937
02925	9.394871	-0.038724	2.625134	-0.002429	0.002843	0.005935	-0.236795	-0.127522	0.963154	0.467178	-0.884160	-0.002205	0.851864	0.449443	0.268940
02926	9.375360	-0.003119	2.635099	-0.002726	0.000918	0.006227	-0.236782	-0.127516	0.963158	0.467172	-0.884163	-0.002208	0.851871	0.449438	0.268926
02927	9.428646	-0.031795	2.601548	-0.002428	0.002842	0.005935	-0.236786	-0.127515	0.963157	0.467168	-0.884166	-0.002207	0.851872	0.449434	0.268929
02928	9.371680	-0.034945	2.619867	-0.001569	0.000572	0.005293	-0.236774	-0.127496	0.963163	0.467168	-0.884166	-0.002195	0.851875	0.449439	0.268910
02929	9.424906	-0.024498	2.624585	-0.000974	0.004420	0.004709	-0.236798	-0.127492	0.963158	0.467173	-0.884163	-0.002178	0.851866	0.449446	0.268928
02930	9.394533	-0.041658	2.626299	-0.001180	0.004533	0.006889	-0.236810	-0.127507	0.963153	0.467182	-0.884159	-0.002184	0.851858	0.449450	0.268947
02931	9.401705	-0.020059	2.619376	-0.001867	-0.001352	0.005585	-0.236780	-0.127485	0.963163	0.467181	-0.884159	-0.002178	0.851867	0.449456	0.268910
02932	9.424701	-0.026329	2.625305	-0.001180	0.004532	0.006889	-0.236796	-0.127502	0.963157	0.467190	-0.884154	-0.002183	0.851857	0.449460	0.268932
02933	9.378558	-0.015696	2.613973	-0.000619	0.000339	0.006538	-0.236776	-0.127496	0.963162	0.467202	-0.884148	-0.002183	0.851856	0.449475	0.268911
02934	9.417388	-0.049867	2.632691	-0.004833	0.001496	0.005915	-0.236768	-0.127491	0.963165	0.467178	-0.884161	-0.002190	0.851872	0.449451	0.268902
02935	9.405143	-0.031077	2.597390	-0.001478	0.002608	0.007181	-0.236765	-0.127500	0.963165	0.467184	-0.884157	-0.002198	0.851869	0.449455	0.268903
02936	9.367566	-0.031588	2.644179	0.000629	0.002029	0.007493	-0.236757	-0.127511	0.963165	0.467210	-0.884144	-0.002204	0.851857	0.449479	0.268901
02937	9.420795	-0.021275	2.648913	-0.003378	0.003074	0.004690	-0.236769	-0.127500	0.963164	0.467194	-0.884152	-0.002194	0.851863	0.449465	0.268907
02938	9.389135	-0.005120	2.585236	0.000629	0.002028	0.007493	-0.236761	-0.127514	0.963164	0.467221	-0.884138	-0.002201	0.851850	0.449489	0.268906
02939	9.394012	-0.047458	2.628063	-0.005485	0.003652	0.004378	-0.236779	-0.127503	0.963161	0.467187	-0.884156	-0.002193	0.851864	0.449456	0.268918
02940	9.401165	-0.025857	2.621261	0.000629	0.002028	0.007493	-0.236769	-0.127516	0.963161	0.467213	-0.884142	-0.002202	0.851852	0.449480	0.268915
02941	9.411959	-0.012671	2.591782	-0.002428	0.002840	0.005936	-0.236773	-0.127516	0.963161	0.467208	-0.884145	-0.002201	0.851854	0.449476	0.268918
02942	9.413189	-0.046647	2.657276	-0.004535	0.003419	0.005624	-0.236784	-0.127517	0.963158	0.467186	-0.884156	-0.002204	0.851863	0.449452	0.268928
02943	9.400935	-0.027827	2.622066	-0.001478	0.002606	0.007182	-0.236780	-0.127526	0.963157	0.467192	-0.884153	-0.002212	0.851861	0.449456	0.268929
02944	9.393622	-0.050670	2.629396	-0.003378	0.003073	0.004690	-0.236792	-0.127514	0.963156	0.467176	-0.884162	-0.002200	0.851866	0.449442	0.268934
02945	9.408054	-0.006855	2.615417	0.000330	0.000102	0.007785	-0.236765	-0.127517	0.963162	0.467199	-0.884149	-0.002209	0.851861	0.449466	0.268911
02946	9.400729	-0.029653	2.622783	-0.000674	0.006341	0.004419	-0.236805	-0.127519	0.963152	0.467206	-0.884146	-0.002189	0.851846	0.449472	0.268948
02947	9.400630	-0.030152	2.623135	-0.003677	0.001149	0.004982	-0.236800	-0.127503	0.963156	0.467189	-0.884155	-0.002182	0.851857	0.449459	0.268935
02948	9.400586	-0.030779	2.623284	0.000629	0.002025	0.007494	-0.236791	-0.127513	0.963157	0.467214	-0.884141	-0.002188	0.851846	0.449482	0.268932
02949	9.400546	-0.031451	2.623421	-0.002727	0.000915	0.006228	-0.236777	-0.127506	0.963161	0.467208	-0.884145	-0.002190	0.851853	0.449478	0.268917
02950	9.427146	-0.007210	2.644956	-0.001478	0.002604	0.007182	-0.236772	-0.127516	0.963161	0.467215	-0.884141	-0.002200	0.851850	0.449482	0.268918
02951	9.373801	-0.057642	2.602375	-0.002520	0.000803	0.004048	-0.236768	-0.127490	0.963165	0.467205	-0.884146	-0.002181	0.851857	0.449479	0.268902
02952	9.404025	-0.002700	2.639488	-0.001478	0.002604	0.007182	-0.236766	-0.127501	0.963164	0.467212	-0.884143	-0.002190	0.851854	0.449483	0.268904
02953	9.400328	-0.033919	2.624171	-0.003378	0.003072	0.004691	-0.236778	-0.127490	0.963163	0.467196	-0.884151	-0.002179	0.851859	0.449470	0.268910
02954	9.430512	-0.018075	2.623237	0.000721	0.004059	0.009383	-0.236776	-0.127526	0.963159	0.467227	-0.884135	-0.002203	0.851843	0.449492	0.268925
02955	9.346796	-0.046063	2.620428	-0.004978	0.005463	0.001908	-0.236821	-0.127501	0.963151	0.467191	-0.884154	-0.002170	0.851850	0.449461	0.268954
02956	9.430312	-0.019181	2.623948	0.000329	0.000100	0.007786	-0.236795	-0.127507	0.963156	0.467215	-0.884141	-0.002181	0.851844	0.449485	0.268933
02957	9.396364	-0.028060	2.647983	-0.001478	0.002603	0.007183	-0.236791	-0.127516	0.963156	0.467222	-0.884138	-0.002189	0.851842	0.449489	0.268934
02958	9.399913	-0.037164	2.625611	-0.003585	0.003182	0.006871	-0.236793	-0.127524	0.963155	0.467209	-0.884144	-0.002199	0.851848	0.449474	0.268940
02959	9.410700	-0.023929	2.596269	-0.000972	0.004414	0.004712	-0.236816	-0.127520	0.963149	0.467214	-0.884142	-0.002182	0.851839	0.449480	0.268958
02960	9.396080	-0.029996	2.648966	-0.003585	0.003182	0.006871	-0.236820	-0.127530	0.963147	0.467202	-0.884148	-0.002193	0.851844	0.449465	0.268966
02961	9.403260	-0.047476	2.603951	-0.001478	0.002602	0.007183	-0.236816	-0.127539	0.963147	0.467208	-0.884144	-0.002201	0.851842	0.449469	0.268967
02962	9.399571	-0.039590	2.626801	0.001042	0.001800	0.003135	-0.236824	-0.127511	0.963149	0.467227	-0.884135	-0.002166	0.851829	0.449497	0.268961
02963	9.406770	-0.017879	2.619981	-0.003585	0.003181	0.006871	-0.236827	-0.127520	0.963147	0.467215	-0.884141	-0.002176	0.851835	0.449481	0.268968
02964	9.406690	-0.018560	2.620264	-0.002428	0.002836	0.005937	-0.236831	-0.127522	0.963146	0.467211	-0.884143	-0.002178	0.851836	0.449477	0.268972
02965	9.399348	-0.041443	2.627571	-0.001478	0.002601	0.007183	-0.236827	-0.127531	0.963145	0.467218	-0.884140	-0.002186	0.851834	0.449481	0.268973
02966	9.383523	-0.014201	2.614977	-0.002428	0.002835	0.005937	-0.236830	-0.127530	0.963145	0.467213	-0.884142	-0.002185	0.851835	0.449477	0.268975
02967	9.399209	-0.042660	2.628048	0.000835	0.001909	0.005316	-0.236829	-0.127520	0.963146	0.467235	-0.884130	-0.002169	0.851824	0.449502	0.268969
02968	9.399124	-0.043133	2.628345	-0.000971	0.004413	0.004713	-0.236852	-0.127512	0.963142	0.467239	-0.884129	-0.002150	0.851815	0.449508	0.268986
02969	9.406313	-0.021660	2.621593	-0.006198	0.001948	0.009030	-0.236834	-0.127534	0.963143	0.467210	-0.884144	-0.002188	0.851836	0.449471	0.268980
02970	9.406226	-0.022506	2.621897	-0.001178	0.004523	0.006893	-0.236847	-0.127552	0.963138	0.467218	-0.884139	-0.002195	0.851828	0.449476	0.269000
02971	9.375835	-0.039607	2.623474	-0.001271	0.002489	0.005004	-0.236852	-0.127541	0.963138	0.467222	-0.884138	-0.002182	0.851824	0.449482	0.269000
02972	9.429052	-0.029301	2.628378	-0.003077	0.004993	0.004401	-0.236884	-0.127537	0.963131	0.467208	-0.884145	-0.002167	0.851823	0.449469	0.269026
02973	9.352614	-0.035002	2.618377	-0.001478	0.002599	0.007184	-0.236880	-0.127546	0.963130	0.467215	-0.884141	-0.002175	0.851821	0.449473	0.269027
02974	9.425246	-0.022203	2.651635	-0.002428	0.002834	0.005938	-0.236884	-0.127547	0.963129	0.467210	-0.884143	-0.002176	0.851822	0.449469	0.269031
02975	9.379113	-0.050368	2.602053	-0.002428	0.002834	0.005938	-0.236888	-0.127547	0.963128	0.467206	-0.884146	-0.002174	0.851823	0.449464	0.269034
02976	9.409367	0.004529	2.639304	-0.001271	0.002488	0.005004	-0.236892	-0.127534	0.963129	0.467208	-0.884145	-0.002160	0.851821	0.449470	0.269032
02977	9.401988	-0.057248	2.608343	-0.001479	0.002598	0.007184	-0.236888	-0.127543	0.963129	0.467215	-0.884141	-0.002169	0.851818	0.449474	0.269033
02978	9.382570	-0.021443	2.618346	0.001042	0.001797	0.003136	-0.236804	-0.127586	0.963144	0.467266	-0.884114	-0.002233	0.851814	0.449515	0.268978
02979	9.409168	-0.036063	2.601676	-0.005991	0.001836	0.006850	-0.236795	-0.127589	0.963145	0.467233	-0.884131	-0.002250	0.851834	0.449481	0.268972
02980	9.371512	-0.036552	2.648500	-0.001178	0.004520	0.006894	-0.236805	-0.127604	0.963141	0.467241	-0.884127	-0.002256	0.851827	0.449485	0.268988
02981	9.412621	-0.006854	2.618013	-0.002127	0.004756	0.005648	-0.236827	-0.127610	0.963135	0.467239	-0.884128	-0.002251	0.851822	0.449481	0.269010
02982	9.401596	-0.060254	2.609689	-0.000623	0.000328	0.006541	-0.236807	-0.127600	0.963141	0.467250	-0.884122	-0.002249	0.851821	0.449495	0.268988
02983	9.416173	-0.016527	2.595654	-0.001780	0.000673	0.007475	-0.236786	-0.127604	0.963146	0.467255	-0.884120	-0.002261	0.851825	0.449499	0.268970
02984	9.417283	-0.050549	2.660978	-0.001271	0.002487	0.005004	-0.236792	-0.127594	0.963145	0.467258	-0.884118	-0.002248	0.851821	0.449505	0.268972
02985	9.405182	-0.031635	2.625545	-0.002081	-0.001250	0.007766	-0.236753	-0.127591	0.963156	0.467261	-0.884117	-0.002263	0.851831	0.449509	0.268936
02986	9.397829	-0.054483	2.632759	-0.003076	0.004991	0.004402	-0.236784	-0.127584	0.963149	0.467246	-0.884124	-0.002247	0.851830	0.449496	0.268960
02987	9.401390	-0.024522	2.648748	-0.003584	0.003177	0.006873	-0.236787	-0.127594	0.963147	0.467234	-0.884131	-0.002258	0.851836	0.449481	0.268967
02988	9.431586	-0.047719	2.609537	-0.001479	0.002595	0.007185	-0.236781	-0.127603	0.963147	0.467241	-0.884127	-0.002267	0.851834	0.449485	0.268966
02989	9.378186	-0.059136	2.605211	-0.002428	0.002831	0.005939	-0.236785	-0.127602	0.963146	0.467236	-0.884130	-0.002266	0.851835	0.449480	0.268969
02990	9.385488	0.001334	2.636593	-0.001780	0.000672	0.007476	-0.236765	-0.127606	0.963151	0.467241	-0.884127	-0.002278	0.851838	0.449484	0.268953
02991	9.408405	-0.044030	2.604311	-0.002427	0.002831	0.005939	-0.236769	-0.127606	0.963150	0.467237	-0.884129	-0.002277	0.851839	0.449480	0.268956
02992	9.408334	-0.044593	2.604560	-0.001271	0.002485	0.005005	-0.236772	-0.127597	0.963150	0.467240	-0.884127	-0.002266	0.851837	0.449486	0.268955
02993	9.369609	0.027420	2.624400	-0.001478	0.002594	0.007186	-0.236768	-0.127606	0.963150	0.467247	-0.884124	-0.002274	0.851834	0.449490	0.268956
02994	9.427595	-0.043303	2.633407	-0.001780	0.000671	0.007476	-0.236748	-0.127611	0.963154	0.467252	-0.884121	-0.002287	0.851837	0.449494	0.268940
02995	9.392466	-0.018587	2.592318	0.001137	0.003826	0.005028	-0.236765	-0.127607	0.963151	0.467276	-0.884109	-0.002267	0.851819	0.449520	0.268953
02996	9.408114	-0.008134	2.643760	-0.004533	0.003412	0.005627	-0.236777	-0.127608	0.963147	0.467253	-0.884121	-0.002269	0.851828	0.449496	0.268964
02997	9.404347	-0.039389	2.628429	-0.001478	0.002593	0.007186	-0.236773	-0.127617	0.963147	0.467259	-0.884117	-0.002278	0.851826	0.449500	0.268965
02998	9.395909	0.010095	2.608808	-0.002427	0.002830	0.005939	-0.236779	-0.127619	0.963145	0.467256	-0.884119	-0.002278	0.851826	0.449496	0.268971
02999	9.411495	-0.018353	2.622003	-0.001917	0.004644	0.003469	-0.236810	-0.127604	0.963140	0.467250	-0.884123	-0.002252	0.851821	0.449494	0.268992
03000	9.384763	-0.004935	2.639169	-0.000738	0.002463	0.010614	-0.236790	-0.127647	0.963139	0.467272	-0.884111	-0.002293	0.851814	0.449505	0.268994
03001	9.404028	-0.041940	2.629531	-0.003470	0.001035	0.002802	-0.236793	-0.127611	0.963143	0.467251	-0.884122	-0.002265	0.851825	0.449493	0.268980
03002	9.388309	-0.014509	2.616830	0.000627	0.002009	0.007499	-0.236782	-0.127621	0.963144	0.467276	-0.884108	-0.002272	0.851814	0.449517	0.268975
03003	9.403924	-0.043058	2.629885	-0.001271	0.002484	0.005006	-0.236787	-0.127611	0.963145	0.467280	-0.884107	-0.002259	0.851811	0.449523	0.268975
03004	9.411214	-0.021424	2.622988	-0.000624	0.000324	0.006542	-0.236766	-0.127606	0.963150	0.467292	-0.884100	-0.002260	0.851810	0.449538	0.268954
03005	9.388194	-0.016315	2.617230	-0.002730	0.000906	0.006230	-0.236752	-0.127599	0.963155	0.467286	-0.884103	-0.002263	0.851817	0.449533	0.268939
03006	9.388152	-0.016941	2.617377	-0.000322	0.002246	0.006253	-0.236750	-0.127597	0.963155	0.467300	-0.884096	-0.002258	0.851810	0.449547	0.268936
03007	9.407459	-0.014879	2.646061	-0.001270	0.002483	0.005006	-0.236755	-0.127587	0.963155	0.467303	-0.884095	-0.002245	0.851807	0.449554	0.268936
03008	9.403715	-0.046121	2.630579	-0.000832	0.000430	0.008723	-0.236726	-0.127600	0.963161	0.467318	-0.884086	-0.002267	0.851806	0.449566	0.268917
03009	9.410953	-0.024572	2.623897	-0.002770	0.006911	0.004114	-0.236774	-0.127602	0.963149	0.467307	-0.884092	-0.002249	0.851800	0.449553	0.268959
03010	9.410852	-0.025177	2.624253	-0.001781	0.000667	0.007477	-0.236753	-0.127605	0.963154	0.467311	-0.884090	-0.002260	0.851803	0.449557	0.268942
03011	9.391492	-0.028443	2.595756	-0.001876	-0.001363	0.005586	-0.236723	-0.127582	0.963164	0.467310	-0.884090	-0.002254	0.851812	0.449563	0.268905
03012	9.414516	0.004132	2.640028	-0.004229	0.005333	0.005338	-0.236751	-0.127588	0.963157	0.467289	-0.884102	-0.002252	0.851816	0.449539	0.268932
03013	9.387699	-0.021285	2.618970	-0.002427	0.002827	0.005940	-0.236755	-0.127587	0.963156	0.467285	-0.884104	-0.002251	0.851817	0.449535	0.268935
03014	9.422617	-0.047258	2.660634	-0.002124	0.004749	0.005651	-0.236776	-0.127594	0.963150	0.467283	-0.884105	-0.002248	0.851812	0.449531	0.268957
03015	9.387523	-0.022510	2.619590	-0.002730	0.000904	0.006230	-0.236762	-0.127587	0.963154	0.467276	-0.884109	-0.002251	0.851820	0.449526	0.268942
03016	9.387452	-0.023073	2.619839	-0.000967	0.004404	0.004717	-0.236783	-0.127584	0.963149	0.467281	-0.884106	-0.002235	0.851811	0.449532	0.268959
03017	9.410356	-0.029436	2.625988	-0.001479	0.002588	0.007187	-0.236779	-0.127593	0.963149	0.467288	-0.884102	-0.002244	0.851808	0.449537	0.268960
03018	9.376325	-0.038135	2.650008	-0.003679	0.001142	0.004983	-0.236773	-0.127579	0.963152	0.467272	-0.884111	-0.002239	0.851819	0.449523	0.268948
03019	9.436867	-0.044720	2.609572	0.001138	0.003820	0.005030	-0.236790	-0.127575	0.963149	0.467295	-0.884099	-0.002220	0.851802	0.449549	0.268961
03020	9.394478	-0.003182	2.613973	-0.003281	0.005093	0.006585	-0.236811	-0.127589	0.963141	0.467284	-0.884104	-0.002225	0.851801	0.449534	0.268986
03021	9.413672	-0.040201	2.604449	-0.002730	0.000903	0.006230	-0.236798	-0.127582	0.963146	0.467278	-0.884108	-0.002228	0.851809	0.449529	0.268971
03022	9.402637	-0.054766	2.634266	-0.000530	0.002349	0.008435	-0.236786	-0.127599	0.963146	0.467295	-0.884099	-0.002244	0.851803	0.449542	0.268968
03023	9.386957	-0.027416	2.621572	-0.002522	0.000796	0.004049	-0.236781	-0.127573	0.963151	0.467285	-0.884104	-0.002225	0.851809	0.449539	0.268952
03024	9.406275	-0.025356	2.650186	-0.000322	0.002242	0.006254	-0.236776	-0.127572	0.963152	0.467299	-0.884096	-0.002222	0.851803	0.449554	0.268948
03025	9.409837	-0.034283	2.627788	-0.003375	0.003063	0.004694	-0.236788	-0.127561	0.963151	0.467284	-0.884105	-0.002212	0.851808	0.449541	0.268953
03026	9.432727	-0.040674	2.633969	-0.001175	0.004508	0.006899	-0.236798	-0.127579	0.963146	0.467293	-0.884100	-0.002220	0.851801	0.449546	0.268970
03027	9.363699	-0.024059	2.616670	-0.004191	-0.000675	0.007454	-0.236765	-0.127576	0.963155	0.467277	-0.884108	-0.002239	0.851818	0.449530	0.268939
03028	9.413290	-0.044655	2.605759	-0.001270	0.002479	0.005007	-0.236770	-0.127567	0.963155	0.467280	-0.884106	-0.002227	0.851815	0.449536	0.268939
03029	9.413221	-0.045264	2.605997	-0.001479	0.002585	0.007188	-0.236766	-0.127576	0.963154	0.467287	-0.884103	-0.002235	0.851813	0.449540	0.268940
03030	9.409608	0.001334	2.667208	-0.004532	0.003408	0.005628	-0.236776	-0.127574	0.963152	0.467263	-0.884115	-0.002236	0.851823	0.449516	0.268947
03031	9.386438	-0.032367	2.623373	-0.001270	0.002479	0.005007	-0.236781	-0.127563	0.963152	0.467266	-0.884114	-0.002222	0.851820	0.449522	0.268947
03032	9.413118	-0.008187	2.644996	-0.002731	0.000901	0.006231	-0.236766	-0.127554	0.963157	0.467259	-0.884118	-0.002224	0.851828	0.449518	0.268930
03033	9.412966	-0.047790	2.606874	-0.001479	0.002584	0.007189	-0.236762	-0.127564	0.963157	0.467266	-0.884114	-0.002232	0.851825	0.449522	0.268931
03034	9.363260	-0.028530	2.618198	-0.001174	0.004506	0.006900	-0.236776	-0.127581	0.963151	0.467275	-0.884109	-0.002239	0.851816	0.449526	0.268952
03035	9.432180	-0.046554	2.635832	-0.001878	-0.001366	0.005586	-0.236746	-0.127559	0.963161	0.467274	-0.884110	-0.002233	0.851825	0.449532	0.268914
03036	9.382547	-0.027145	2.646900	-0.003375	0.003062	0.004694	-0.236759	-0.127550	0.963160	0.467259	-0.884117	-0.002224	0.851830	0.449519	0.268922
03037	9.416467	-0.019691	2.623349	-0.002427	0.002823	0.005942	-0.236763	-0.127550	0.963159	0.467255	-0.884120	-0.002223	0.851831	0.449514	0.268925
03038	9.409019	-0.042493	2.630594	-0.000322	0.002238	0.006255	-0.236759	-0.127548	0.963160	0.467269	-0.884113	-0.002219	0.851825	0.449529	0.268921
03039	9.393351	-0.015047	2.617978	-0.001270	0.002478	0.005008	-0.236764	-0.127538	0.963160	0.467272	-0.884111	-0.002206	0.851821	0.449535	0.268921
03040	9.408909	-0.043777	2.630968	-0.001992	0.000766	0.009660	-0.236733	-0.127558	0.963165	0.467279	-0.884107	-0.002237	0.851826	0.449537	0.268902
03041	9.389572	-0.008129	2.641139	-0.002765	0.006906	0.004117	-0.236780	-0.127560	0.963153	0.467267	-0.884113	-0.002220	0.851820	0.449524	0.268945
03042	9.416126	-0.022697	2.624550	0.000434	-0.002056	0.003718	-0.236752	-0.127518	0.963165	0.467282	-0.884106	-0.002190	0.851819	0.449551	0.268901
03043	9.378480	-0.022779	2.671040	-0.001270	0.002477	0.005008	-0.236757	-0.127507	0.963166	0.467285	-0.884104	-0.002177	0.851816	0.449558	0.268900
03044	9.400462	0.004332	2.611954	-0.000322	0.002237	0.006256	-0.236752	-0.127509	0.963167	0.467300	-0.884096	-0.002176	0.851809	0.449572	0.268897
03045	9.419618	-0.032698	2.602397	-0.003583	0.003166	0.006876	-0.236755	-0.127518	0.963165	0.467288	-0.884103	-0.002187	0.851815	0.449557	0.268903
03046	9.392929	-0.019193	2.619466	-0.000322	0.002237	0.006256	-0.236752	-0.127520	0.963165	0.467303	-0.884095	-0.002185	0.851808	0.449572	0.268902
03047	9.385505	-0.041936	2.626573	0.000530	-0.000030	0.005611	-0.236733	-0.127503	0.963172	0.467323	-0.884084	-0.002173	0.851802	0.449598	0.268877
03048	9.419502	-0.034662	2.602789	-0.001992	0.000764	0.009660	-0.236702	-0.127528	0.963176	0.467331	-0.884080	-0.002208	0.851806	0.449600	0.268861
03049	9.412133	-0.018654	2.648447	-0.002764	0.006905	0.004117	-0.236749	-0.127530	0.963165	0.467319	-0.884086	-0.002191	0.851799	0.449587	0.268904
03050	9.426704	-0.013884	2.596481	0.000112	0.000178	0.009974	-0.236712	-0.127554	0.963170	0.467346	-0.884072	-0.002222	0.851795	0.449608	0.268883
03051	9.392631	-0.022486	2.620506	-0.000755	0.004293	0.002538	-0.236745	-0.127530	0.963166	0.467348	-0.884071	-0.002183	0.851785	0.449617	0.268900
03052	9.415527	-0.028784	2.626638	0.000626	0.001995	0.007504	-0.236737	-0.127538	0.963166	0.467373	-0.884058	-0.002187	0.851774	0.449640	0.268897
03053	9.376936	0.004334	2.608087	-0.001784	0.000658	0.007479	-0.236715	-0.127541	0.963171	0.467377	-0.884055	-0.002199	0.851777	0.449644	0.268879
03054	9.415472	-0.030150	2.626819	-0.001575	0.000554	0.005297	-0.236704	-0.127527	0.963176	0.467379	-0.884054	-0.002191	0.851779	0.449650	0.268862
03055	9.415412	-0.030747	2.627029	0.000931	0.003916	0.007215	-0.236711	-0.127542	0.963172	0.467406	-0.884040	-0.002193	0.851762	0.449674	0.268876
03056	9.411691	-0.023073	2.649984	-0.001478	0.002579	0.007190	-0.236709	-0.127552	0.963172	0.467413	-0.884036	-0.002201	0.851759	0.449678	0.268878
03057	9.422667	-0.010020	2.620570	-0.008097	0.002413	0.006538	-0.236706	-0.127554	0.963172	0.467361	-0.884064	-0.002220	0.851788	0.449624	0.268877
03058	9.392229	-0.027011	2.621904	0.002939	0.001304	0.005636	-0.236701	-0.127546	0.963174	0.467403	-0.884042	-0.002203	0.851767	0.449669	0.268870
03059	9.392169	-0.027608	2.622114	-0.003583	0.003164	0.006877	-0.236704	-0.127556	0.963172	0.467390	-0.884048	-0.002214	0.851773	0.449654	0.268876
03060	9.384674	-0.050472	2.629391	-0.002426	0.002819	0.005943	-0.236711	-0.127555	0.963171	0.467386	-0.884051	-0.002212	0.851774	0.449649	0.268882
03061	9.430729	-0.023876	2.679519	-0.000628	0.000312	0.006545	-0.236690	-0.127549	0.963177	0.467398	-0.884044	-0.002211	0.851773	0.449664	0.268861
03062	9.372644	-0.032029	2.594260	-0.000016	0.004155	0.005968	-0.236704	-0.127553	0.963173	0.467414	-0.884036	-0.002204	0.851760	0.449679	0.268875
03063	9.418655	-0.005450	2.644560	-0.001478	0.002578	0.007191	-0.236700	-0.127562	0.963172	0.467420	-0.884032	-0.002212	0.851758	0.449683	0.268876
03064	9.395511	-0.039302	2.600467	-0.001143	-0.001507	0.009016	-0.236653	-0.127572	0.963183	0.467435	-0.884025	-0.002239	0.851763	0.449695	0.268839
03065	9.402885	-0.017912	2.593639	-0.003276	0.005085	0.006589	-0.236673	-0.127587	0.963176	0.467425	-0.884030	-0.002247	0.851763	0.449680	0.268864
03066	9.395379	-0.040727	2.600925	-0.003679	0.001138	0.004984	-0.236668	-0.127571	0.963179	0.467407	-0.884039	-0.002240	0.851774	0.449667	0.268852
03067	9.414651	-0.038722	2.629649	0.001141	0.003809	0.005035	-0.236685	-0.127567	0.963176	0.467431	-0.884027	-0.002220	0.851756	0.449693	0.268864
03068	9.399032	-0.011209	2.617072	-0.005783	0.001723	0.004670	-0.236685	-0.127550	0.963178	0.467395	-0.884046	-0.002216	0.851776	0.449660	0.268857
03069	9.387906	-0.025699	2.646943	-0.003582	0.003162	0.006878	-0.236688	-0.127559	0.963176	0.467383	-0.884052	-0.002227	0.851782	0.449645	0.268863
03070	9.398892	-0.012602	2.617571	-0.001478	0.002576	0.007192	-0.236680	-0.127570	0.963176	0.467390	-0.884048	-0.002239	0.851780	0.449649	0.268862
03071	9.402482	-0.021690	2.595072	-0.001785	0.000654	0.007480	-0.236659	-0.127574	0.963181	0.467395	-0.884046	-0.002251	0.851783	0.449653	0.268844
03072	9.421768	-0.019830	2.623741	-0.003373	0.003058	0.004696	-0.236668	-0.127562	0.963180	0.467379	-0.884054	-0.002241	0.851789	0.449640	0.268847
03073	9.394922	-0.045131	2.602499	-0.001478	0.002575	0.007192	-0.236664	-0.127571	0.963180	0.467386	-0.884051	-0.002249	0.851787	0.449644	0.268848
03074	9.410556	-0.034889	2.653882	-0.001269	0.002472	0.005010	-0.236670	-0.127564	0.963179	0.467390	-0.884049	-0.002238	0.851783	0.449650	0.268850
03075	9.398598	-0.015802	2.618607	0.000626	0.001988	0.007506	-0.236660	-0.127573	0.963181	0.467415	-0.884035	-0.002243	0.851772	0.449674	0.268845
03076	9.398531	-0.016411	2.618844	-0.003373	0.003058	0.004696	-0.236673	-0.127565	0.963179	0.467400	-0.884043	-0.002234	0.851776	0.449661	0.268853
03077	9.421416	-0.022910	2.624983	-0.003582	0.003161	0.006878	-0.236676	-0.127574	0.963177	0.467388	-0.884049	-0.002245	0.851782	0.449646	0.268860
03078	9.367968	-0.034027	2.620527	-0.000322	0.002229	0.006258	-0.236674	-0.127575	0.963177	0.467402	-0.884042	-0.002242	0.851775	0.449661	0.268858
