// General information: 
//  MT Manager version: 2019.2.0 
//  XDA version: 2019.2.0 build 3853 rev 94535 built on 2019-09-09
// Device information: 
//  DeviceId: 00B44112
//  ProductCode: MTW2-3A7G6
//  Firmware Version: 4.3.5
//  Hardware Version: 1.1.0
// Device settings: 
//  Filter Profile: human(46.1)
//  Option Flags: Orientation Smoother Disabled, AHS Disabled, ICC Disabled
// Coordinate system: ENU
PacketCounter	Acc_X	Acc_Y	Acc_Z	Gyr_X	Gyr_Y	Gyr_Z	Mat[1][1]	Mat[2][1]	Mat[3][1]	Mat[1][2]	Mat[2][2]	Mat[3][2]	Mat[1][3]	Mat[2][3]	Mat[3][3]
02267	9.354540	-0.229222	3.116575	0.002866	-0.000612	0.006258	0.264276	0.177784	0.947919	-0.505597	0.862519	-0.020809	-0.821298	-0.473766	0.317830
02268	9.387924	-0.204114	3.159171	-0.000875	0.002737	0.003926	0.264293	0.177794	0.947913	-0.505595	0.862520	-0.020810	-0.821293	-0.473761	0.317850
02269	9.334744	-0.208672	3.147481	-0.000337	-0.000657	0.003653	0.264284	0.177784	0.947917	-0.505594	0.862520	-0.020806	-0.821297	-0.473763	0.317837
02270	9.361904	-0.209144	3.126171	-0.001226	0.000627	0.003607	0.264285	0.177782	0.947917	-0.505589	0.862524	-0.020805	-0.821300	-0.473758	0.317837
02271	9.361911	-0.209511	3.126128	-0.001578	-0.001484	0.003287	0.264269	0.177766	0.947925	-0.505576	0.862531	-0.020804	-0.821313	-0.473750	0.317814
02272	9.364989	-0.197053	3.158165	0.001607	0.004393	0.004658	0.264295	0.177790	0.947913	-0.505596	0.862519	-0.020804	-0.821292	-0.473763	0.317850
02273	9.358691	-0.223071	3.094439	-0.000689	-0.002767	0.003333	0.264270	0.177768	0.947924	-0.505591	0.862523	-0.020800	-0.821303	-0.473765	0.317816
02274	9.358723	-0.223411	3.094318	0.000904	0.000171	0.004019	0.264265	0.177767	0.947926	-0.505604	0.862515	-0.020796	-0.821297	-0.473779	0.317812
02275	9.346415	-0.181076	3.134600	-0.002836	0.003521	0.001687	0.264301	0.177760	0.947917	-0.505576	0.862532	-0.020782	-0.821302	-0.473752	0.317839
02276	9.364885	-0.198266	3.158399	-0.001410	-0.001156	0.001460	0.264298	0.177730	0.947923	-0.505564	0.862540	-0.020761	-0.821311	-0.473748	0.317822
02277	9.384560	-0.219927	3.127761	-0.000874	0.002737	0.003926	0.264312	0.177739	0.947918	-0.505559	0.862542	-0.020764	-0.821310	-0.473740	0.317838
02278	9.369135	-0.190583	3.136092	0.000735	-0.000157	0.005845	0.264295	0.177752	0.947920	-0.505575	0.862532	-0.020778	-0.821305	-0.473753	0.317830
02279	9.372698	-0.250616	3.140984	-0.001395	0.000299	0.005433	0.264285	0.177763	0.947921	-0.505568	0.862536	-0.020796	-0.821313	-0.473742	0.317827
02280	9.346208	-0.183058	3.135104	-0.001763	0.004021	0.003879	0.264313	0.177779	0.947910	-0.505558	0.862542	-0.020800	-0.821310	-0.473726	0.317858
02281	9.361495	-0.213333	3.127113	0.001976	0.000670	0.006211	0.264298	0.177798	0.947910	-0.505582	0.862528	-0.020816	-0.821300	-0.473744	0.317856
02282	9.380004	-0.230651	3.150765	0.000720	-0.001611	0.001873	0.264290	0.177770	0.947918	-0.505587	0.862525	-0.020792	-0.821299	-0.473760	0.317835
02283	9.346183	-0.184293	3.135105	-0.001916	-0.002140	0.006939	0.264250	0.177783	0.947927	-0.505580	0.862528	-0.020828	-0.821317	-0.473749	0.317806
02284	9.361546	-0.214553	3.126877	0.000184	0.001783	0.002146	0.264268	0.177773	0.947924	-0.505582	0.862528	-0.020809	-0.821309	-0.473754	0.317817
02285	9.338700	-0.206276	3.125696	-0.001579	-0.001484	0.003286	0.264254	0.177757	0.947930	-0.505567	0.862537	-0.020808	-0.821323	-0.473743	0.317797
02286	9.387514	-0.210925	3.159942	-0.001226	0.000627	0.003606	0.264255	0.177755	0.947931	-0.505561	0.862540	-0.020807	-0.821326	-0.473739	0.317797
02287	9.338666	-0.207014	3.125749	0.000015	0.001454	0.003972	0.264260	0.177758	0.947929	-0.505563	0.862539	-0.020807	-0.821324	-0.473739	0.317802
02288	9.346085	-0.186130	3.135289	0.000015	0.001454	0.003972	0.264266	0.177763	0.947926	-0.505569	0.862535	-0.020806	-0.821318	-0.473744	0.317810
02289	9.361393	-0.216312	3.127215	0.000015	0.001454	0.003972	0.264273	0.177768	0.947923	-0.505567	0.862536	-0.020807	-0.821317	-0.473740	0.317818
02290	9.364527	-0.203750	3.159111	0.000720	-0.001612	0.001873	0.264264	0.177739	0.947931	-0.505573	0.862533	-0.020783	-0.821316	-0.473756	0.317797
02291	9.368803	-0.195515	3.136780	-0.000353	0.005177	0.002419	0.264309	0.177747	0.947917	-0.505568	0.862537	-0.020769	-0.821305	-0.473747	0.317839
02292	9.365638	-0.208715	3.104933	-0.002100	-0.003922	0.004792	0.264266	0.177733	0.947932	-0.505558	0.862542	-0.020783	-0.821325	-0.473743	0.317795
02293	9.368819	-0.196337	3.136679	-0.001226	0.000627	0.003605	0.264268	0.177730	0.947932	-0.505548	0.862548	-0.020783	-0.821330	-0.473733	0.317795
02294	9.364472	-0.205044	3.159189	-0.000169	-0.000328	0.001826	0.264270	0.177707	0.947935	-0.505547	0.862550	-0.020762	-0.821331	-0.473739	0.317785
02295	9.338480	-0.209667	3.126129	-0.000154	0.001126	0.005797	0.264260	0.177724	0.947935	-0.505554	0.862545	-0.020779	-0.821329	-0.473741	0.317785
02296	9.356986	-0.227201	3.149747	-0.002989	-0.002639	0.004746	0.264228	0.177716	0.947945	-0.505537	0.862554	-0.020795	-0.821350	-0.473727	0.317753
02297	9.368746	-0.197992	3.136794	0.000720	0.005676	0.004611	0.264265	0.177743	0.947930	-0.505548	0.862548	-0.020797	-0.821331	-0.473729	0.317799
02298	9.323036	-0.181251	3.134521	-0.004062	-0.003138	0.002553	0.264240	0.177714	0.947942	-0.505517	0.862566	-0.020795	-0.821359	-0.473706	0.317762
02299	9.384022	-0.228573	3.128754	0.001609	0.004392	0.004657	0.264265	0.177738	0.947931	-0.505533	0.862556	-0.020796	-0.821340	-0.473715	0.317796
02300	9.330459	-0.160733	3.144061	-0.000691	-0.002767	0.003332	0.264240	0.177716	0.947942	-0.505532	0.862558	-0.020791	-0.821350	-0.473721	0.317764
02301	9.364362	-0.207981	3.159324	-0.001748	-0.001811	0.005111	0.264214	0.177714	0.947950	-0.505522	0.862563	-0.020806	-0.821364	-0.473712	0.317740
02302	9.361248	-0.221243	3.127302	-0.000338	-0.000656	0.003651	0.264205	0.177706	0.947954	-0.505524	0.862562	-0.020803	-0.821366	-0.473717	0.317727
02303	9.342752	-0.204607	3.103608	-0.001226	0.000627	0.003605	0.264205	0.177702	0.947955	-0.505514	0.862568	-0.020803	-0.821372	-0.473708	0.317725
02304	9.394692	-0.196474	3.169801	-0.000338	-0.000656	0.003651	0.264195	0.177694	0.947959	-0.505516	0.862567	-0.020800	-0.821374	-0.473713	0.317713
02305	9.342721	-0.205433	3.103646	-0.002284	0.001583	0.005384	0.264195	0.177710	0.947956	-0.505501	0.862575	-0.020821	-0.821383	-0.473692	0.317721
02306	9.367491	-0.197164	3.191143	0.000719	-0.001612	0.001872	0.264186	0.177682	0.947963	-0.505507	0.862572	-0.020798	-0.821382	-0.473708	0.317699
02307	9.342694	-0.205968	3.103692	0.001426	0.002609	0.002511	0.264209	0.177677	0.947958	-0.505518	0.862566	-0.020777	-0.821368	-0.473720	0.317716
02308	9.368627	-0.202097	3.136886	-0.002637	-0.000527	0.005064	0.264193	0.177682	0.947962	-0.505504	0.862573	-0.020795	-0.821381	-0.473705	0.317705
02309	9.345809	-0.193977	3.135634	-0.000338	-0.000656	0.003651	0.264184	0.177671	0.947966	-0.505504	0.862574	-0.020790	-0.821385	-0.473708	0.317692
02310	9.361141	-0.224163	3.127417	-0.001226	0.000628	0.003605	0.264185	0.177669	0.947966	-0.505498	0.862577	-0.020789	-0.821388	-0.473703	0.317692
02311	9.348893	-0.181807	3.167688	0.001426	0.002609	0.002511	0.264210	0.177665	0.947960	-0.505507	0.862572	-0.020770	-0.821374	-0.473713	0.317712
02312	9.383873	-0.233294	3.128855	-0.000338	-0.000656	0.003651	0.264201	0.177657	0.947964	-0.505509	0.862571	-0.020766	-0.821376	-0.473718	0.317699
02313	9.371663	-0.191017	3.169011	0.000015	0.001454	0.003971	0.264207	0.177659	0.947962	-0.505513	0.862569	-0.020763	-0.821372	-0.473721	0.317706
02314	9.315334	-0.208384	3.125390	-0.001395	0.000300	0.005430	0.264196	0.177670	0.947963	-0.505511	0.862570	-0.020780	-0.821376	-0.473715	0.317702
02315	9.391278	-0.213250	3.138438	-0.001057	0.000956	0.001779	0.264209	0.177652	0.947963	-0.505499	0.862577	-0.020762	-0.821380	-0.473709	0.317703
02316	9.353069	-0.175146	3.145589	-0.002115	0.001912	0.003558	0.264220	0.177655	0.947959	-0.505486	0.862585	-0.020763	-0.821384	-0.473694	0.317715
02317	9.329341	-0.234884	3.171878	-0.001226	0.000628	0.003604	0.264223	0.177652	0.947959	-0.505474	0.862592	-0.020764	-0.821390	-0.473683	0.317715
02318	9.383300	-0.163346	3.156410	-0.002284	0.001584	0.005383	0.264223	0.177669	0.947956	-0.505465	0.862597	-0.020783	-0.821396	-0.473667	0.317724
02319	9.356423	-0.235986	3.150775	-0.001226	0.000628	0.003604	0.264224	0.177665	0.947956	-0.505457	0.862602	-0.020782	-0.821401	-0.473660	0.317722
02320	9.372541	-0.198263	3.115390	0.000369	0.003565	0.004290	0.264246	0.177682	0.947947	-0.505466	0.862596	-0.020782	-0.821388	-0.473664	0.317750
02321	9.360598	-0.228244	3.128744	-0.001945	0.002240	0.001732	0.264267	0.177670	0.947943	-0.505447	0.862608	-0.020767	-0.821393	-0.473647	0.317762
02322	9.353083	-0.249777	3.119364	-0.001580	-0.001483	0.003284	0.264253	0.177655	0.947950	-0.505438	0.862613	-0.020765	-0.821403	-0.473643	0.317741
02323	9.383080	-0.164982	3.156980	0.001242	0.000827	0.000366	0.264272	0.177623	0.947951	-0.505442	0.862612	-0.020725	-0.821395	-0.473657	0.317742
02324	9.333406	-0.228919	3.150041	-0.002807	-0.000855	0.006888	0.264244	0.177642	0.947955	-0.505432	0.862617	-0.020760	-0.821410	-0.473641	0.317727
02325	9.375587	-0.187045	3.147507	-0.000169	-0.000328	0.001825	0.264247	0.177619	0.947958	-0.505425	0.862621	-0.020740	-0.821413	-0.473642	0.317718
02326	9.368077	-0.208563	3.138108	-0.001227	0.000628	0.003604	0.264248	0.177616	0.947959	-0.505420	0.862624	-0.020739	-0.821416	-0.473637	0.317717
02327	9.345201	-0.200345	3.137048	0.001257	0.002281	0.004336	0.264261	0.177626	0.947953	-0.505432	0.862617	-0.020737	-0.821404	-0.473646	0.317734
02328	9.367986	-0.209206	3.138336	-0.000169	-0.000328	0.001825	0.264263	0.177604	0.947957	-0.505431	0.862618	-0.020716	-0.821404	-0.473652	0.317725
02329	9.334449	-0.234964	3.095991	-0.001761	0.004023	0.003877	0.264294	0.177619	0.947945	-0.505417	0.862627	-0.020719	-0.821403	-0.473632	0.317758
02330	9.384057	-0.171784	3.103126	0.000903	0.000170	0.004016	0.264289	0.177617	0.947947	-0.505430	0.862619	-0.020715	-0.821396	-0.473646	0.317754
02331	9.345050	-0.201721	3.137409	0.000380	-0.002268	0.005522	0.264256	0.177615	0.947956	-0.505441	0.862612	-0.020726	-0.821400	-0.473659	0.317725
02332	9.363496	-0.219105	3.161138	-0.000703	0.003067	0.002098	0.264285	0.177611	0.947949	-0.505436	0.862616	-0.020709	-0.821394	-0.473654	0.317747
02333	9.349337	-0.194038	3.115067	-0.002638	-0.000526	0.005062	0.264267	0.177613	0.947954	-0.505423	0.862623	-0.020725	-0.821408	-0.473640	0.317733
02334	9.383107	-0.241173	3.130555	0.001242	0.000826	0.000366	0.264286	0.177583	0.947954	-0.505429	0.862620	-0.020686	-0.821398	-0.473656	0.317735
02335	9.375274	-0.190374	3.148237	-0.001396	0.000300	0.005428	0.264276	0.177593	0.947955	-0.505425	0.862622	-0.020701	-0.821404	-0.473649	0.317730
02336	9.326428	-0.186463	3.114075	-0.000873	0.002739	0.003923	0.264293	0.177603	0.947949	-0.505423	0.862623	-0.020702	-0.821399	-0.473644	0.317750
02337	9.375215	-0.191110	3.148371	0.001606	-0.002896	0.001918	0.264275	0.177569	0.947960	-0.505431	0.862619	-0.020677	-0.821400	-0.473664	0.317717
02338	9.352416	-0.182882	3.147091	-0.005655	0.001216	0.004602	0.264276	0.177577	0.947958	-0.505392	0.862642	-0.020700	-0.821424	-0.473620	0.317721
02339	9.351523	-0.251345	3.174355	0.004638	-0.003184	0.006347	0.264234	0.177579	0.947969	-0.505437	0.862615	-0.020706	-0.821410	-0.473667	0.317688
02340	9.382776	-0.171005	3.157563	0.000354	0.002110	0.000320	0.264264	0.177556	0.947965	-0.505436	0.862617	-0.020669	-0.821401	-0.473673	0.317701
02341	9.364601	-0.226638	3.106806	0.000210	-0.002596	0.007346	0.264219	0.177568	0.947976	-0.505448	0.862609	-0.020700	-0.821408	-0.473683	0.317669
02342	9.382802	-0.171783	3.157443	0.001072	0.000498	0.002191	0.264226	0.177553	0.947976	-0.505458	0.862604	-0.020678	-0.821399	-0.473698	0.317668
02343	9.344917	-0.205940	3.137532	-0.002114	0.001913	0.003556	0.264240	0.177555	0.947972	-0.505440	0.862614	-0.020679	-0.821406	-0.473679	0.317681
02344	9.363277	-0.223469	3.161481	-0.001929	0.003695	0.005701	0.264256	0.177585	0.947962	-0.505435	0.862617	-0.020701	-0.821404	-0.473663	0.317709
02345	9.326275	-0.189782	3.114333	0.002314	0.001324	0.002557	0.264269	0.177575	0.947960	-0.505451	0.862607	-0.020679	-0.821390	-0.473683	0.317716
02346	9.360016	-0.236946	3.129840	-0.005840	-0.000565	0.002457	0.264267	0.177557	0.947964	-0.505405	0.862635	-0.020682	-0.821419	-0.473640	0.317704
02347	9.352199	-0.186348	3.147532	0.001088	0.001953	0.006160	0.264267	0.177582	0.947960	-0.505420	0.862625	-0.020698	-0.821410	-0.473648	0.317717
02348	9.367448	-0.216648	3.139435	-0.001227	0.000629	0.003603	0.264268	0.177579	0.947960	-0.505415	0.862628	-0.020697	-0.821413	-0.473643	0.317716
02349	9.367408	-0.217022	3.139531	0.000015	0.001455	0.003969	0.264272	0.177581	0.947959	-0.505419	0.862626	-0.020696	-0.821409	-0.473647	0.317721
02350	9.348934	-0.200345	3.115877	-0.000339	-0.000656	0.003649	0.264262	0.177573	0.947963	-0.505421	0.862625	-0.020692	-0.821411	-0.473652	0.317708
02351	9.355485	-0.247408	3.152683	0.000015	0.001455	0.003969	0.264267	0.177577	0.947961	-0.505422	0.862624	-0.020692	-0.821408	-0.473652	0.317715
02352	9.382400	-0.175541	3.158430	0.000718	-0.001612	0.001871	0.264259	0.177549	0.947968	-0.505428	0.862621	-0.020669	-0.821407	-0.473668	0.317693
02353	9.371681	-0.209863	3.117217	-0.001759	0.004024	0.003875	0.264286	0.177563	0.947958	-0.505417	0.862628	-0.020671	-0.821405	-0.473651	0.317724
02354	9.367280	-0.218755	3.139791	0.000378	-0.002268	0.005520	0.264254	0.177563	0.947967	-0.505430	0.862620	-0.020684	-0.821408	-0.473665	0.317696
02355	9.348817	-0.202060	3.116117	0.001427	0.002608	0.002510	0.264278	0.177559	0.947961	-0.505439	0.862615	-0.020664	-0.821394	-0.473675	0.317715
02356	9.367228	-0.219374	3.139902	-0.000340	-0.000656	0.003649	0.264268	0.177551	0.947965	-0.505441	0.862614	-0.020661	-0.821396	-0.473680	0.317703
02357	9.337846	-0.164332	3.101946	-0.001057	0.000957	0.001778	0.264280	0.177533	0.947965	-0.505429	0.862621	-0.020643	-0.821400	-0.473673	0.317704
02358	9.398713	-0.211795	3.096243	-0.002284	0.001586	0.005380	0.264280	0.177550	0.947962	-0.505419	0.862626	-0.020662	-0.821406	-0.473658	0.317712
02359	9.354999	-0.177762	3.180253	0.001072	0.000498	0.002191	0.264286	0.177534	0.947963	-0.505425	0.862624	-0.020642	-0.821400	-0.473669	0.317709
02360	9.375858	-0.204006	3.095122	-0.002809	-0.000852	0.006884	0.264258	0.177552	0.947968	-0.505415	0.862629	-0.020678	-0.821415	-0.473653	0.317694
02361	9.370289	-0.208619	3.171963	-0.002469	-0.000197	0.003236	0.264256	0.177542	0.947970	-0.505393	0.862641	-0.020677	-0.821429	-0.473634	0.317687
02362	9.336785	-0.234395	3.129433	0.000903	0.000170	0.004015	0.264252	0.177540	0.947972	-0.505407	0.862634	-0.020674	-0.821423	-0.473648	0.317682
02363	9.383350	-0.183896	3.104569	-0.003016	0.001744	-0.000460	0.264284	0.177508	0.947969	-0.505369	0.862656	-0.020641	-0.821435	-0.473619	0.317693
02364	9.348595	-0.205234	3.116576	-0.000154	0.001127	0.005792	0.264278	0.177527	0.947967	-0.505378	0.862651	-0.020658	-0.821432	-0.473623	0.317698
02365	9.367036	-0.222634	3.140246	0.000717	-0.001613	0.001871	0.264272	0.177497	0.947974	-0.505381	0.862650	-0.020634	-0.821432	-0.473635	0.317677
02366	9.325775	-0.197237	3.115368	-0.002114	0.001914	0.003555	0.264283	0.177500	0.947970	-0.505368	0.862657	-0.020635	-0.821436	-0.473620	0.317689
02367	9.397330	-0.210663	3.150953	0.003032	-0.000289	0.004427	0.264275	0.177499	0.947973	-0.505394	0.862642	-0.020629	-0.821423	-0.473648	0.317682
02368	9.351725	-0.193929	3.148482	-0.000680	-0.001311	0.007296	0.264241	0.177519	0.947979	-0.505403	0.862636	-0.020661	-0.821428	-0.473651	0.317663
02369	9.341018	-0.228493	3.107159	0.000015	0.001455	0.003968	0.264250	0.177523	0.947975	-0.505402	0.862637	-0.020660	-0.821426	-0.473649	0.317672
02370	9.382009	-0.182150	3.159217	-0.001057	0.000957	0.001777	0.264263	0.177506	0.947975	-0.505393	0.862642	-0.020642	-0.821427	-0.473645	0.317675
02371	9.374490	-0.203730	3.149737	0.000377	-0.002268	0.005519	0.264234	0.177506	0.947983	-0.505400	0.862638	-0.020654	-0.821432	-0.473653	0.317650
02372	9.351686	-0.195541	3.148500	0.000016	0.001455	0.003968	0.264240	0.177510	0.947981	-0.505406	0.862634	-0.020653	-0.821427	-0.473658	0.317657
02373	9.344067	-0.217076	3.139311	-0.002831	0.003527	0.001684	0.264274	0.177504	0.947972	-0.505379	0.862651	-0.020639	-0.821432	-0.473631	0.317683
02374	9.378720	-0.196435	3.127593	0.000732	-0.000158	0.005838	0.264258	0.177517	0.947975	-0.505396	0.862640	-0.020653	-0.821427	-0.473645	0.317676
02375	9.355877	-0.188267	3.126474	-0.002114	0.001914	0.003555	0.264270	0.177519	0.947971	-0.505379	0.862650	-0.020655	-0.821434	-0.473626	0.317687
02376	9.374280	-0.205613	3.150238	-0.000170	-0.000328	0.001824	0.264272	0.177496	0.947974	-0.505377	0.862652	-0.020634	-0.821434	-0.473632	0.317677
02377	9.345084	-0.222872	3.085386	-0.001758	0.004025	0.003874	0.264299	0.177511	0.947964	-0.505364	0.862659	-0.020639	-0.821434	-0.473613	0.317707
02378	9.351373	-0.197740	3.149290	0.000376	-0.002268	0.005518	0.264266	0.177511	0.947973	-0.505377	0.862651	-0.020651	-0.821436	-0.473627	0.317680
02379	9.370961	-0.219540	3.118715	-0.000345	0.005178	0.002416	0.264312	0.177519	0.947959	-0.505372	0.862655	-0.020635	-0.821424	-0.473618	0.317723
02380	9.378416	-0.198625	3.128366	-0.002469	-0.000196	0.003235	0.264309	0.177509	0.947962	-0.505355	0.862665	-0.020635	-0.821436	-0.473604	0.317715
02381	9.366507	-0.228644	3.141394	-0.000340	-0.000655	0.003648	0.264301	0.177498	0.947966	-0.505356	0.862665	-0.020629	-0.821438	-0.473608	0.317702
02382	9.332808	-0.182084	3.125919	-0.001227	0.000630	0.003601	0.264302	0.177496	0.947966	-0.505350	0.862668	-0.020628	-0.821441	-0.473603	0.317702
02383	9.389281	-0.238006	3.142629	0.000902	0.000170	0.004014	0.264299	0.177493	0.947968	-0.505360	0.862662	-0.020623	-0.821436	-0.473614	0.317698
02384	9.355596	-0.191519	3.127119	-0.000511	-0.000983	0.005471	0.264277	0.177499	0.947972	-0.505365	0.862659	-0.020638	-0.821440	-0.473618	0.317683
02385	9.370829	-0.221755	3.118956	-0.001943	0.002242	0.001730	0.264303	0.177486	0.947968	-0.505345	0.862671	-0.020621	-0.821444	-0.473600	0.317698
02386	9.351134	-0.200636	3.149817	-0.003356	0.001090	0.003188	0.264310	0.177482	0.947966	-0.505321	0.862685	-0.020623	-0.821457	-0.473576	0.317702
02387	9.361959	-0.239297	3.164223	0.003387	0.001820	0.004746	0.264316	0.177494	0.947963	-0.505352	0.862667	-0.020619	-0.821436	-0.473605	0.317713
02388	9.335810	-0.171491	3.158191	-0.001583	-0.001480	0.003281	0.264301	0.177478	0.947970	-0.505343	0.862672	-0.020616	-0.821446	-0.473601	0.317693
02389	9.370722	-0.223156	3.119177	-0.002470	-0.000195	0.003234	0.264297	0.177467	0.947973	-0.505324	0.862684	-0.020615	-0.821459	-0.473585	0.317683
02390	9.358590	-0.180786	3.159423	0.001428	0.002608	0.002510	0.264319	0.177464	0.947967	-0.505337	0.862676	-0.020596	-0.821444	-0.473599	0.317701
02391	9.343475	-0.223588	3.140615	-0.001753	-0.001808	0.005104	0.264294	0.177462	0.947975	-0.505328	0.862681	-0.020610	-0.821458	-0.473591	0.317678
02392	9.343454	-0.224139	3.140640	-0.001041	0.002412	0.005743	0.264299	0.177486	0.947969	-0.505329	0.862680	-0.020629	-0.821455	-0.473584	0.317694
02393	9.378137	-0.203333	3.128902	0.000170	0.000328	-0.001823	0.264326	0.177434	0.947971	-0.505317	0.862689	-0.020572	-0.821454	-0.473588	0.317691
02394	9.332553	-0.186133	3.126443	-0.001583	-0.001480	0.003281	0.264311	0.177419	0.947978	-0.505308	0.862694	-0.020569	-0.821464	-0.473584	0.317671
02395	9.373718	-0.212223	3.151473	0.001614	0.004390	0.004652	0.264340	0.177442	0.947966	-0.505323	0.862685	-0.020570	-0.821446	-0.473592	0.317708
02396	9.350847	-0.204047	3.150450	-0.002640	-0.000523	0.005057	0.264324	0.177447	0.947969	-0.505310	0.862692	-0.020587	-0.821459	-0.473577	0.317696
02397	9.355223	-0.195982	3.127958	0.001072	0.000497	0.002190	0.264332	0.177429	0.947970	-0.505317	0.862688	-0.020565	-0.821452	-0.473590	0.317694
02398	9.376764	-0.200555	3.183676	-0.002113	0.001915	0.003553	0.264343	0.177432	0.947966	-0.505305	0.862696	-0.020566	-0.821456	-0.473575	0.317705
02399	9.355103	-0.196561	3.128280	0.001429	0.002607	0.002509	0.264368	0.177429	0.947960	-0.505313	0.862691	-0.020547	-0.821443	-0.473585	0.317725
02400	9.377798	-0.205501	3.129775	0.000372	0.003565	0.004286	0.264389	0.177446	0.947951	-0.505323	0.862686	-0.020548	-0.821430	-0.473589	0.317753
02401	9.347426	-0.218429	3.119184	-0.000697	-0.002765	0.003327	0.264366	0.177423	0.947962	-0.505317	0.862689	-0.020542	-0.821441	-0.473591	0.317720
02402	9.359399	-0.189124	3.105997	0.000902	0.000170	0.004013	0.264361	0.177422	0.947963	-0.505330	0.862682	-0.020538	-0.821435	-0.473605	0.317716
02403	9.377784	-0.206580	3.129747	-0.003356	0.001091	0.003187	0.264298	0.177660	0.947936	-0.505418	0.862625	-0.020753	-0.821400	-0.473619	0.317783
02404	9.365804	-0.236686	3.142893	0.001974	0.000667	0.006202	0.264286	0.177680	0.947936	-0.505446	0.862608	-0.020767	-0.821387	-0.473642	0.317783
02405	9.336510	-0.181752	3.104992	-0.001227	0.000630	0.003600	0.264290	0.177676	0.947936	-0.505437	0.862614	-0.020765	-0.821392	-0.473633	0.317784
02406	9.396134	-0.225028	3.153524	-0.001754	-0.001807	0.005103	0.264263	0.177675	0.947943	-0.505431	0.862617	-0.020780	-0.821404	-0.473628	0.317760
02407	9.362481	-0.178437	3.138050	0.000186	0.001783	0.002143	0.264284	0.177664	0.947940	-0.505429	0.862618	-0.020760	-0.821398	-0.473630	0.317773
02408	9.350551	-0.208330	3.151048	0.001431	-0.003226	0.003740	0.264253	0.177644	0.947952	-0.505446	0.862609	-0.020752	-0.821398	-0.473655	0.317736
02409	9.354933	-0.200235	3.128557	0.002501	0.003104	0.004698	0.264269	0.177662	0.947944	-0.505470	0.862595	-0.020750	-0.821378	-0.473673	0.317760
02410	9.354886	-0.200622	3.128673	-0.005842	-0.000558	0.002454	0.264266	0.177644	0.947948	-0.505423	0.862622	-0.020754	-0.821408	-0.473631	0.317748
02411	9.347251	-0.222059	3.119453	0.001957	0.005045	0.001005	0.264316	0.177639	0.947935	-0.505433	0.862617	-0.020719	-0.821386	-0.473641	0.317789
02412	9.359099	-0.192707	3.106680	-0.000155	0.001127	0.005789	0.264310	0.177658	0.947933	-0.505442	0.862611	-0.020736	-0.821382	-0.473645	0.317793
02413	9.357856	-0.188811	3.161125	-0.002470	-0.000194	0.003233	0.264307	0.177648	0.947936	-0.505421	0.862623	-0.020737	-0.821396	-0.473626	0.317784
02414	9.354665	-0.201958	3.129248	0.002144	0.000994	0.004379	0.264307	0.177654	0.947935	-0.505446	0.862609	-0.020733	-0.821381	-0.473650	0.317788
02415	9.377425	-0.210980	3.130530	-0.001227	0.000631	0.003599	0.264307	0.177650	0.947936	-0.505437	0.862614	-0.020733	-0.821386	-0.473642	0.317786
02416	9.322999	-0.210877	3.173232	0.001258	0.002280	0.004332	0.264318	0.177662	0.947931	-0.505454	0.862604	-0.020731	-0.821372	-0.473656	0.317802
02417	9.400123	-0.220390	3.131968	-0.002470	-0.000194	0.003233	0.264316	0.177651	0.947933	-0.505433	0.862617	-0.020730	-0.821386	-0.473638	0.317794
02418	9.362097	-0.182212	3.138980	0.000901	0.000169	0.004012	0.264311	0.177650	0.947935	-0.505446	0.862609	-0.020727	-0.821379	-0.473652	0.317789
02419	9.342506	-0.233359	3.142787	-0.002828	0.003530	0.001682	0.264345	0.177645	0.947926	-0.505418	0.862626	-0.020715	-0.821386	-0.473623	0.317816
02420	9.392326	-0.170364	3.149961	-0.001398	0.000303	0.005422	0.264334	0.177656	0.947927	-0.505416	0.862627	-0.020732	-0.821390	-0.473617	0.317812
02421	9.346808	-0.225792	3.120514	-0.001227	0.000631	0.003599	0.264337	0.177652	0.947927	-0.505407	0.862632	-0.020730	-0.821395	-0.473609	0.317812
02422	9.361938	-0.183735	3.139366	-0.000342	-0.000655	0.003646	0.264327	0.177644	0.947931	-0.505409	0.862631	-0.020727	-0.821397	-0.473614	0.317800
02423	9.349979	-0.213738	3.152384	-0.002470	-0.000194	0.003232	0.264322	0.177634	0.947935	-0.505389	0.862643	-0.020728	-0.821411	-0.473597	0.317790
02424	9.372772	-0.222687	3.153562	-0.000171	-0.000328	0.001823	0.264324	0.177612	0.947938	-0.505387	0.862644	-0.020708	-0.821411	-0.473602	0.317780
02425	9.366321	-0.176225	3.116862	0.000016	0.001455	0.003965	0.264330	0.177615	0.947936	-0.505389	0.862643	-0.020707	-0.821408	-0.473603	0.317787
02426	9.363906	-0.240203	3.198706	-0.003356	0.001092	0.003185	0.264337	0.177611	0.947935	-0.505365	0.862657	-0.020709	-0.821421	-0.473579	0.317790
02427	9.331450	-0.197974	3.129006	-0.000870	0.002741	0.003918	0.264352	0.177620	0.947929	-0.505361	0.862660	-0.020711	-0.821419	-0.473571	0.317808
02428	9.380173	-0.203018	3.163396	-0.003885	-0.001345	0.004688	0.264332	0.177617	0.947935	-0.505336	0.862674	-0.020729	-0.821440	-0.473547	0.317788
02429	9.369413	-0.237471	3.122049	0.000016	0.001455	0.003965	0.264338	0.177620	0.947933	-0.505339	0.862672	-0.020727	-0.821436	-0.473549	0.317795
02430	9.387679	-0.182752	3.172968	-0.002284	0.001589	0.005374	0.264338	0.177637	0.947930	-0.505330	0.862677	-0.020746	-0.821442	-0.473533	0.317803
02431	9.326905	-0.208200	3.151809	-0.001057	0.000958	0.001776	0.264350	0.177619	0.947930	-0.505318	0.862684	-0.020728	-0.821445	-0.473527	0.317805
02432	9.384373	-0.196227	3.141398	-0.001756	0.004027	0.003871	0.264378	0.177635	0.947919	-0.505309	0.862689	-0.020731	-0.821442	-0.473511	0.317836
02433	9.334370	-0.187676	3.161527	-0.000700	-0.002765	0.003325	0.264351	0.177612	0.947931	-0.505305	0.862692	-0.020726	-0.821453	-0.473515	0.317802
02434	9.372361	-0.226603	3.154506	-0.000870	0.002741	0.003918	0.264368	0.177623	0.947924	-0.505304	0.862693	-0.020727	-0.821449	-0.473510	0.317822
02435	9.361489	-0.188586	3.140416	-0.001057	0.000958	0.001776	0.264382	0.177604	0.947923	-0.505291	0.862700	-0.020708	-0.821452	-0.473503	0.317824
02436	9.335480	-0.193067	3.107406	-0.002284	0.001589	0.005373	0.264382	0.177622	0.947920	-0.505282	0.862705	-0.020727	-0.821457	-0.473487	0.317833
02437	9.379789	-0.206354	3.164318	0.003372	0.000362	0.000780	0.264394	0.177593	0.947922	-0.505303	0.862694	-0.020686	-0.821441	-0.473518	0.317830
02438	9.358200	-0.202276	3.108779	-0.000156	0.001127	0.005787	0.264388	0.177611	0.947920	-0.505312	0.862688	-0.020703	-0.821437	-0.473522	0.317834
02439	9.372111	-0.228184	3.155135	0.001430	0.002606	0.002508	0.264410	0.177609	0.947915	-0.505320	0.862684	-0.020687	-0.821425	-0.473530	0.317852
02440	9.353615	-0.139057	3.158721	0.000015	0.001455	0.003964	0.264416	0.177614	0.947912	-0.505325	0.862681	-0.020686	-0.821420	-0.473534	0.317860
02441	9.318886	-0.232680	3.143453	-0.004957	-0.001841	0.002498	0.264403	0.177589	0.947920	-0.505281	0.862707	-0.020687	-0.821451	-0.473497	0.317834
02442	9.384014	-0.199680	3.142253	0.001088	0.001951	0.006153	0.264402	0.177615	0.947916	-0.505302	0.862694	-0.020704	-0.821439	-0.473509	0.317847
02443	9.335222	-0.195629	3.108021	-0.001399	0.000304	0.005420	0.264391	0.177626	0.947917	-0.505296	0.862697	-0.020721	-0.821446	-0.473500	0.317843
02444	9.368746	-0.243004	3.123627	0.001430	0.002606	0.002508	0.264414	0.177624	0.947911	-0.505309	0.862690	-0.020702	-0.821430	-0.473514	0.317862
02445	9.350261	-0.153888	3.127236	-0.002113	0.001917	0.003550	0.264426	0.177626	0.947907	-0.505291	0.862701	-0.020705	-0.821438	-0.473494	0.317874
02446	9.341394	-0.243434	3.145328	-0.000870	0.002741	0.003917	0.264443	0.177637	0.947900	-0.505289	0.862702	-0.020706	-0.821433	-0.473488	0.317893
02447	9.372931	-0.163434	3.128742	-0.000514	-0.000982	0.005467	0.264420	0.177642	0.947906	-0.505291	0.862700	-0.020723	-0.821440	-0.473489	0.317876
02448	9.341329	-0.244357	3.145449	-0.002113	0.001918	0.003550	0.264431	0.177646	0.947902	-0.505278	0.862708	-0.020724	-0.821444	-0.473474	0.317887
02449	9.368469	-0.172614	3.151341	-0.000171	-0.000327	0.001822	0.264435	0.177622	0.947905	-0.505273	0.862711	-0.020703	-0.821446	-0.473476	0.317879
02450	9.339323	-0.189929	3.086293	-0.003699	0.000439	0.006828	0.264419	0.177647	0.947905	-0.505256	0.862720	-0.020741	-0.821462	-0.473451	0.317876
02451	9.371627	-0.232978	3.156223	0.001243	0.000824	0.000367	0.264439	0.177616	0.947905	-0.505257	0.862720	-0.020702	-0.821454	-0.473462	0.317879
02452	9.368422	-0.173803	3.151418	0.000558	-0.000486	0.007655	0.264411	0.177644	0.947908	-0.505277	0.862708	-0.020734	-0.821451	-0.473474	0.317869
02453	9.375998	-0.225520	3.133787	-0.000156	0.001128	0.005786	0.264406	0.177661	0.947906	-0.505283	0.862704	-0.020750	-0.821449	-0.473474	0.317873
02454	9.391127	-0.183495	3.152795	0.000187	0.001782	0.002142	0.264424	0.177651	0.947903	-0.505285	0.862703	-0.020731	-0.821442	-0.473480	0.317884
02455	9.349940	-0.230249	3.100904	-0.001228	0.000632	0.003597	0.264427	0.177648	0.947903	-0.505274	0.862710	-0.020731	-0.821448	-0.473469	0.317885
02456	9.333512	-0.196373	3.163531	-0.000343	-0.000655	0.003644	0.264417	0.177640	0.947907	-0.505276	0.862709	-0.020728	-0.821449	-0.473474	0.317872
02457	9.387838	-0.197300	3.121141	-0.001754	0.004028	0.003869	0.264448	0.177655	0.947896	-0.505262	0.862717	-0.020731	-0.821449	-0.473453	0.317906
02458	9.337792	-0.188711	3.141398	0.000900	0.000169	0.004010	0.264443	0.177654	0.947897	-0.505275	0.862709	-0.020728	-0.821442	-0.473467	0.317901
02459	9.383373	-0.206538	3.143724	0.000370	-0.002269	0.005513	0.264409	0.177653	0.947907	-0.505285	0.862703	-0.020741	-0.821447	-0.473479	0.317872
02460	9.337816	-0.189484	3.141278	0.000187	0.001782	0.002141	0.264427	0.177644	0.947904	-0.505287	0.862702	-0.020722	-0.821440	-0.473484	0.317882
02461	9.360541	-0.198397	3.142637	-0.003185	0.001422	0.001361	0.264446	0.177623	0.947902	-0.505259	0.862719	-0.020703	-0.821451	-0.473461	0.317888
02462	9.378852	-0.215828	3.166464	0.000016	0.001455	0.003963	0.264452	0.177627	0.947900	-0.505265	0.862716	-0.020702	-0.821445	-0.473466	0.317896
02463	9.342123	-0.181928	3.119071	-0.001587	-0.001478	0.003277	0.264438	0.177611	0.947907	-0.505253	0.862723	-0.020699	-0.821457	-0.473459	0.317875
02464	9.360477	-0.199423	3.142763	0.000016	0.001455	0.003963	0.264444	0.177615	0.947904	-0.505259	0.862720	-0.020698	-0.821452	-0.473463	0.317883
02465	9.364867	-0.191370	3.120337	-0.002472	-0.000192	0.003230	0.264442	0.177604	0.947907	-0.505238	0.862732	-0.020696	-0.821465	-0.473446	0.317874
02466	9.330066	-0.212650	3.132167	0.000900	0.000169	0.004010	0.264437	0.177603	0.947908	-0.505251	0.862724	-0.020693	-0.821459	-0.473460	0.317870
02467	9.395188	-0.179516	3.131116	0.001431	0.002606	0.002508	0.264459	0.177598	0.947903	-0.505262	0.862719	-0.020673	-0.821445	-0.473472	0.317888
02468	9.345173	-0.243267	3.124095	-0.001930	-0.002133	0.006920	0.264421	0.177612	0.947911	-0.505259	0.862719	-0.020706	-0.821459	-0.473466	0.317861
02469	9.349629	-0.163074	3.128661	0.002144	0.000992	0.004376	0.264421	0.177616	0.947910	-0.505281	0.862707	-0.020702	-0.821446	-0.473487	0.317864
02470	9.360365	-0.201854	3.142939	-0.002643	-0.000519	0.005051	0.264405	0.177621	0.947914	-0.505268	0.862714	-0.020720	-0.821459	-0.473472	0.317852
02471	9.360341	-0.202317	3.142981	0.000016	0.001455	0.003963	0.264415	0.177624	0.947911	-0.505270	0.862713	-0.020717	-0.821455	-0.473472	0.317862
02472	9.367873	-0.181507	3.152615	-0.000869	0.002742	0.003915	0.264431	0.177635	0.947904	-0.505268	0.862714	-0.020718	-0.821450	-0.473467	0.317882
02473	9.317857	-0.245058	3.145563	0.001597	-0.002901	0.001916	0.264413	0.177599	0.947916	-0.505278	0.862708	-0.020692	-0.821450	-0.473490	0.317848
02474	9.364749	-0.194777	3.120481	-0.001587	-0.001478	0.003276	0.264398	0.177584	0.947923	-0.505269	0.862714	-0.020689	-0.821460	-0.473486	0.317827
02475	9.363564	-0.190869	3.174710	0.000369	-0.002269	0.005511	0.264366	0.177583	0.947932	-0.505277	0.862709	-0.020703	-0.821466	-0.473495	0.317799
02476	9.334400	-0.208131	3.109676	-0.000869	0.002742	0.003915	0.264382	0.177594	0.947925	-0.505275	0.862710	-0.020704	-0.821462	-0.473489	0.317819
02477	9.337517	-0.195836	3.141778	-0.000156	0.001128	0.005784	0.264378	0.177612	0.947923	-0.505279	0.862707	-0.020721	-0.821461	-0.473487	0.317824
02478	9.364698	-0.196504	3.120524	-0.003544	-0.000686	0.001041	0.264381	0.177581	0.947928	-0.505248	0.862726	-0.020704	-0.821479	-0.473465	0.317811
02479	9.378594	-0.222363	3.166773	0.001260	0.002278	0.004329	0.264390	0.177592	0.947923	-0.505261	0.862718	-0.020704	-0.821468	-0.473474	0.317825
02480	9.337393	-0.197053	3.142071	-0.001212	0.002088	0.007558	0.264383	0.177631	0.947918	-0.505266	0.862714	-0.020741	-0.821467	-0.473467	0.317838
02481	9.364588	-0.197886	3.120767	-0.000703	-0.002764	0.003323	0.264359	0.177609	0.947929	-0.505260	0.862718	-0.020736	-0.821478	-0.473469	0.317806
02482	9.364581	-0.198250	3.120764	-0.000868	0.002742	0.003915	0.264376	0.177619	0.947922	-0.505258	0.862719	-0.020737	-0.821474	-0.473463	0.317826
02483	9.349290	-0.240923	3.102055	-0.001056	0.000960	0.001774	0.264390	0.177603	0.947921	-0.505244	0.862728	-0.020720	-0.821478	-0.473453	0.317830
02484	9.375258	-0.164893	3.162471	-0.000868	0.002742	0.003915	0.264407	0.177613	0.947915	-0.505242	0.862729	-0.020721	-0.821474	-0.473447	0.317849
02485	9.356779	-0.220414	3.111822	-0.001228	0.000632	0.003595	0.264408	0.177609	0.947915	-0.505232	0.862734	-0.020722	-0.821480	-0.473439	0.317847
02486	9.367547	-0.186737	3.153279	0.002316	0.001318	0.002554	0.264419	0.177601	0.947914	-0.505253	0.862723	-0.020700	-0.821463	-0.473463	0.317854
02487	9.368742	-0.191356	3.098986	-0.003356	0.001097	0.003181	0.264427	0.177596	0.947913	-0.505226	0.862738	-0.020702	-0.821477	-0.473436	0.317857
02488	9.317453	-0.250575	3.146327	-0.001416	-0.001150	0.001454	0.264424	0.177566	0.947919	-0.505214	0.862746	-0.020681	-0.821486	-0.473433	0.317840
02489	9.379546	-0.158050	3.140322	0.001972	0.000664	0.006197	0.264412	0.177585	0.947919	-0.505240	0.862731	-0.020694	-0.821474	-0.473454	0.317839
02490	9.355379	-0.217659	3.166597	-0.002824	0.003534	0.001680	0.264447	0.177579	0.947910	-0.505216	0.862745	-0.020680	-0.821477	-0.473431	0.317866
02491	9.364147	-0.201098	3.121885	0.003388	0.001814	0.004742	0.264453	0.177591	0.947906	-0.505249	0.862726	-0.020675	-0.821455	-0.473461	0.317878
02492	9.359691	-0.209869	3.144424	-0.000344	-0.000654	0.003642	0.264443	0.177583	0.947910	-0.505251	0.862725	-0.020672	-0.821457	-0.473466	0.317866
02493	9.336903	-0.201499	3.143246	0.000016	0.001455	0.003962	0.264451	0.177585	0.947908	-0.505253	0.862724	-0.020669	-0.821453	-0.473468	0.317873
02494	9.390014	-0.198060	3.155230	-0.001056	0.000960	0.001774	0.264463	0.177569	0.947907	-0.505245	0.862729	-0.020651	-0.821454	-0.473464	0.317876
02495	9.341250	-0.193729	3.120973	-0.000156	0.001128	0.005782	0.264456	0.177586	0.947906	-0.505251	0.862725	-0.020668	-0.821453	-0.473465	0.317879
02496	9.355092	-0.219856	3.167296	0.001088	0.001951	0.006149	0.264455	0.177612	0.947902	-0.505271	0.862713	-0.020684	-0.821440	-0.473478	0.317891
02497	9.339911	-0.190398	3.175603	-0.002472	-0.000190	0.003228	0.264455	0.177601	0.947904	-0.505251	0.862725	-0.020682	-0.821453	-0.473460	0.317885
02498	9.386652	-0.212560	3.123707	0.003388	0.001813	0.004742	0.264460	0.177614	0.947900	-0.505286	0.862704	-0.020678	-0.821430	-0.473492	0.317896
02499	9.341098	-0.195362	3.121327	-0.003544	-0.000685	0.001040	0.264463	0.177582	0.947905	-0.505252	0.862725	-0.020660	-0.821450	-0.473467	0.317882
02500	9.409375	-0.221861	3.125008	0.000016	0.001455	0.003961	0.264469	0.177586	0.947903	-0.505258	0.862721	-0.020658	-0.821444	-0.473471	0.317890
02501	9.336593	-0.204445	3.143977	0.000016	0.001455	0.003961	0.264475	0.177589	0.947900	-0.505260	0.862720	-0.020658	-0.821441	-0.473473	0.317897
02502	9.344179	-0.183634	3.153517	-0.001228	0.000633	0.003594	0.264476	0.177587	0.947900	-0.505255	0.862723	-0.020657	-0.821444	-0.473468	0.317896
02503	9.363711	-0.205503	3.122905	0.000016	0.001455	0.003961	0.264485	0.177591	0.947897	-0.505254	0.862724	-0.020656	-0.821442	-0.473465	0.317906
02504	9.337686	-0.209989	3.089944	-0.001040	0.002416	0.005734	0.264489	0.177615	0.947891	-0.505255	0.862722	-0.020675	-0.821439	-0.473459	0.317922
02505	9.354722	-0.223298	3.168147	-0.002472	-0.000189	0.003227	0.264487	0.177604	0.947894	-0.505235	0.862734	-0.020675	-0.821452	-0.473441	0.317914
02506	9.363590	-0.206811	3.123184	0.000900	0.000168	0.004008	0.264482	0.177603	0.947896	-0.505248	0.862726	-0.020671	-0.821446	-0.473456	0.317909
02507	9.336325	-0.206789	3.144618	-0.002824	0.003535	0.001679	0.264517	0.177596	0.947887	-0.505222	0.862742	-0.020656	-0.821451	-0.473430	0.317935
02508	9.386251	-0.216151	3.124664	-0.001589	-0.001477	0.003275	0.264502	0.177581	0.947894	-0.505213	0.862747	-0.020654	-0.821461	-0.473426	0.317915
02509	9.343929	-0.186173	3.154108	0.001072	0.000495	0.002187	0.264510	0.177566	0.947895	-0.505217	0.862746	-0.020635	-0.821456	-0.473434	0.317914
02510	9.340696	-0.199299	3.122279	-0.002284	0.001593	0.005367	0.264510	0.177583	0.947892	-0.505207	0.862751	-0.020654	-0.821462	-0.473419	0.317923
02511	9.371054	-0.187325	3.133024	0.000899	0.000168	0.004008	0.264506	0.177581	0.947893	-0.505217	0.862745	-0.020651	-0.821458	-0.473429	0.317918
02512	9.363397	-0.208967	3.123619	-0.003529	0.000771	0.005000	0.264501	0.177592	0.947893	-0.505196	0.862757	-0.020671	-0.821472	-0.473404	0.317918
02513	9.331777	-0.217527	3.167263	-0.000705	-0.002764	0.003322	0.264475	0.177570	0.947904	-0.505190	0.862760	-0.020667	-0.821484	-0.473406	0.317885
02514	9.371061	-0.188581	3.132926	0.003388	0.001812	0.004741	0.264480	0.177583	0.947900	-0.505226	0.862740	-0.020662	-0.821460	-0.473439	0.317897
02515	9.363335	-0.210050	3.123731	-0.002823	0.003535	0.001679	0.264516	0.177576	0.947892	-0.505199	0.862756	-0.020647	-0.821465	-0.473413	0.317923
02516	9.340548	-0.201675	3.122569	0.000366	-0.002269	0.005509	0.264483	0.177576	0.947901	-0.505212	0.862748	-0.020660	-0.821468	-0.473427	0.317896
02517	9.348196	-0.180950	3.131958	-0.003356	0.001099	0.003180	0.264492	0.177572	0.947899	-0.505183	0.862765	-0.020662	-0.821483	-0.473397	0.317901
02518	9.366455	-0.198440	3.155807	-0.001939	0.002248	0.001726	0.264516	0.177561	0.947894	-0.505167	0.862775	-0.020646	-0.821485	-0.473384	0.317915
02519	9.393593	-0.199064	3.134718	0.000016	0.001455	0.003960	0.264521	0.177566	0.947892	-0.505166	0.862775	-0.020648	-0.821484	-0.473381	0.317923
02520	9.331532	-0.220034	3.167813	-0.000518	-0.000981	0.005461	0.264500	0.177572	0.947897	-0.505172	0.862771	-0.020663	-0.821487	-0.473385	0.317907
02521	9.393516	-0.199709	3.134907	0.000894	0.004546	-0.001181	0.264556	0.177546	0.947886	-0.505167	0.862775	-0.020611	-0.821472	-0.473388	0.317943
02522	9.347924	-0.182305	3.132692	0.000899	0.000168	0.004007	0.264552	0.177544	0.947887	-0.505180	0.862768	-0.020607	-0.821465	-0.473402	0.317939
02523	9.350977	-0.242261	3.137397	0.000366	-0.002269	0.005508	0.264518	0.177545	0.947897	-0.505188	0.862763	-0.020622	-0.821471	-0.473412	0.317909
02524	9.370689	-0.191935	3.133836	-0.000868	0.002743	0.003913	0.264534	0.177555	0.947890	-0.505187	0.862764	-0.020623	-0.821467	-0.473406	0.317929
02525	9.362989	-0.213582	3.124528	-0.001401	0.000307	0.005413	0.264523	0.177565	0.947891	-0.505180	0.862767	-0.020641	-0.821475	-0.473396	0.317924
02526	9.366145	-0.201205	3.156552	0.000188	0.001783	0.002140	0.264541	0.177556	0.947888	-0.505183	0.862766	-0.020622	-0.821467	-0.473401	0.317935
02527	9.370515	-0.193074	3.134285	-0.000868	0.002743	0.003912	0.264558	0.177564	0.947882	-0.505178	0.862769	-0.020623	-0.821465	-0.473393	0.317954
02528	9.358365	-0.222955	3.147466	0.001072	0.000495	0.002187	0.264565	0.177549	0.947883	-0.505187	0.862764	-0.020602	-0.821457	-0.473408	0.317953
02529	9.362813	-0.214880	3.124966	-0.000518	-0.000981	0.005460	0.264545	0.177555	0.947887	-0.505187	0.862763	-0.020617	-0.821463	-0.473406	0.317938
02530	9.344461	-0.198080	3.101383	-0.002822	0.003536	0.001678	0.264580	0.177549	0.947879	-0.505164	0.862778	-0.020604	-0.821467	-0.473383	0.317965
02531	9.373504	-0.181665	3.166749	-0.000868	0.002743	0.003912	0.264595	0.177560	0.947872	-0.505157	0.862782	-0.020607	-0.821466	-0.473371	0.317983
02532	9.358190	-0.224371	3.147887	0.000538	-0.001942	0.003688	0.264575	0.177546	0.947881	-0.505166	0.862776	-0.020602	-0.821467	-0.473386	0.317959
02533	9.335448	-0.215959	3.146604	-0.001229	0.000634	0.003593	0.264574	0.177543	0.947881	-0.505157	0.862782	-0.020603	-0.821472	-0.473378	0.317957
02534	9.370275	-0.195501	3.134854	-0.001229	0.000634	0.003593	0.264575	0.177540	0.947882	-0.505152	0.862785	-0.020602	-0.821475	-0.473373	0.317956
02535	9.362588	-0.217133	3.125485	-0.000157	0.001129	0.005779	0.264569	0.177557	0.947880	-0.505158	0.862780	-0.020618	-0.821473	-0.473375	0.317959
02536	9.365745	-0.204760	3.157509	-0.001056	0.000961	0.001773	0.264582	0.177540	0.947880	-0.505150	0.862786	-0.020599	-0.821474	-0.473371	0.317962
02537	9.347368	-0.188051	3.134010	-0.002096	0.003377	0.007504	0.264588	0.177584	0.947870	-0.505142	0.862790	-0.020639	-0.821477	-0.473348	0.317989
02538	9.335232	-0.218281	3.147086	0.000364	-0.002269	0.005507	0.264556	0.177584	0.947879	-0.505154	0.862782	-0.020651	-0.821480	-0.473362	0.317961
02539	9.374532	-0.189378	3.112822	0.001433	0.002604	0.002506	0.264579	0.177580	0.947873	-0.505165	0.862776	-0.020631	-0.821466	-0.473374	0.317980
02540	9.388336	-0.215460	3.159080	-0.002819	-0.000841	0.006865	0.264551	0.177598	0.947877	-0.505155	0.862781	-0.020666	-0.821481	-0.473358	0.317965
02541	9.339644	-0.211113	3.124650	-0.000173	-0.000327	0.001820	0.264556	0.177575	0.947881	-0.505149	0.862785	-0.020645	-0.821483	-0.473359	0.317956
02542	9.370043	-0.199081	3.135320	-0.001402	0.000307	0.005412	0.264545	0.177587	0.947881	-0.505147	0.862786	-0.020662	-0.821488	-0.473354	0.317953
02543	9.342766	-0.199201	3.156756	0.000378	0.003565	0.004278	0.264570	0.177602	0.947871	-0.505154	0.862782	-0.020660	-0.821476	-0.473355	0.317982
02544	9.369899	-0.199933	3.135697	-0.001229	0.000634	0.003592	0.264571	0.177599	0.947872	-0.505149	0.862785	-0.020659	-0.821479	-0.473350	0.317982
02545	9.347109	-0.191529	3.134571	0.000016	0.001456	0.003959	0.264575	0.177602	0.947870	-0.505151	0.862783	-0.020659	-0.821475	-0.473352	0.317987
02546	9.347076	-0.191887	3.134647	0.000899	0.000168	0.004006	0.264570	0.177601	0.947871	-0.505165	0.862776	-0.020655	-0.821469	-0.473366	0.317983
02547	9.365323	-0.209533	3.158448	0.001087	0.001950	0.006145	0.264571	0.177626	0.947867	-0.505180	0.862766	-0.020671	-0.821459	-0.473375	0.317997
02548	9.343809	-0.205535	3.102861	-0.003718	-0.001008	0.002858	0.264563	0.177610	0.947872	-0.505153	0.862782	-0.020671	-0.821479	-0.473351	0.317980
02549	9.369784	-0.201926	3.135911	0.001781	-0.001121	0.004053	0.264549	0.177601	0.947878	-0.505168	0.862773	-0.020665	-0.821474	-0.473371	0.317964
02550	9.342577	-0.201918	3.157143	-0.001229	0.000634	0.003592	0.264550	0.177599	0.947878	-0.505163	0.862777	-0.020664	-0.821477	-0.473366	0.317964
02551	9.392511	-0.211419	3.137149	0.000899	0.000168	0.004006	0.264546	0.177596	0.947879	-0.505172	0.862771	-0.020661	-0.821472	-0.473377	0.317959
02552	9.350166	-0.181483	3.166769	-0.000867	0.002744	0.003911	0.264562	0.177606	0.947873	-0.505171	0.862772	-0.020662	-0.821468	-0.473371	0.317979
02553	9.374165	-0.194947	3.113584	-0.000708	-0.002763	0.003320	0.264541	0.177586	0.947882	-0.505161	0.862778	-0.020658	-0.821480	-0.473369	0.317950
02554	9.377376	-0.182542	3.145471	0.003388	0.001810	0.004739	0.264546	0.177599	0.947879	-0.505197	0.862757	-0.020653	-0.821457	-0.473401	0.317962
02555	9.365157	-0.212421	3.158746	-0.002821	0.003538	0.001677	0.264581	0.177593	0.947870	-0.505168	0.862774	-0.020641	-0.821463	-0.473372	0.317988
02556	9.369559	-0.204382	3.136426	0.000725	-0.000159	0.005825	0.264564	0.177606	0.947872	-0.505184	0.862764	-0.020655	-0.821459	-0.473386	0.317981
02557	9.366344	-0.217588	3.104498	-0.004601	0.000281	0.002810	0.264569	0.177593	0.947873	-0.505146	0.862786	-0.020656	-0.821481	-0.473350	0.317977
02558	9.361846	-0.226399	3.127050	0.000016	0.001456	0.003958	0.264575	0.177598	0.947871	-0.505152	0.862783	-0.020655	-0.821475	-0.473354	0.317985
02559	9.358892	-0.167138	3.122272	-0.001418	-0.001148	0.001453	0.264574	0.177568	0.947877	-0.505135	0.862794	-0.020635	-0.821486	-0.473346	0.317968
02560	9.352888	-0.243811	3.172046	-0.002111	0.001923	0.003544	0.264586	0.177571	0.947873	-0.505122	0.862801	-0.020636	-0.821490	-0.473331	0.317980
02561	9.362051	-0.154975	3.154308	-0.000173	-0.000327	0.001819	0.264591	0.177548	0.947876	-0.505114	0.862806	-0.020616	-0.821494	-0.473330	0.317973
02562	9.380061	-0.244726	3.150860	0.000898	0.000167	0.004005	0.264586	0.177547	0.947877	-0.505127	0.862799	-0.020613	-0.821487	-0.473345	0.317968
02563	9.346659	-0.197827	3.135523	0.001434	0.002604	0.002505	0.264610	0.177544	0.947871	-0.505136	0.862794	-0.020594	-0.821474	-0.473354	0.317987
02564	9.373808	-0.198580	3.114428	-0.003530	0.000775	0.004996	0.264605	0.177554	0.947871	-0.505115	0.862806	-0.020613	-0.821488	-0.473329	0.317988
02565	9.338862	-0.219856	3.126383	-0.000867	0.002744	0.003910	0.264625	0.177564	0.947863	-0.505108	0.862810	-0.020614	-0.821486	-0.473318	0.318010
02566	9.350952	-0.190730	3.113485	0.000725	-0.000159	0.005824	0.264608	0.177577	0.947866	-0.505124	0.862800	-0.020629	-0.821482	-0.473331	0.318002
02567	9.338780	-0.220758	3.126565	0.000016	0.001456	0.003958	0.264615	0.177581	0.947863	-0.505124	0.862800	-0.020629	-0.821480	-0.473329	0.318011
02568	9.357301	-0.166060	3.177485	0.000898	0.000167	0.004005	0.264610	0.177580	0.947864	-0.505137	0.862793	-0.020626	-0.821473	-0.473343	0.318006
02569	9.373558	-0.200712	3.115044	-0.001749	0.004033	0.003862	0.264639	0.177596	0.947853	-0.505123	0.862801	-0.020630	-0.821472	-0.473323	0.318038
02570	9.360059	-0.226390	3.182704	-0.003356	0.001103	0.003176	0.264646	0.177592	0.947852	-0.505099	0.862815	-0.020632	-0.821485	-0.473299	0.318042
02571	9.358391	-0.171613	3.123532	0.002852	-0.000627	0.006238	0.264624	0.177606	0.947856	-0.505129	0.862797	-0.020645	-0.821474	-0.473326	0.318030
02572	9.341700	-0.210086	3.159204	-0.003876	0.004501	0.003448	0.264657	0.177620	0.947844	-0.505101	0.862813	-0.020651	-0.821480	-0.473292	0.318066
02573	9.361149	-0.231928	3.128730	0.001071	0.000494	0.002186	0.264662	0.177605	0.947845	-0.505106	0.862811	-0.020634	-0.821476	-0.473301	0.318062
02574	9.376489	-0.189872	3.147678	0.000898	0.000167	0.004005	0.264657	0.177604	0.947847	-0.505119	0.862803	-0.020630	-0.821469	-0.473316	0.318058
02575	9.342842	-0.215236	3.105114	-0.001056	0.000962	0.001771	0.264667	0.177587	0.947847	-0.505106	0.862811	-0.020614	-0.821474	-0.473308	0.318058
02576	9.368759	-0.211678	3.138330	-0.001403	0.000308	0.005409	0.264656	0.177598	0.947848	-0.505104	0.862812	-0.020631	-0.821478	-0.473302	0.318054
02577	9.350458	-0.194912	3.114710	0.000016	0.001456	0.003957	0.264664	0.177603	0.947845	-0.505105	0.862811	-0.020631	-0.821476	-0.473301	0.318063
02578	9.364199	-0.220948	3.161002	-0.003356	0.001103	0.003176	0.264671	0.177599	0.947844	-0.505081	0.862825	-0.020633	-0.821488	-0.473277	0.318067
02579	9.350355	-0.195768	3.114967	0.001087	0.001950	0.006143	0.264667	0.177624	0.947840	-0.505098	0.862815	-0.020651	-0.821479	-0.473287	0.318076
02580	9.368552	-0.213453	3.138829	0.000016	0.001456	0.003957	0.264673	0.177629	0.947838	-0.505104	0.862811	-0.020650	-0.821473	-0.473291	0.318084
02581	9.357939	-0.175339	3.124678	0.001071	0.000494	0.002186	0.264679	0.177612	0.947839	-0.505111	0.862808	-0.020629	-0.821467	-0.473303	0.318081
02582	9.360803	-0.235253	3.129519	-0.003530	0.000777	0.004994	0.264674	0.177623	0.947838	-0.505090	0.862820	-0.020649	-0.821481	-0.473278	0.318081
02583	9.353412	-0.184597	3.147251	0.000898	0.000167	0.004004	0.264672	0.177621	0.947840	-0.505098	0.862815	-0.020646	-0.821477	-0.473287	0.318079
02584	9.368408	-0.214931	3.139156	-0.000866	0.002745	0.003909	0.264688	0.177631	0.947833	-0.505096	0.862816	-0.020647	-0.821473	-0.473282	0.318098
02585	9.372814	-0.206891	3.116879	0.000016	0.001456	0.003957	0.264697	0.177635	0.947830	-0.505098	0.862815	-0.020645	-0.821469	-0.473283	0.318107
02586	9.327310	-0.189625	3.114496	0.000898	0.000167	0.004004	0.264692	0.177633	0.947832	-0.505112	0.862807	-0.020641	-0.821462	-0.473297	0.318103
02587	9.345528	-0.207160	3.138291	-0.005310	0.001899	0.000942	0.264714	0.177612	0.947829	-0.505064	0.862835	-0.020629	-0.821485	-0.473253	0.318110
02588	9.353199	-0.186296	3.147785	0.001779	-0.001122	0.004052	0.264698	0.177605	0.947835	-0.505084	0.862824	-0.020623	-0.821477	-0.473278	0.318094
02589	9.368251	-0.216597	3.139512	0.000898	0.000167	0.004004	0.264694	0.177602	0.947837	-0.505096	0.862817	-0.020618	-0.821472	-0.473291	0.318088
02590	9.368230	-0.216958	3.139549	-0.001229	0.000636	0.003589	0.264695	0.177599	0.947837	-0.505090	0.862820	-0.020617	-0.821475	-0.473286	0.318088
02591	9.345479	-0.208432	3.138352	-0.002301	0.000142	0.001404	0.264703	0.177575	0.947839	-0.505066	0.862835	-0.020600	-0.821487	-0.473268	0.318082
02592	9.345478	-0.208621	3.138341	-0.000174	-0.000327	0.001819	0.264705	0.177553	0.947843	-0.505064	0.862836	-0.020579	-0.821487	-0.473274	0.318073
02593	9.345451	-0.208995	3.138398	-0.002285	0.001598	0.005360	0.264702	0.177568	0.947841	-0.505053	0.862842	-0.020599	-0.821495	-0.473257	0.318078
02594	9.372619	-0.209776	3.117271	-0.001056	0.000962	0.001771	0.264715	0.177552	0.947840	-0.505044	0.862848	-0.020580	-0.821496	-0.473253	0.318081
02595	9.325853	-0.188209	3.169275	-0.001403	0.000309	0.005408	0.264704	0.177561	0.947842	-0.505040	0.862850	-0.020597	-0.821503	-0.473245	0.318075
02596	9.375714	-0.197803	3.149498	0.001799	0.004712	0.002824	0.264742	0.177572	0.947829	-0.505057	0.862841	-0.020580	-0.821480	-0.473259	0.318114
02597	9.360586	-0.168125	3.157981	-0.001230	0.000636	0.003589	0.264745	0.177569	0.947829	-0.505047	0.862847	-0.020580	-0.821485	-0.473249	0.318115
02598	9.349666	-0.202449	3.116606	0.000723	-0.000160	0.005822	0.264728	0.177582	0.947831	-0.505063	0.862837	-0.020594	-0.821480	-0.473263	0.318107
02599	9.357365	-0.181737	3.126031	-0.000348	-0.000653	0.003637	0.264719	0.177572	0.947835	-0.505062	0.862837	-0.020590	-0.821484	-0.473265	0.318094
02600	9.364695	-0.233409	3.108323	-0.003704	0.000451	0.006811	0.264702	0.177596	0.947836	-0.505045	0.862846	-0.020628	-0.821500	-0.473239	0.318092
02601	9.348349	-0.199593	3.171042	0.002317	0.001314	0.002552	0.264715	0.177587	0.947834	-0.505063	0.862836	-0.020606	-0.821485	-0.473261	0.318099
02602	9.357297	-0.183282	3.126145	-0.001752	-0.000344	0.009044	0.264681	0.177627	0.947836	-0.505068	0.862832	-0.020658	-0.821493	-0.473253	0.318089
02603	9.337362	-0.234543	3.129795	0.001435	0.002603	0.002504	0.264486	0.177606	0.947894	-0.505069	0.862829	-0.020741	-0.821555	-0.473267	0.317910
02604	9.357232	-0.184188	3.126287	-0.001768	-0.001800	0.005088	0.264459	0.177605	0.947902	-0.505064	0.862833	-0.020756	-0.821567	-0.473262	0.317886
02605	9.360046	-0.244281	3.131089	-0.001040	0.002419	0.005726	0.264460	0.177629	0.947897	-0.505061	0.862834	-0.020779	-0.821568	-0.473250	0.317899
02606	9.357176	-0.185198	3.126395	-0.000348	-0.000653	0.003636	0.264450	0.177621	0.947901	-0.505063	0.862833	-0.020776	-0.821570	-0.473255	0.317886
02607	9.367703	-0.223959	3.140632	-0.001230	0.000636	0.003588	0.264451	0.177618	0.947902	-0.505054	0.862838	-0.020776	-0.821576	-0.473247	0.317884
02608	9.352588	-0.194462	3.149104	-0.000675	0.004528	0.006045	0.264471	0.177655	0.947889	-0.505059	0.862834	-0.020797	-0.821566	-0.473240	0.317921
02609	9.357043	-0.186500	3.126714	-0.000713	-0.002762	0.003317	0.264446	0.177633	0.947900	-0.505052	0.862839	-0.020793	-0.821578	-0.473240	0.317888
02610	9.344828	-0.216355	3.139753	-0.002818	0.003541	0.001675	0.264481	0.177628	0.947891	-0.505028	0.862853	-0.020779	-0.821582	-0.473216	0.317915
02611	9.367463	-0.225481	3.141236	0.003388	0.001807	0.004737	0.264484	0.177640	0.947888	-0.505059	0.862835	-0.020777	-0.821562	-0.473244	0.317924
02612	9.352414	-0.195947	3.149530	-0.002649	-0.000510	0.005039	0.264468	0.177645	0.947892	-0.505046	0.862842	-0.020795	-0.821575	-0.473229	0.317913
02613	9.353683	-0.200712	3.095125	-0.001230	0.000636	0.003588	0.264468	0.177642	0.947892	-0.505035	0.862848	-0.020796	-0.821581	-0.473219	0.317911
02614	9.375101	-0.205624	3.150822	-0.001230	0.000636	0.003588	0.264469	0.177639	0.947893	-0.505030	0.862851	-0.020795	-0.821585	-0.473214	0.317911
02615	9.334110	-0.179796	3.125978	0.002317	0.001313	0.002552	0.264482	0.177631	0.947891	-0.505046	0.862842	-0.020774	-0.821570	-0.473234	0.317918
02616	9.375047	-0.206154	3.150947	-0.000349	-0.000653	0.003636	0.264472	0.177622	0.947895	-0.505048	0.862841	-0.020771	-0.821572	-0.473239	0.317905
02617	9.326323	-0.201579	3.116700	-0.001746	0.004035	0.003859	0.264500	0.177637	0.947884	-0.505035	0.862849	-0.020775	-0.821571	-0.473220	0.317936
02618	9.379445	-0.198578	3.128715	0.000358	-0.002269	0.005501	0.264467	0.177638	0.947894	-0.505048	0.862841	-0.020788	-0.821574	-0.473234	0.317908
02619	9.352198	-0.198532	3.150008	-0.002817	0.003542	0.001674	0.264501	0.177630	0.947885	-0.505023	0.862856	-0.020772	-0.821578	-0.473210	0.317933
02620	9.352157	-0.198745	3.150116	-0.001420	-0.001146	0.001451	0.264498	0.177600	0.947892	-0.505011	0.862864	-0.020752	-0.821587	-0.473207	0.317916
02621	9.356648	-0.190686	3.127644	-0.000158	0.001130	0.005773	0.264492	0.177619	0.947890	-0.505014	0.862861	-0.020770	-0.821587	-0.473204	0.317920
02622	9.362582	-0.237996	3.164550	-0.002992	0.003215	0.003492	0.264515	0.177628	0.947882	-0.504994	0.862873	-0.020774	-0.821592	-0.473179	0.317944
02623	9.329294	-0.191027	3.149231	0.003198	0.000023	0.002600	0.264515	0.177612	0.947885	-0.505018	0.862859	-0.020751	-0.821577	-0.473210	0.317937
02624	9.356465	-0.191907	3.128117	-0.003341	0.002563	0.007127	0.264514	0.177650	0.947878	-0.505005	0.862866	-0.020791	-0.821586	-0.473183	0.317954
02625	9.351931	-0.200876	3.150652	0.001778	-0.001123	0.004050	0.264495	0.177641	0.947885	-0.505025	0.862855	-0.020785	-0.821579	-0.473208	0.317934
02626	9.379109	-0.201587	3.129530	-0.002817	0.003542	0.001674	0.264529	0.177635	0.947877	-0.505001	0.862869	-0.020771	-0.821583	-0.473184	0.317960
02627	9.351823	-0.201456	3.150936	0.000897	0.000167	0.004002	0.264523	0.177633	0.947879	-0.505010	0.862863	-0.020769	-0.821579	-0.473194	0.317954
02628	9.351803	-0.201816	3.150973	-0.001230	0.000637	0.003587	0.264524	0.177631	0.947879	-0.505005	0.862867	-0.020768	-0.821582	-0.473190	0.317953
02629	9.356281	-0.193857	3.128545	-0.001404	0.000310	0.005405	0.264512	0.177641	0.947880	-0.505000	0.862869	-0.020786	-0.821589	-0.473181	0.317948
02630	9.339529	-0.232211	3.164071	-0.001055	0.000963	0.001770	0.264525	0.177624	0.947880	-0.504991	0.862875	-0.020767	-0.821591	-0.473177	0.317950
02631	9.345745	-0.156007	3.114396	-0.000175	-0.000326	0.001818	0.264524	0.177600	0.947885	-0.504988	0.862877	-0.020747	-0.821593	-0.473182	0.317937
02632	9.336316	-0.245291	3.132090	-0.001420	-0.001146	0.001450	0.264521	0.177571	0.947891	-0.504975	0.862885	-0.020727	-0.821601	-0.473179	0.317920
02633	9.371667	-0.152593	3.147592	0.002507	0.003095	0.004688	0.264536	0.177588	0.947884	-0.505001	0.862870	-0.020725	-0.821581	-0.473199	0.317942
02634	9.336218	-0.246189	3.132312	-0.001754	-0.000343	0.009039	0.264501	0.177628	0.947886	-0.505005	0.862866	-0.020777	-0.821589	-0.473192	0.317932
02635	9.351576	-0.204485	3.151475	-0.000325	0.005181	0.002408	0.264548	0.177635	0.947872	-0.505002	0.862869	-0.020761	-0.821576	-0.473184	0.317976
02636	9.375497	-0.217942	3.098536	-0.002476	-0.000182	0.003220	0.264544	0.177625	0.947874	-0.504985	0.862878	-0.020761	-0.821588	-0.473170	0.317967
02637	9.336471	-0.175174	3.159997	0.000016	0.001456	0.003954	0.264547	0.177629	0.947873	-0.504987	0.862877	-0.020761	-0.821586	-0.473171	0.317972
02638	9.378637	-0.206061	3.130653	-0.000159	0.001130	0.005771	0.264541	0.177647	0.947871	-0.504996	0.862871	-0.020778	-0.821582	-0.473175	0.317976
02639	9.351376	-0.206083	3.151965	-0.001230	0.000637	0.003587	0.264542	0.177644	0.947871	-0.504987	0.862877	-0.020777	-0.821587	-0.473167	0.317975
02640	9.348126	-0.219082	3.120098	-0.001055	0.000963	0.001769	0.264555	0.177627	0.947871	-0.504979	0.862882	-0.020758	-0.821588	-0.473163	0.317978
02641	9.360322	-0.190088	3.107188	-0.002635	0.000948	0.008990	0.264530	0.177673	0.947869	-0.504970	0.862886	-0.020817	-0.821602	-0.473139	0.317979
02642	9.355746	-0.199066	3.129820	0.001437	0.002602	0.002504	0.264552	0.177670	0.947864	-0.504984	0.862878	-0.020798	-0.821586	-0.473153	0.317997
02643	9.360206	-0.190913	3.107485	0.000896	0.000166	0.004002	0.264550	0.177668	0.947865	-0.504994	0.862873	-0.020792	-0.821581	-0.473165	0.317994
02644	9.378423	-0.208549	3.131128	-0.001596	-0.001472	0.003267	0.264535	0.177652	0.947872	-0.504984	0.862878	-0.020790	-0.821591	-0.473161	0.317973
02645	9.355702	-0.200047	3.129888	0.000016	0.001456	0.003953	0.264541	0.177655	0.947870	-0.504987	0.862877	-0.020789	-0.821588	-0.473162	0.317980
02646	9.345205	-0.162003	3.115713	-0.002476	-0.000182	0.003219	0.264537	0.177646	0.947872	-0.504970	0.862886	-0.020789	-0.821599	-0.473148	0.317971
02647	9.369358	-0.226492	3.176116	0.000896	0.000166	0.004001	0.264532	0.177643	0.947874	-0.504980	0.862881	-0.020785	-0.821595	-0.473159	0.317966
02648	9.360143	-0.192822	3.107557	-0.002285	0.001601	0.005355	0.264532	0.177661	0.947871	-0.504970	0.862886	-0.020804	-0.821601	-0.473143	0.317974
02649	9.378310	-0.210310	3.131350	0.000175	0.000326	-0.001817	0.264558	0.177609	0.947874	-0.504957	0.862895	-0.020749	-0.821601	-0.473146	0.317970
02650	9.328379	-0.201328	3.151299	0.002498	-0.001284	0.009867	0.264511	0.177652	0.947879	-0.504998	0.862870	-0.020796	-0.821590	-0.473176	0.317952
02651	9.375077	-0.223804	3.099390	-0.003007	0.001761	-0.000463	0.264542	0.177619	0.947876	-0.504964	0.862891	-0.020764	-0.821602	-0.473150	0.317961
02652	9.336074	-0.180947	3.160847	-0.002651	-0.000508	0.005036	0.264526	0.177623	0.947880	-0.504950	0.862898	-0.020781	-0.821615	-0.473135	0.317950
02653	9.378250	-0.211860	3.131425	0.000016	0.001456	0.003953	0.264530	0.177625	0.947878	-0.504955	0.862896	-0.020779	-0.821611	-0.473139	0.317954
02654	9.354197	-0.199158	3.184715	-0.000159	0.001130	0.005770	0.264524	0.177644	0.947876	-0.504964	0.862890	-0.020796	-0.821607	-0.473142	0.317959
02655	9.347715	-0.225120	3.120899	-0.001405	0.000311	0.005403	0.264514	0.177655	0.947877	-0.504957	0.862893	-0.020814	-0.821615	-0.473132	0.317955
02656	9.378141	-0.213140	3.131664	0.001246	0.000819	0.000367	0.264532	0.177625	0.947878	-0.504964	0.862890	-0.020775	-0.821605	-0.473148	0.317957
02657	9.350877	-0.213145	3.152974	-0.002635	0.000949	0.008988	0.264508	0.177670	0.947876	-0.504957	0.862893	-0.020831	-0.821617	-0.473126	0.317958
02658	9.363105	-0.184232	3.140032	0.000896	0.000166	0.004001	0.264503	0.177669	0.947877	-0.504970	0.862886	-0.020827	-0.821610	-0.473141	0.317954
02659	9.347557	-0.226781	3.121254	-0.002815	0.003544	0.001673	0.264537	0.177662	0.947869	-0.504945	0.862901	-0.020813	-0.821615	-0.473116	0.317979
02660	9.350750	-0.214361	3.153268	0.000530	-0.001943	0.003682	0.264517	0.177648	0.947878	-0.504954	0.862895	-0.020808	-0.821616	-0.473131	0.317954
02661	9.382495	-0.206749	3.109552	0.000016	0.001456	0.003953	0.264526	0.177651	0.947874	-0.504956	0.862894	-0.020804	-0.821611	-0.473132	0.317964
02662	9.328001	-0.206201	3.152103	-0.001230	0.000638	0.003585	0.264527	0.177649	0.947875	-0.504951	0.862897	-0.020804	-0.821614	-0.473127	0.317963
02663	9.344741	-0.168518	3.116759	0.000191	0.001783	0.002136	0.264548	0.177638	0.947871	-0.504949	0.862899	-0.020783	-0.821608	-0.473129	0.317977
02664	9.347375	-0.228365	3.121684	-0.002110	0.001928	0.003537	0.264560	0.177641	0.947867	-0.504937	0.862906	-0.020785	-0.821612	-0.473114	0.317988
02665	9.381059	-0.203783	3.164300	-0.000717	-0.002761	0.003314	0.264535	0.177619	0.947878	-0.504931	0.862910	-0.020780	-0.821624	-0.473116	0.317955
02666	9.362865	-0.186843	3.140592	-0.000864	0.002747	0.003904	0.264551	0.177629	0.947872	-0.504929	0.862910	-0.020781	-0.821620	-0.473111	0.317974
02667	9.347307	-0.229387	3.121810	-0.001055	0.000964	0.001769	0.264566	0.177612	0.947871	-0.504916	0.862919	-0.020763	-0.821623	-0.473102	0.317978
02668	9.352326	-0.149082	3.126633	-0.000159	0.001130	0.005769	0.264560	0.177630	0.947869	-0.504925	0.862913	-0.020780	-0.821620	-0.473105	0.317982
02669	9.354956	-0.209105	3.131525	-0.002110	0.001928	0.003537	0.264571	0.177631	0.947866	-0.504909	0.862922	-0.020781	-0.821625	-0.473088	0.317992
02670	9.350393	-0.217897	3.154086	0.000896	0.000166	0.004000	0.264566	0.177630	0.947867	-0.504923	0.862915	-0.020777	-0.821619	-0.473103	0.317988
02671	9.362645	-0.188714	3.141136	-0.001230	0.000638	0.003585	0.264569	0.177627	0.947867	-0.504912	0.862921	-0.020777	-0.821625	-0.473093	0.317988
02672	9.319882	-0.230848	3.143482	0.002142	0.000984	0.004367	0.264569	0.177633	0.947866	-0.504937	0.862906	-0.020773	-0.821610	-0.473116	0.317991
02673	9.385260	-0.198243	3.142606	-0.001935	0.002255	0.001720	0.264593	0.177621	0.947862	-0.504917	0.862918	-0.020757	-0.821614	-0.473100	0.318006
02674	9.347035	-0.231886	3.122442	-0.001597	-0.001471	0.003266	0.264578	0.177606	0.947869	-0.504908	0.862924	-0.020755	-0.821624	-0.473095	0.317985
02675	9.354793	-0.210940	3.131889	0.001246	0.000818	0.000367	0.264599	0.177576	0.947868	-0.504908	0.862924	-0.020717	-0.821618	-0.473105	0.317988
02676	9.350264	-0.219621	3.154347	-0.000526	-0.000979	0.005449	0.264577	0.177582	0.947873	-0.504913	0.862921	-0.020731	-0.821621	-0.473109	0.317972
02677	9.362543	-0.190618	3.141327	-0.001406	0.000312	0.005401	0.264567	0.177592	0.947874	-0.504908	0.862924	-0.020748	-0.821628	-0.473100	0.317969
02678	9.362526	-0.191066	3.141349	0.000896	0.000166	0.004000	0.264562	0.177591	0.947876	-0.504921	0.862916	-0.020745	-0.821621	-0.473114	0.317964
02679	9.336574	-0.195232	3.108202	-0.001230	0.000638	0.003585	0.264562	0.177588	0.947876	-0.504913	0.862921	-0.020745	-0.821627	-0.473107	0.317962
02680	9.385182	-0.200695	3.142685	-0.001230	0.000638	0.003584	0.264563	0.177585	0.947877	-0.504907	0.862924	-0.020744	-0.821630	-0.473102	0.317961
02681	9.331976	-0.204497	3.130825	-0.002285	0.001602	0.005353	0.264564	0.177602	0.947873	-0.504893	0.862932	-0.020765	-0.821638	-0.473081	0.317971
02682	9.372814	-0.231169	3.155853	0.000896	0.000166	0.004000	0.264559	0.177601	0.947875	-0.504906	0.862924	-0.020761	-0.821632	-0.473095	0.317966
02683	9.362376	-0.193006	3.141680	-0.001055	0.000964	0.001768	0.264571	0.177583	0.947875	-0.504894	0.862932	-0.020743	-0.821635	-0.473088	0.317967
02684	9.324139	-0.226791	3.121501	0.000545	-0.000487	0.007632	0.264542	0.177610	0.947878	-0.504914	0.862920	-0.020775	-0.821632	-0.473101	0.317956
02685	9.366915	-0.185548	3.119124	0.000528	-0.001943	0.003680	0.264524	0.177596	0.947885	-0.504917	0.862918	-0.020771	-0.821636	-0.473109	0.317934
02686	9.350088	-0.223866	3.154571	-0.002110	0.001929	0.003536	0.264536	0.177599	0.947881	-0.504904	0.862926	-0.020772	-0.821640	-0.473094	0.317945
02687	9.357799	-0.203047	3.164183	-0.001055	0.000964	0.001768	0.264550	0.177581	0.947881	-0.504892	0.862933	-0.020753	-0.821643	-0.473088	0.317948
02688	9.366872	-0.186559	3.119193	0.000353	-0.002269	0.005496	0.264517	0.177581	0.947890	-0.504905	0.862925	-0.020765	-0.821646	-0.473101	0.317920
02689	9.335120	-0.194829	3.162838	0.002318	0.001310	0.002551	0.264528	0.177571	0.947889	-0.504923	0.862915	-0.020744	-0.821631	-0.473124	0.317925
02690	9.362320	-0.195570	3.141687	0.000896	0.000166	0.003999	0.264523	0.177570	0.947890	-0.504936	0.862908	-0.020740	-0.821625	-0.473138	0.317921
02691	9.359062	-0.208540	3.109796	-0.001055	0.000965	0.001768	0.264535	0.177552	0.947891	-0.504925	0.862914	-0.020722	-0.821628	-0.473132	0.317922
02692	9.331846	-0.208403	3.130957	0.000353	-0.002269	0.005496	0.264502	0.177552	0.947900	-0.504938	0.862907	-0.020734	-0.821630	-0.473146	0.317894
02693	9.362337	-0.196516	3.141576	0.003197	0.000019	0.002598	0.264505	0.177538	0.947902	-0.504961	0.862894	-0.020710	-0.821615	-0.473176	0.317889
02694	9.350042	-0.226296	3.154535	-0.000351	-0.000652	0.003632	0.264495	0.177529	0.947906	-0.504963	0.862893	-0.020707	-0.821617	-0.473181	0.317877
02695	9.362321	-0.197123	3.141587	0.000016	0.001457	0.003951	0.264504	0.177533	0.947903	-0.504964	0.862892	-0.020705	-0.821614	-0.473180	0.317886
02696	9.324673	-0.158653	3.148625	-0.002653	-0.000505	0.005032	0.264488	0.177537	0.947906	-0.504951	0.862899	-0.020723	-0.821627	-0.473165	0.317875
02697	9.377169	-0.228168	3.133516	0.000208	0.003239	0.006086	0.264500	0.177567	0.947897	-0.504960	0.862893	-0.020741	-0.821617	-0.473165	0.317900
02698	9.351819	-0.160060	3.127604	0.000704	-0.001617	0.001864	0.264491	0.177539	0.947905	-0.504966	0.862890	-0.020717	-0.821617	-0.473180	0.317878
02699	9.349954	-0.228462	3.154640	-0.001949	-0.002122	0.006896	0.264454	0.177552	0.947913	-0.504958	0.862894	-0.020751	-0.821633	-0.473169	0.317853
02700	9.339545	-0.190379	3.140451	0.001614	0.002926	0.000686	0.264489	0.177536	0.947907	-0.504969	0.862889	-0.020714	-0.821616	-0.473184	0.317874
02701	9.366731	-0.191159	3.119340	-0.002653	-0.000505	0.005032	0.264473	0.177540	0.947910	-0.504951	0.862899	-0.020733	-0.821632	-0.473165	0.317862
02702	9.380344	-0.217372	3.165512	-0.001230	0.000639	0.003583	0.264473	0.177537	0.947911	-0.504946	0.862902	-0.020732	-0.821635	-0.473160	0.317861
02703	9.339464	-0.191499	3.140623	-0.001230	0.000639	0.003583	0.264475	0.177533	0.947911	-0.504938	0.862907	-0.020731	-0.821639	-0.473153	0.317860
02704	9.377025	-0.230899	3.133747	0.001088	0.001948	0.006133	0.264473	0.177559	0.947906	-0.504958	0.862895	-0.020747	-0.821627	-0.473166	0.317872
02705	9.347184	-0.171205	3.150222	-0.002669	-0.001961	0.001081	0.264466	0.177522	0.947916	-0.504931	0.862911	-0.020728	-0.821647	-0.473150	0.317846
02706	9.377035	-0.231630	3.133662	-0.001406	0.000313	0.005399	0.264455	0.177533	0.947917	-0.504929	0.862912	-0.020745	-0.821651	-0.473144	0.317843
02707	9.362129	-0.202054	3.141845	-0.001598	-0.001470	0.003264	0.264439	0.177518	0.947924	-0.504914	0.862920	-0.020745	-0.821665	-0.473134	0.317821
02708	9.362082	-0.202440	3.141962	-0.001741	0.004039	0.003854	0.264466	0.177534	0.947913	-0.504905	0.862925	-0.020749	-0.821662	-0.473119	0.317852
02709	9.349676	-0.232345	3.155178	0.002142	0.000983	0.004366	0.264467	0.177538	0.947912	-0.504928	0.862912	-0.020743	-0.821648	-0.473142	0.317855
02710	9.343814	-0.185853	3.118549	-0.004603	0.000295	0.002800	0.264469	0.177527	0.947914	-0.504893	0.862933	-0.020746	-0.821669	-0.473108	0.317851
02711	9.349608	-0.233209	3.155316	-0.002285	0.001604	0.005350	0.264467	0.177543	0.947911	-0.504881	0.862939	-0.020766	-0.821677	-0.473090	0.317857
02712	9.369684	-0.182948	3.151877	-0.000176	-0.000326	0.001815	0.264469	0.177521	0.947915	-0.504879	0.862941	-0.020745	-0.821677	-0.473096	0.317848
02713	9.384579	-0.213327	3.143653	0.001966	0.000657	0.006181	0.264459	0.177538	0.947914	-0.504905	0.862925	-0.020757	-0.821665	-0.473117	0.317848
02714	9.335918	-0.208626	3.109304	-0.003356	0.001113	0.003167	0.264466	0.177534	0.947913	-0.504881	0.862939	-0.020759	-0.821677	-0.473093	0.317852
02715	9.346955	-0.175281	3.150677	0.000351	-0.002269	0.005494	0.264433	0.177534	0.947922	-0.504890	0.862933	-0.020772	-0.821682	-0.473104	0.317823
02716	9.339164	-0.196750	3.141191	-0.001933	0.002256	0.001719	0.264456	0.177523	0.947918	-0.504874	0.862943	-0.020756	-0.821684	-0.473090	0.317838
02717	9.361846	-0.206039	3.142431	0.000351	-0.002269	0.005494	0.264425	0.177523	0.947927	-0.504882	0.862939	-0.020769	-0.821689	-0.473099	0.317811
02718	9.335928	-0.210237	3.109166	-0.001230	0.000639	0.003583	0.264426	0.177520	0.947927	-0.504876	0.862942	-0.020769	-0.821693	-0.473094	0.317810
02719	9.384510	-0.215780	3.143692	0.000017	0.001457	0.003950	0.264432	0.177523	0.947925	-0.504880	0.862940	-0.020767	-0.821688	-0.473097	0.317817
02720	9.339150	-0.198357	3.141132	-0.000896	-0.003086	0.005127	0.264395	0.177516	0.947936	-0.504881	0.862939	-0.020780	-0.821700	-0.473101	0.317781
02721	9.331376	-0.219900	3.131570	0.000017	0.001457	0.003950	0.264400	0.177519	0.947934	-0.504884	0.862937	-0.020779	-0.821696	-0.473103	0.317787
02722	9.339170	-0.199230	3.141017	0.000351	-0.002269	0.005494	0.264367	0.177519	0.947944	-0.504897	0.862929	-0.020791	-0.821699	-0.473117	0.317759
02723	9.346945	-0.178573	3.150523	-0.000862	0.002748	0.003901	0.264386	0.177528	0.947937	-0.504892	0.862932	-0.020791	-0.821696	-0.473109	0.317780
02724	9.364301	-0.268563	3.147270	-0.000862	0.002748	0.003901	0.264403	0.177538	0.947930	-0.504891	0.862933	-0.020792	-0.821691	-0.473104	0.317799
02725	9.351316	-0.170942	3.128533	-0.002109	0.001931	0.003534	0.264417	0.177541	0.947926	-0.504873	0.862943	-0.020793	-0.821698	-0.473084	0.317813
02726	9.361616	-0.209784	3.142868	-0.001230	0.000640	0.003582	0.264418	0.177538	0.947926	-0.504867	0.862947	-0.020793	-0.821701	-0.473079	0.317812
02727	9.346714	-0.180019	3.151125	-0.000176	-0.000326	0.001815	0.264421	0.177515	0.947929	-0.504862	0.862950	-0.020772	-0.821703	-0.473081	0.317803
02728	9.353782	-0.231535	3.133453	-0.002285	0.001605	0.005349	0.264421	0.177533	0.947926	-0.504852	0.862955	-0.020792	-0.821709	-0.473065	0.317811
02729	9.361509	-0.210830	3.143115	-0.001933	0.002257	0.001719	0.264446	0.177521	0.947921	-0.504831	0.862968	-0.020777	-0.821714	-0.473046	0.317826
02730	9.346603	-0.181077	3.151393	-0.001599	-0.001469	0.003263	0.264431	0.177506	0.947928	-0.504822	0.862974	-0.020774	-0.821725	-0.473041	0.317806
02731	9.335531	-0.215234	3.110015	-0.000862	0.002748	0.003901	0.264448	0.177515	0.947922	-0.504816	0.862977	-0.020776	-0.821722	-0.473032	0.317825
02732	9.391915	-0.199779	3.153997	0.001597	-0.001452	0.005860	0.264420	0.177522	0.947928	-0.504840	0.862963	-0.020788	-0.821717	-0.473056	0.317805
02733	9.353611	-0.233469	3.133821	0.001264	0.002274	0.004316	0.264429	0.177533	0.947924	-0.504855	0.862954	-0.020786	-0.821704	-0.473068	0.317819
02734	9.334119	-0.212124	3.164678	-0.001054	0.000966	0.001767	0.264442	0.177516	0.947923	-0.504846	0.862959	-0.020768	-0.821706	-0.473064	0.317821
02735	9.376921	-0.170737	3.162508	-0.001231	0.000640	0.003582	0.264444	0.177512	0.947923	-0.504839	0.862964	-0.020766	-0.821710	-0.473057	0.317821
02736	9.370431	-0.196554	3.098554	-0.001776	-0.001795	0.005077	0.264418	0.177511	0.947931	-0.504833	0.862967	-0.020781	-0.821722	-0.473052	0.317797
02737	9.341936	-0.192189	3.174045	0.001773	-0.001126	0.004045	0.264403	0.177503	0.947937	-0.504848	0.862958	-0.020776	-0.821717	-0.473071	0.317781
02738	9.365910	-0.205761	3.120876	-0.003356	0.001115	0.003166	0.264410	0.177499	0.947935	-0.504824	0.862972	-0.020778	-0.821730	-0.473047	0.317784
02739	9.380755	-0.236005	3.112719	0.001247	0.000817	0.000367	0.264431	0.177469	0.947935	-0.504827	0.862971	-0.020738	-0.821721	-0.473060	0.317787
02740	9.340645	-0.137635	3.115063	-0.001231	0.000640	0.003581	0.264431	0.177466	0.947936	-0.504822	0.862975	-0.020738	-0.821725	-0.473055	0.317786
02741	9.371575	-0.253411	3.157825	-0.002109	0.001931	0.003533	0.264447	0.177468	0.947931	-0.504805	0.862984	-0.020737	-0.821730	-0.473036	0.317800
02742	9.354128	-0.164260	3.161465	0.001966	0.000656	0.006179	0.264435	0.177488	0.947930	-0.504833	0.862968	-0.020751	-0.821717	-0.473059	0.317801
02743	9.365751	-0.207335	3.121248	-0.001424	-0.001143	0.001447	0.264436	0.177459	0.947936	-0.504814	0.862979	-0.020732	-0.821728	-0.473049	0.317786
02744	9.341798	-0.194286	3.174324	0.001949	-0.000801	0.002230	0.264432	0.177437	0.947941	-0.504831	0.862970	-0.020708	-0.821719	-0.473074	0.317772
02745	9.347634	-0.190389	3.097487	0.000017	0.001457	0.003949	0.264438	0.177441	0.947938	-0.504834	0.862968	-0.020707	-0.821715	-0.473076	0.317780
02746	9.356605	-0.224977	3.166228	-0.003356	0.001115	0.003166	0.264445	0.177437	0.947937	-0.504810	0.862982	-0.020709	-0.821727	-0.473052	0.317783
02747	9.347597	-0.191225	3.097547	0.000349	-0.002269	0.005492	0.264413	0.177437	0.947946	-0.504818	0.862977	-0.020722	-0.821733	-0.473061	0.317755
02748	9.383809	-0.226426	3.145035	-0.001739	0.004040	0.003852	0.264440	0.177453	0.947936	-0.504809	0.862982	-0.020726	-0.821729	-0.473046	0.317787
02749	9.342949	-0.200570	3.120229	-0.000529	-0.000978	0.005444	0.264416	0.177459	0.947941	-0.504810	0.862981	-0.020743	-0.821736	-0.473046	0.317769
02750	9.383748	-0.227437	3.145143	-0.001407	0.000314	0.005395	0.264405	0.177470	0.947942	-0.504808	0.862982	-0.020760	-0.821741	-0.473040	0.317765
02751	9.323470	-0.179941	3.151043	-0.000861	0.002749	0.003900	0.264424	0.177480	0.947935	-0.504801	0.862986	-0.020762	-0.821740	-0.473028	0.317786
02752	9.362270	-0.223494	3.089743	-0.000176	-0.000326	0.001814	0.264426	0.177458	0.947939	-0.504799	0.862988	-0.020742	-0.821740	-0.473034	0.317777
02753	9.358424	-0.159939	3.139561	0.002512	0.003090	0.004683	0.264441	0.177474	0.947931	-0.504826	0.862972	-0.020738	-0.821719	-0.473056	0.317799
02754	9.339512	-0.215436	3.088681	-0.004255	-0.001970	0.008289	0.264397	0.177500	0.947939	-0.504808	0.862981	-0.020792	-0.821744	-0.473030	0.317773
02755	9.368736	-0.199502	3.153690	-0.001248	-0.000816	-0.000367	0.264406	0.177455	0.947945	-0.504789	0.862993	-0.020754	-0.821753	-0.473024	0.317758
02756	9.338204	-0.211844	3.143063	-0.002986	0.003224	0.003484	0.264429	0.177464	0.947937	-0.504768	0.863005	-0.020758	-0.821758	-0.473000	0.317782
02757	9.360784	-0.221199	3.144562	0.001264	0.002273	0.004315	0.264442	0.177475	0.947931	-0.504780	0.862998	-0.020757	-0.821747	-0.473008	0.317799
02758	9.345875	-0.191600	3.152930	-0.001407	0.000315	0.005395	0.264431	0.177487	0.947932	-0.504778	0.862999	-0.020774	-0.821752	-0.473002	0.317795
02759	9.360687	-0.222128	3.144784	-0.002108	0.001932	0.003532	0.264443	0.177488	0.947928	-0.504762	0.863009	-0.020775	-0.821758	-0.472984	0.317806
02760	9.353643	-0.171344	3.162523	0.000525	-0.001944	0.003677	0.264422	0.177474	0.947936	-0.504771	0.863003	-0.020770	-0.821759	-0.472999	0.317781
02761	9.360665	-0.222867	3.144800	-0.004234	0.002408	0.003116	0.264441	0.177475	0.947931	-0.504736	0.863024	-0.020774	-0.821774	-0.472962	0.317797
02762	9.372999	-0.193745	3.131952	0.000894	0.000165	0.003996	0.264436	0.177474	0.947933	-0.504749	0.863016	-0.020770	-0.821767	-0.472976	0.317793
02763	9.350309	-0.185224	3.130729	-0.001407	0.000315	0.005394	0.264424	0.177483	0.947934	-0.504746	0.863018	-0.020787	-0.821774	-0.472969	0.317787
02764	9.337851	-0.215111	3.143889	0.000564	0.003891	0.002453	0.264458	0.177487	0.947924	-0.504752	0.863015	-0.020770	-0.821759	-0.472974	0.317817
02765	9.372835	-0.194955	3.132366	-0.001407	0.000315	0.005394	0.264448	0.177497	0.947925	-0.504746	0.863018	-0.020786	-0.821766	-0.472964	0.317814
02766	9.360406	-0.225022	3.145416	-0.002285	0.001607	0.005346	0.264448	0.177514	0.947922	-0.504736	0.863023	-0.020805	-0.821771	-0.472949	0.317823
02767	9.319591	-0.199118	3.120548	0.000894	0.000165	0.003996	0.264443	0.177512	0.947924	-0.504746	0.863017	-0.020803	-0.821767	-0.472959	0.317817
02768	9.372721	-0.196435	3.132616	-0.002285	0.001607	0.005346	0.264443	0.177529	0.947921	-0.504736	0.863022	-0.020822	-0.821773	-0.472943	0.317826
02769	9.368094	-0.205047	3.155241	0.002672	0.001958	-0.001079	0.264478	0.177492	0.947918	-0.504745	0.863018	-0.020766	-0.821756	-0.472965	0.317838
02770	9.345373	-0.196180	3.154137	-0.003356	0.001117	0.003164	0.264485	0.177488	0.947916	-0.504721	0.863032	-0.020769	-0.821769	-0.472941	0.317842
02771	9.345352	-0.196729	3.154164	0.000541	-0.000487	0.007623	0.264456	0.177514	0.947920	-0.504738	0.863022	-0.020801	-0.821768	-0.472951	0.317829
02772	9.342086	-0.209918	3.122198	0.000894	0.000165	0.003995	0.264450	0.177513	0.947921	-0.504751	0.863014	-0.020797	-0.821761	-0.472965	0.317824
02773	9.364719	-0.219165	3.123537	0.000194	0.001783	0.002133	0.264470	0.177503	0.947918	-0.504749	0.863016	-0.020779	-0.821757	-0.472966	0.317836
02774	9.372527	-0.198439	3.133070	-0.000530	-0.000977	0.005442	0.264448	0.177509	0.947923	-0.504755	0.863012	-0.020794	-0.821760	-0.472970	0.317820
02775	9.345269	-0.198237	3.154317	0.000194	0.001783	0.002133	0.264465	0.177497	0.947920	-0.504755	0.863013	-0.020774	-0.821755	-0.472973	0.317830
02776	9.372460	-0.198996	3.133235	-0.001054	0.000967	0.001766	0.264478	0.177481	0.947920	-0.504746	0.863018	-0.020756	-0.821756	-0.472969	0.317832
02777	9.345178	-0.198716	3.154557	0.000017	0.001457	0.003947	0.264485	0.177485	0.947917	-0.504748	0.863017	-0.020755	-0.821752	-0.472970	0.317840
02778	9.373693	-0.203889	3.079014	0.000894	0.000165	0.003995	0.264480	0.177483	0.947919	-0.504761	0.863009	-0.020751	-0.821746	-0.472984	0.317835
02779	9.337295	-0.220603	3.145159	-0.001408	0.000315	0.005393	0.264469	0.177494	0.947920	-0.504754	0.863013	-0.020770	-0.821754	-0.472973	0.317831
02780	9.367760	-0.209049	3.155969	-0.000160	0.001131	0.005760	0.264463	0.177513	0.947918	-0.504763	0.863008	-0.020787	-0.821750	-0.472977	0.317835
02781	9.364474	-0.222178	3.124058	-0.002479	-0.000175	0.003212	0.264460	0.177502	0.947921	-0.504744	0.863019	-0.020785	-0.821763	-0.472961	0.317827
02782	9.349638	-0.192559	3.132289	0.000717	-0.000161	0.005809	0.264443	0.177515	0.947923	-0.504761	0.863009	-0.020800	-0.821758	-0.472974	0.317819
02783	9.376848	-0.193575	3.111142	0.000017	0.001457	0.003946	0.264448	0.177518	0.947921	-0.504764	0.863007	-0.020798	-0.821755	-0.472976	0.317825
02784	9.341765	-0.214447	3.122852	-0.001602	-0.001467	0.003260	0.264433	0.177502	0.947928	-0.504754	0.863013	-0.020796	-0.821765	-0.472972	0.317804
02785	9.394951	-0.211709	3.134763	-0.002479	-0.000175	0.003211	0.264428	0.177492	0.947932	-0.504734	0.863024	-0.020797	-0.821779	-0.472954	0.317794
02786	9.346314	-0.206680	3.100426	0.001442	0.002598	0.002500	0.264451	0.177489	0.947926	-0.504748	0.863017	-0.020777	-0.821764	-0.472969	0.317813
02787	9.344990	-0.202776	3.154854	0.000346	-0.002269	0.005489	0.264419	0.177489	0.947935	-0.504756	0.863012	-0.020790	-0.821769	-0.472979	0.317785
02788	9.376781	-0.195207	3.111242	-0.000506	0.003401	0.000271	0.264459	0.177471	0.947927	-0.504748	0.863017	-0.020756	-0.821761	-0.472975	0.317811
02789	9.337062	-0.224423	3.145581	-0.001408	0.000316	0.005392	0.264447	0.177481	0.947928	-0.504742	0.863020	-0.020774	-0.821768	-0.472966	0.317806
02790	9.361862	-0.165978	3.119730	-0.000160	0.001131	0.005760	0.264441	0.177500	0.947926	-0.504751	0.863015	-0.020791	-0.821765	-0.472969	0.317810
02791	9.341545	-0.217022	3.123331	-0.002108	0.001934	0.003530	0.264451	0.177503	0.947923	-0.504735	0.863024	-0.020794	-0.821771	-0.472951	0.317820
02792	9.349330	-0.196224	3.132981	0.002319	0.001306	0.002548	0.264463	0.177494	0.947921	-0.504756	0.863012	-0.020772	-0.821755	-0.472975	0.317826
02793	9.364060	-0.226587	3.124983	-0.001737	0.004042	0.003849	0.264488	0.177509	0.947912	-0.504744	0.863019	-0.020777	-0.821754	-0.472958	0.317855
02794	9.349193	-0.196898	3.133348	-0.001602	-0.001467	0.003259	0.264473	0.177494	0.947919	-0.504735	0.863024	-0.020774	-0.821764	-0.472953	0.317834
02795	9.357051	-0.176170	3.142786	0.000894	0.000164	0.003994	0.264467	0.177491	0.947921	-0.504744	0.863019	-0.020772	-0.821760	-0.472964	0.317828
02796	9.336751	-0.227186	3.146305	-0.000160	0.001131	0.005759	0.264461	0.177510	0.947919	-0.504753	0.863013	-0.020788	-0.821757	-0.472968	0.317832
02797	9.349129	-0.198236	3.133454	-0.000160	0.001131	0.005759	0.264458	0.177527	0.947917	-0.504759	0.863010	-0.020804	-0.821755	-0.472967	0.317838
02798	9.379607	-0.186604	3.144264	0.000894	0.000164	0.003994	0.264452	0.177526	0.947918	-0.504772	0.863002	-0.020800	-0.821748	-0.472982	0.317833
02799	9.349092	-0.199042	3.133513	-0.002479	-0.000174	0.003211	0.264451	0.177516	0.947921	-0.504749	0.863015	-0.020801	-0.821763	-0.472962	0.317826
02800	9.359284	-0.237993	3.147801	0.001088	0.001947	0.006126	0.264450	0.177542	0.947916	-0.504770	0.863003	-0.020817	-0.821751	-0.472974	0.317839
02801	9.367139	-0.217252	3.157258	0.001576	-0.002911	0.001910	0.264430	0.177507	0.947928	-0.504780	0.862998	-0.020792	-0.821751	-0.472997	0.317805
02802	9.356936	-0.179024	3.142966	-0.003356	0.001119	0.003162	0.264437	0.177503	0.947927	-0.504756	0.863012	-0.020794	-0.821763	-0.472973	0.317808
02803	9.345784	-0.212958	3.101600	0.001248	0.000815	0.000367	0.264490	0.177471	0.947918	-0.504715	0.863036	-0.020753	-0.821771	-0.472940	0.317837
02804	9.321794	-0.199965	3.154792	0.000716	-0.000161	0.005807	0.264473	0.177484	0.947921	-0.504732	0.863026	-0.020767	-0.821766	-0.472953	0.317829
02805	9.376263	-0.201682	3.112389	-0.001408	0.000316	0.005391	0.264464	0.177494	0.947921	-0.504727	0.863029	-0.020783	-0.821772	-0.472945	0.317826
02806	9.353569	-0.193134	3.111220	0.000017	0.001457	0.003945	0.264470	0.177499	0.947919	-0.504733	0.863026	-0.020782	-0.821767	-0.472949	0.317834
02807	9.344346	-0.210330	3.156267	0.000017	0.001457	0.003945	0.264478	0.177502	0.947916	-0.504735	0.863024	-0.020780	-0.821763	-0.472950	0.317842
02808	9.356765	-0.181202	3.143349	-0.000355	-0.000651	0.003626	0.264468	0.177494	0.947920	-0.504736	0.863023	-0.020777	-0.821765	-0.472955	0.317830
02809	9.359115	-0.241205	3.148057	0.001964	0.000654	0.006174	0.264457	0.177513	0.947920	-0.504760	0.863009	-0.020790	-0.821754	-0.472973	0.317831
02810	9.353463	-0.194726	3.111437	0.000893	0.000164	0.003993	0.264452	0.177511	0.947921	-0.504773	0.863002	-0.020787	-0.821748	-0.472988	0.317826
02811	9.371509	-0.212422	3.135196	-0.001054	0.000968	0.001765	0.264468	0.177495	0.947920	-0.504757	0.863012	-0.020770	-0.821753	-0.472976	0.317831
02812	9.361299	-0.174273	3.120966	0.001592	-0.001454	0.005855	0.264440	0.177502	0.947926	-0.504781	0.862997	-0.020782	-0.821747	-0.472999	0.317811
02813	9.348857	-0.204193	3.133885	-0.001231	0.000642	0.003577	0.264443	0.177499	0.947926	-0.504771	0.863003	-0.020782	-0.821752	-0.472990	0.317811
02814	9.348846	-0.204656	3.133888	-0.002657	-0.000498	0.005023	0.264427	0.177504	0.947930	-0.504757	0.863011	-0.020799	-0.821765	-0.472974	0.317800
02815	9.366908	-0.222533	3.157576	0.000893	0.000164	0.003993	0.264422	0.177501	0.947932	-0.504767	0.863005	-0.020796	-0.821761	-0.472986	0.317795
02816	9.330802	-0.188029	3.110064	-0.002852	-0.002281	0.002891	0.264403	0.177479	0.947941	-0.504746	0.863017	-0.020794	-0.821780	-0.472972	0.317766
02817	9.374734	-0.202199	3.167132	0.000762	0.005673	0.004583	0.264443	0.177509	0.947924	-0.504753	0.863013	-0.020798	-0.821763	-0.472967	0.317816
02818	9.326080	-0.197201	3.132870	-0.001603	-0.001466	0.003258	0.264428	0.177494	0.947931	-0.504743	0.863019	-0.020795	-0.821774	-0.472963	0.317796
02819	9.366872	-0.224084	3.157572	-0.002153	-0.003899	0.004752	0.264387	0.177479	0.947946	-0.504731	0.863026	-0.020808	-0.821795	-0.472956	0.317752
02820	9.369145	-0.156540	3.130337	0.001266	0.002272	0.004312	0.264397	0.177490	0.947941	-0.504748	0.863016	-0.020806	-0.821781	-0.472970	0.317767
02821	9.331735	-0.245267	3.169311	-0.002302	0.000153	0.001397	0.264406	0.177464	0.947943	-0.504727	0.863029	-0.020786	-0.821791	-0.472957	0.317760
02822	9.379292	-0.195688	3.144652	0.000716	-0.000161	0.005805	0.264389	0.177477	0.947945	-0.504744	0.863019	-0.020800	-0.821786	-0.472970	0.317753
02823	9.353347	-0.199770	3.111468	-0.001231	0.000642	0.003577	0.264388	0.177473	0.947946	-0.504736	0.863023	-0.020800	-0.821791	-0.472963	0.317750
02824	9.348725	-0.208467	3.133995	-0.001054	0.000968	0.001764	0.264401	0.177456	0.947946	-0.504727	0.863029	-0.020781	-0.821792	-0.472959	0.317753
02825	9.401862	-0.205805	3.146075	0.001964	0.000654	0.006173	0.264387	0.177476	0.947946	-0.504751	0.863015	-0.020797	-0.821782	-0.472978	0.317751
02826	9.330566	-0.191941	3.110531	-0.003161	0.002904	0.005293	0.264398	0.177499	0.947939	-0.504734	0.863024	-0.020819	-0.821789	-0.472952	0.317771
02827	9.371210	-0.218699	3.135660	0.001249	0.000815	0.000367	0.264414	0.177469	0.947940	-0.504736	0.863024	-0.020783	-0.821783	-0.472964	0.317771
02828	9.364291	-0.167814	3.153427	-0.002657	-0.000497	0.005022	0.264399	0.177473	0.947943	-0.504722	0.863031	-0.020800	-0.821796	-0.472948	0.317759
02829	9.345283	-0.223140	3.102393	-0.000533	-0.000976	0.005437	0.264376	0.177478	0.947949	-0.504725	0.863029	-0.020815	-0.821802	-0.472950	0.317742
02830	9.383663	-0.190572	3.122656	-0.000160	0.001132	0.005756	0.264370	0.177497	0.947947	-0.504734	0.863024	-0.020832	-0.821798	-0.472953	0.317746
02831	9.325878	-0.202349	3.133142	-0.000178	-0.000325	0.001812	0.264375	0.177473	0.947950	-0.504728	0.863027	-0.020810	-0.821800	-0.472955	0.317739
02832	9.379015	-0.199543	3.145236	-0.001929	0.002261	0.001716	0.264398	0.177462	0.947945	-0.504712	0.863037	-0.020794	-0.821802	-0.472942	0.317753
02833	9.351734	-0.199224	3.166532	-0.002480	-0.000172	0.003209	0.264397	0.177453	0.947948	-0.504690	0.863050	-0.020795	-0.821817	-0.472921	0.317746
02834	9.371068	-0.221265	3.135903	0.003390	0.001793	0.004727	0.264401	0.177466	0.947944	-0.504725	0.863030	-0.020791	-0.821793	-0.472954	0.317758
02835	9.333600	-0.182403	3.143035	-0.001053	0.000968	0.001764	0.264412	0.177449	0.947944	-0.504711	0.863038	-0.020775	-0.821798	-0.472945	0.317758
02836	9.337186	-0.246588	3.093380	-0.001409	0.000318	0.005389	0.264402	0.177460	0.947945	-0.504709	0.863039	-0.020792	-0.821803	-0.472939	0.317755
02837	9.391304	-0.171827	3.132729	0.000017	0.001457	0.003944	0.264409	0.177465	0.947942	-0.504709	0.863039	-0.020792	-0.821801	-0.472937	0.317763
02838	9.348264	-0.213701	3.135019	-0.001231	0.000643	0.003576	0.264410	0.177462	0.947942	-0.504704	0.863042	-0.020791	-0.821804	-0.472933	0.317763
02839	9.352845	-0.205736	3.112588	0.000715	-0.000161	0.005804	0.264394	0.177475	0.947944	-0.504715	0.863035	-0.020806	-0.821802	-0.472941	0.317755
02840	9.360741	-0.185112	3.122015	-0.001604	-0.001465	0.003257	0.264379	0.177459	0.947951	-0.504706	0.863041	-0.020804	-0.821813	-0.472936	0.317735
02841	9.343656	-0.223358	3.157415	0.000018	0.001457	0.003943	0.264385	0.177464	0.947949	-0.504707	0.863040	-0.020804	-0.821810	-0.472936	0.317742
02842	9.383372	-0.194875	3.123263	-0.001604	-0.001465	0.003257	0.264371	0.177448	0.947956	-0.504698	0.863046	-0.020801	-0.821820	-0.472932	0.317722
02843	9.345012	-0.228386	3.102826	0.000342	-0.002269	0.005485	0.264341	0.177448	0.947964	-0.504706	0.863040	-0.020813	-0.821825	-0.472941	0.317695
02844	9.336810	-0.173417	3.174996	0.001266	0.002272	0.004311	0.264351	0.177459	0.947959	-0.504723	0.863031	-0.020812	-0.821811	-0.472955	0.317711
02845	9.375438	-0.217090	3.113836	-0.000680	0.003076	0.002083	0.264381	0.177454	0.947952	-0.504713	0.863036	-0.020796	-0.821807	-0.472946	0.317734
02846	9.370773	-0.225796	3.136461	-0.001231	0.000643	0.003576	0.264382	0.177452	0.947952	-0.504708	0.863040	-0.020795	-0.821810	-0.472941	0.317733
02847	9.383265	-0.196690	3.123472	-0.001605	-0.001465	0.003257	0.264368	0.177434	0.947959	-0.504696	0.863047	-0.020791	-0.821822	-0.472935	0.317712
02848	9.328804	-0.195777	3.165772	-0.000356	-0.000650	0.003624	0.264358	0.177426	0.947964	-0.504698	0.863046	-0.020788	-0.821824	-0.472940	0.317699
02849	9.348114	-0.217824	3.135182	0.002515	0.003086	0.004678	0.264375	0.177443	0.947956	-0.504721	0.863032	-0.020785	-0.821804	-0.472958	0.317723
02850	9.355985	-0.197370	3.144697	-0.000014	-0.002919	0.009108	0.264319	0.177471	0.947966	-0.504741	0.863020	-0.020833	-0.821811	-0.472970	0.317689
02851	9.370746	-0.227928	3.136388	-0.003000	0.001773	-0.000464	0.264350	0.177438	0.947963	-0.504705	0.863041	-0.020800	-0.821822	-0.472943	0.317699
02852	9.333320	-0.188972	3.143477	0.000893	0.000164	0.003991	0.264345	0.177437	0.947965	-0.504718	0.863034	-0.020796	-0.821816	-0.472958	0.317695
02853	9.352636	-0.211126	3.112853	-0.002285	0.001612	0.005339	0.264348	0.177454	0.947961	-0.504702	0.863043	-0.020817	-0.821825	-0.472935	0.317705
02854	9.378523	-0.207899	3.146161	0.001071	0.000489	0.002179	0.264355	0.177439	0.947962	-0.504711	0.863038	-0.020795	-0.821817	-0.472950	0.317704
02855	9.329932	-0.202717	3.111750	-0.001231	0.000643	0.003575	0.264356	0.177436	0.947962	-0.504701	0.863044	-0.020797	-0.821823	-0.472939	0.317703
02856	9.370578	-0.229791	3.136754	-0.003712	0.000473	0.006783	0.264339	0.177461	0.947962	-0.504683	0.863053	-0.020834	-0.821839	-0.472913	0.317700
02857	9.378427	-0.209019	3.146374	0.002676	0.001953	-0.001077	0.264375	0.177423	0.947959	-0.504693	0.863049	-0.020778	-0.821822	-0.472936	0.317713
02858	9.355737	-0.200074	3.145264	-0.003355	0.001123	0.003159	0.264382	0.177419	0.947958	-0.504669	0.863063	-0.020780	-0.821834	-0.472912	0.317716
02859	9.325177	-0.212449	3.134561	0.000893	0.000164	0.003991	0.264376	0.177415	0.947961	-0.504681	0.863056	-0.020775	-0.821829	-0.472925	0.317709
02860	9.360300	-0.192484	3.122892	-0.001409	0.000318	0.005387	0.264365	0.177427	0.947961	-0.504678	0.863057	-0.020792	-0.821834	-0.472919	0.317706
02861	9.375025	-0.223041	3.114660	0.000893	0.000164	0.003991	0.264363	0.177424	0.947963	-0.504687	0.863052	-0.020788	-0.821829	-0.472929	0.317702
02862	9.340949	-0.171580	3.153558	-0.001605	-0.001464	0.003256	0.264348	0.177409	0.947970	-0.504678	0.863058	-0.020785	-0.821840	-0.472925	0.317682
02863	9.352369	-0.214621	3.113418	-0.000679	0.003077	0.002082	0.264378	0.177404	0.947962	-0.504669	0.863063	-0.020768	-0.821835	-0.472916	0.317705
02864	9.360249	-0.193854	3.122960	-0.002854	-0.002278	0.002888	0.264359	0.177381	0.947972	-0.504648	0.863075	-0.020766	-0.821854	-0.472903	0.317677
02865	9.347784	-0.223761	3.135747	-0.000534	-0.000975	0.005435	0.264340	0.177384	0.947976	-0.504651	0.863073	-0.020777	-0.821859	-0.472905	0.317662
02866	9.351037	-0.211577	3.167789	-0.000857	0.002751	0.003894	0.264357	0.177395	0.947970	-0.504649	0.863074	-0.020778	-0.821854	-0.472899	0.317682
02867	9.360191	-0.195050	3.123058	-0.001053	0.000969	0.001763	0.264368	0.177377	0.947970	-0.504637	0.863082	-0.020761	-0.821858	-0.472892	0.317682
02868	9.332902	-0.194682	3.144368	0.000018	0.001457	0.003942	0.264374	0.177381	0.947967	-0.504643	0.863079	-0.020760	-0.821853	-0.472896	0.317690
02869	9.358788	-0.191473	3.177679	-0.001231	0.000644	0.003575	0.264374	0.177376	0.947968	-0.504635	0.863083	-0.020758	-0.821857	-0.472891	0.317687
02870	9.356777	-0.208715	3.091404	0.000018	0.001458	0.003942	0.264380	0.177381	0.947966	-0.504641	0.863080	-0.020757	-0.821852	-0.472895	0.317694
02871	9.355399	-0.204955	3.145957	-0.002285	0.001613	0.005337	0.264380	0.177397	0.947963	-0.504627	0.863087	-0.020777	-0.821861	-0.472875	0.317702
02872	9.329409	-0.209172	3.112892	0.000910	0.001621	0.007932	0.264367	0.177437	0.947959	-0.504651	0.863073	-0.020811	-0.821850	-0.472887	0.317711
02873	9.359980	-0.197714	3.123525	-0.003229	-0.004385	0.002568	0.264334	0.177399	0.947975	-0.504624	0.863088	-0.020805	-0.821877	-0.472872	0.317663
02874	9.378033	-0.215531	3.147108	0.003391	0.001791	0.004725	0.264338	0.177412	0.947972	-0.504660	0.863068	-0.020800	-0.821854	-0.472905	0.317675
02875	9.364537	-0.189933	3.101204	-0.002803	0.003557	0.001666	0.264375	0.177406	0.947963	-0.504632	0.863084	-0.020787	-0.821860	-0.472876	0.317702
02876	9.347351	-0.228099	3.136727	-0.000357	-0.000650	0.003623	0.264365	0.177398	0.947967	-0.504633	0.863084	-0.020783	-0.821862	-0.472881	0.317690
02877	9.390415	-0.186937	3.134527	-0.002302	0.000156	0.001395	0.264375	0.177373	0.947969	-0.504610	0.863098	-0.020764	-0.821873	-0.472865	0.317686
02878	9.342756	-0.237153	3.159070	-0.001784	-0.001789	0.005066	0.264349	0.177371	0.947976	-0.504604	0.863101	-0.020779	-0.821885	-0.472859	0.317662
02879	9.355259	-0.208052	3.146168	0.001445	0.002596	0.002498	0.264372	0.177367	0.947971	-0.504615	0.863095	-0.020759	-0.821871	-0.472872	0.317680
02880	9.355178	-0.208446	3.146385	-0.004408	0.002094	0.004921	0.264378	0.177383	0.947966	-0.504587	0.863111	-0.020781	-0.821886	-0.472837	0.317693
02881	9.377737	-0.217827	3.147832	0.000375	0.002108	0.000319	0.264408	0.177358	0.947962	-0.504582	0.863115	-0.020744	-0.821879	-0.472839	0.317706
02882	9.344981	-0.170654	3.132426	0.002481	-0.001293	0.009840	0.264362	0.177400	0.947967	-0.504623	0.863089	-0.020791	-0.821869	-0.472870	0.317688
02883	9.377702	-0.218882	3.147864	-0.003355	0.001125	0.003158	0.264371	0.177395	0.947966	-0.504595	0.863106	-0.020792	-0.821883	-0.472842	0.317693
02884	9.340328	-0.180058	3.154925	0.000892	0.000163	0.003990	0.264366	0.177394	0.947967	-0.504608	0.863098	-0.020789	-0.821877	-0.472856	0.317688
02885	9.355036	-0.210541	3.146665	-0.002481	-0.000169	0.003206	0.264362	0.177381	0.947971	-0.504591	0.863108	-0.020786	-0.821888	-0.472843	0.317678
02886	9.355029	-0.210903	3.146663	0.000892	0.000163	0.003990	0.264357	0.177380	0.947972	-0.504604	0.863101	-0.020782	-0.821882	-0.472857	0.317673
02887	9.359610	-0.202950	3.124296	-0.002284	0.001614	0.005336	0.264358	0.177396	0.947969	-0.504591	0.863108	-0.020801	-0.821889	-0.472838	0.317682
02888	9.346986	-0.232971	3.137456	0.000214	0.003240	0.006071	0.264368	0.177427	0.947961	-0.504604	0.863100	-0.020819	-0.821878	-0.472841	0.317706
02889	9.359506	-0.203963	3.124543	-0.000732	-0.002758	0.003303	0.264346	0.177407	0.947971	-0.504594	0.863106	-0.020817	-0.821892	-0.472837	0.317677
02890	9.367440	-0.183009	3.134002	-0.000696	0.001619	-0.001859	0.264382	0.177362	0.947969	-0.504578	0.863116	-0.020763	-0.821890	-0.472835	0.317686
02891	9.336865	-0.195068	3.123316	0.000892	0.000163	0.003990	0.264376	0.177360	0.947971	-0.504588	0.863111	-0.020760	-0.821886	-0.472846	0.317679
02892	9.367411	-0.183454	3.134063	-0.000357	-0.000650	0.003622	0.264366	0.177351	0.947975	-0.504590	0.863110	-0.020757	-0.821888	-0.472851	0.317666
02893	9.346923	-0.234324	3.137542	-0.002106	0.001939	0.003525	0.264378	0.177353	0.947972	-0.504574	0.863119	-0.020759	-0.821894	-0.472833	0.317677
02894	9.382027	-0.214249	3.126035	0.000197	0.001783	0.002130	0.264395	0.177343	0.947969	-0.504576	0.863118	-0.020740	-0.821887	-0.472839	0.317688
02895	9.367298	-0.184394	3.134347	-0.000357	-0.000650	0.003622	0.264388	0.177334	0.947972	-0.504574	0.863120	-0.020736	-0.821891	-0.472840	0.317676
02896	9.351466	-0.226742	3.115271	-0.000179	-0.000325	0.001811	0.264390	0.177311	0.947976	-0.504572	0.863121	-0.020715	-0.821891	-0.472846	0.317667
02897	9.364029	-0.197814	3.102245	-0.000893	-0.001625	0.009054	0.264345	0.177344	0.947982	-0.504580	0.863115	-0.020765	-0.821900	-0.472844	0.317645
02898	9.362675	-0.194227	3.156708	-0.000856	0.002752	0.003892	0.264362	0.177354	0.947976	-0.504579	0.863116	-0.020766	-0.821896	-0.472839	0.317664
02899	9.336686	-0.198064	3.123661	-0.001053	0.000970	0.001762	0.264375	0.177338	0.947975	-0.504564	0.863125	-0.020750	-0.821901	-0.472829	0.317667
02900	9.367221	-0.186487	3.134451	-0.002660	-0.000493	0.005016	0.264360	0.177342	0.947979	-0.504551	0.863132	-0.020767	-0.821914	-0.472813	0.317655
02901	9.377291	-0.225477	3.148622	0.000892	0.000163	0.003989	0.264354	0.177339	0.947981	-0.504561	0.863126	-0.020764	-0.821909	-0.472825	0.317650
02902	9.389802	-0.196398	3.135787	-0.002106	0.001939	0.003524	0.264366	0.177343	0.947977	-0.504548	0.863134	-0.020765	-0.821913	-0.472810	0.317661
02903	9.354581	-0.217229	3.147565	-0.001410	0.000320	0.005383	0.264357	0.177352	0.947978	-0.504542	0.863137	-0.020781	-0.821920	-0.472801	0.317658
02904	9.349072	-0.170831	3.111095	0.000215	0.003240	0.006070	0.264367	0.177384	0.947969	-0.504555	0.863129	-0.020799	-0.821909	-0.472804	0.317682
02905	9.349867	-0.226640	3.170200	-0.000733	-0.002757	0.003302	0.264343	0.177361	0.947980	-0.504550	0.863132	-0.020793	-0.821920	-0.472807	0.317650
02906	9.339795	-0.188459	3.156011	-0.000856	0.002752	0.003892	0.264360	0.177371	0.947973	-0.504548	0.863133	-0.020794	-0.821915	-0.472801	0.317670
02907	9.336459	-0.201284	3.124135	-0.001250	-0.000813	-0.000368	0.264368	0.177326	0.947980	-0.504528	0.863146	-0.020757	-0.821925	-0.472795	0.317654
02908	9.389632	-0.198627	3.136154	-0.001232	0.000645	0.003573	0.264369	0.177323	0.947980	-0.504522	0.863149	-0.020756	-0.821928	-0.472790	0.317653
02909	9.354423	-0.219352	3.147886	-0.001232	0.000645	0.003572	0.264369	0.177319	0.947980	-0.504514	0.863154	-0.020755	-0.821933	-0.472782	0.317651
02910	9.370239	-0.177663	3.167039	-0.002106	0.001940	0.003524	0.264381	0.177322	0.947977	-0.504501	0.863162	-0.020757	-0.821938	-0.472767	0.317663
02911	9.331713	-0.211008	3.146843	0.000892	0.000163	0.003989	0.264376	0.177319	0.947979	-0.504511	0.863156	-0.020753	-0.821933	-0.472779	0.317657
02912	9.371510	-0.182507	3.112757	0.001071	0.000488	0.002178	0.264382	0.177303	0.947980	-0.504521	0.863151	-0.020732	-0.821925	-0.472794	0.317655
02913	9.357582	-0.208007	3.180190	0.000018	0.001458	0.003940	0.264390	0.177306	0.947977	-0.504523	0.863150	-0.020730	-0.821921	-0.472795	0.317663
02914	9.350927	-0.233642	3.116376	-0.003355	0.001127	0.003156	0.264397	0.177302	0.947976	-0.504499	0.863164	-0.020732	-0.821934	-0.472771	0.317667
02915	9.366806	-0.192023	3.135357	0.000337	-0.002270	0.005480	0.264368	0.177302	0.947984	-0.504505	0.863159	-0.020744	-0.821939	-0.472779	0.317641
02916	9.357522	-0.209204	3.180288	-0.000677	0.003077	0.002081	0.264396	0.177298	0.947977	-0.504500	0.863163	-0.020727	-0.821933	-0.472774	0.317664
02917	9.344104	-0.183574	3.134310	-0.001232	0.000645	0.003572	0.264397	0.177294	0.947977	-0.504492	0.863168	-0.020726	-0.821938	-0.472767	0.317663
02918	9.349481	-0.230991	3.171022	-0.000161	0.001133	0.005750	0.264391	0.177313	0.947975	-0.504501	0.863162	-0.020743	-0.821934	-0.472770	0.317667
02919	9.358720	-0.214702	3.126176	0.000713	-0.000162	0.005799	0.264376	0.177325	0.947977	-0.504513	0.863154	-0.020757	-0.821932	-0.472779	0.317660
02920	9.384632	-0.211618	3.159401	0.000892	0.000163	0.003988	0.264371	0.177323	0.947979	-0.504526	0.863147	-0.020754	-0.821925	-0.472794	0.317655
02921	9.366617	-0.194458	3.135773	0.000018	0.001458	0.003940	0.264378	0.177327	0.947976	-0.504529	0.863146	-0.020752	-0.821922	-0.472795	0.317663
02922	9.366610	-0.194820	3.135772	-0.001608	-0.001462	0.003253	0.264364	0.177311	0.947983	-0.504519	0.863151	-0.020749	-0.821932	-0.472790	0.317643
02923	9.361947	-0.203603	3.158276	-0.000856	0.002753	0.003891	0.264380	0.177320	0.947977	-0.504514	0.863154	-0.020751	-0.821930	-0.472782	0.317661
02924	9.340593	-0.199101	3.102783	-0.003355	0.001128	0.003155	0.264387	0.177316	0.947976	-0.504490	0.863168	-0.020753	-0.821942	-0.472757	0.317665
02925	9.384449	-0.213583	3.159814	-0.000161	0.001133	0.005749	0.264384	0.177333	0.947974	-0.504495	0.863165	-0.020768	-0.821940	-0.472757	0.317670
02926	9.317900	-0.191003	3.101693	-0.001411	0.000320	0.005382	0.264373	0.177345	0.947975	-0.504493	0.863166	-0.020785	-0.821945	-0.472751	0.317667
02927	9.381082	-0.227212	3.127956	-0.001232	0.000645	0.003571	0.264375	0.177340	0.947975	-0.504484	0.863171	-0.020783	-0.821950	-0.472743	0.317666
02928	9.369731	-0.184711	3.168140	0.000694	-0.001620	0.001859	0.264366	0.177312	0.947982	-0.504490	0.863168	-0.020760	-0.821949	-0.472759	0.317645
02929	9.358469	-0.218722	3.126649	-0.002284	0.001616	0.005333	0.264369	0.177327	0.947979	-0.504477	0.863175	-0.020778	-0.821956	-0.472741	0.317654
02930	9.374330	-0.177020	3.145769	0.003194	0.000005	0.002594	0.264369	0.177313	0.947981	-0.504505	0.863159	-0.020753	-0.821939	-0.472775	0.317648
02931	9.345856	-0.248968	3.139593	-0.006214	-0.001146	0.006039	0.264347	0.177322	0.947986	-0.504462	0.863184	-0.020790	-0.821973	-0.472727	0.317633
02932	9.371030	-0.190469	3.113726	0.001250	0.000812	0.000368	0.264366	0.177293	0.947986	-0.504468	0.863181	-0.020751	-0.821963	-0.472743	0.317634
02933	9.335798	-0.211074	3.125464	-0.003534	0.000804	0.004965	0.264365	0.177301	0.947985	-0.504444	0.863195	-0.020769	-0.821978	-0.472715	0.317637
02934	9.361672	-0.207960	3.158807	0.000197	0.001782	0.002129	0.264382	0.177292	0.947982	-0.504446	0.863194	-0.020750	-0.821971	-0.472720	0.317647
02935	9.348285	-0.182300	3.112811	0.000018	0.001458	0.003939	0.264388	0.177295	0.947980	-0.504448	0.863193	-0.020749	-0.821968	-0.472721	0.317654
02936	9.353609	-0.229635	3.149572	0.000018	0.001458	0.003939	0.264394	0.177299	0.947977	-0.504454	0.863190	-0.020748	-0.821963	-0.472725	0.317661
02937	9.383451	-0.162702	3.101223	-0.000735	-0.002757	0.003300	0.264368	0.177277	0.947989	-0.504448	0.863193	-0.020743	-0.821974	-0.472727	0.317628
02938	9.353639	-0.230352	3.149430	-0.003355	0.001129	0.003155	0.264375	0.177273	0.947987	-0.504424	0.863207	-0.020745	-0.821987	-0.472703	0.317631
02939	9.364909	-0.197264	3.190870	-0.001967	-0.002111	0.006871	0.264337	0.177285	0.947996	-0.504416	0.863211	-0.020780	-0.822004	-0.472692	0.317604
02940	9.366215	-0.201929	3.136500	-0.000676	0.003078	0.002080	0.264365	0.177281	0.947989	-0.504411	0.863214	-0.020763	-0.821998	-0.472687	0.317627
02941	9.343552	-0.193172	3.135378	0.000712	-0.000162	0.005797	0.264348	0.177294	0.947991	-0.504424	0.863206	-0.020778	-0.821995	-0.472697	0.317618
02942	9.366168	-0.202820	3.136583	-0.000538	-0.000974	0.005429	0.264327	0.177299	0.947996	-0.504429	0.863203	-0.020793	-0.821999	-0.472701	0.317602
02943	9.335564	-0.215174	3.125882	-0.000855	0.002753	0.003890	0.264340	0.177308	0.947991	-0.504425	0.863205	-0.020795	-0.821998	-0.472693	0.317618
02944	9.374062	-0.182628	3.146248	-0.001609	-0.001461	0.003251	0.264325	0.177292	0.947998	-0.504415	0.863211	-0.020792	-0.822008	-0.472689	0.317597
02945	9.361451	-0.212424	3.159165	0.000018	0.001458	0.003938	0.264332	0.177295	0.947995	-0.504419	0.863209	-0.020789	-0.822004	-0.472691	0.317605
02946	9.343440	-0.195267	3.135581	-0.003355	0.001129	0.003154	0.264340	0.177291	0.947994	-0.504395	0.863223	-0.020791	-0.822016	-0.472667	0.317609
02947	9.388581	-0.213749	3.138306	-0.000496	0.003403	0.000271	0.264381	0.177270	0.947986	-0.504385	0.863230	-0.020755	-0.822009	-0.472663	0.317634
02948	9.362616	-0.217512	3.105190	-0.000538	-0.000974	0.005429	0.264359	0.177276	0.947991	-0.504390	0.863226	-0.020770	-0.822013	-0.472666	0.317618
02949	9.365946	-0.205339	3.137083	-0.000359	-0.000650	0.003619	0.264350	0.177266	0.947996	-0.504389	0.863227	-0.020766	-0.822017	-0.472669	0.317605
02950	9.351278	-0.175457	3.145404	0.000198	0.001782	0.002129	0.264367	0.177257	0.947993	-0.504391	0.863226	-0.020747	-0.822009	-0.472674	0.317615
02951	9.332031	-0.230470	3.094379	-0.001789	-0.001786	0.005060	0.264341	0.177255	0.948000	-0.504381	0.863231	-0.020763	-0.822024	-0.472665	0.317591
02952	9.391845	-0.202949	3.170306	-0.001232	0.000646	0.003570	0.264342	0.177252	0.948001	-0.504376	0.863235	-0.020762	-0.822027	-0.472660	0.317591
02953	9.347926	-0.189248	3.113473	0.000018	0.001458	0.003938	0.264350	0.177255	0.947998	-0.504379	0.863233	-0.020760	-0.822023	-0.472662	0.317599
02954	9.361196	-0.215664	3.159700	-0.001411	0.000321	0.005379	0.264339	0.177267	0.947999	-0.504377	0.863234	-0.020777	-0.822028	-0.472656	0.317595
02955	9.351186	-0.177644	3.145553	-0.001411	0.000321	0.005379	0.264327	0.177276	0.948000	-0.504372	0.863236	-0.020793	-0.822034	-0.472649	0.317590
02956	9.385060	-0.230004	3.106693	0.001269	0.002269	0.004306	0.264338	0.177288	0.947995	-0.504389	0.863226	-0.020791	-0.822020	-0.472662	0.317606
02957	9.359052	-0.157448	3.155339	-0.001232	0.000646	0.003570	0.264339	0.177285	0.947995	-0.504379	0.863232	-0.020792	-0.822026	-0.472653	0.317604
02958	9.335133	-0.220878	3.126773	-0.002482	-0.000165	0.003202	0.264335	0.177275	0.947998	-0.504363	0.863242	-0.020792	-0.822037	-0.472639	0.317596
02959	9.373687	-0.188333	3.147027	0.001764	-0.001134	0.004035	0.264321	0.177266	0.948004	-0.504381	0.863231	-0.020783	-0.822030	-0.472662	0.317580
02960	9.365731	-0.209701	3.137437	-0.002482	-0.000165	0.003202	0.264318	0.177256	0.948007	-0.504364	0.863241	-0.020783	-0.822042	-0.472647	0.317571
02961	9.338479	-0.209245	3.158595	-0.000180	-0.000325	0.001809	0.264323	0.177232	0.948010	-0.504359	0.863244	-0.020760	-0.822043	-0.472650	0.317564
02962	9.373660	-0.189243	3.147053	-0.000854	0.002753	0.003889	0.264339	0.177242	0.948003	-0.504358	0.863245	-0.020761	-0.822039	-0.472645	0.317583
02963	9.357689	-0.231649	3.128053	-0.001610	-0.001461	0.003250	0.264327	0.177225	0.948010	-0.504345	0.863252	-0.020757	-0.822050	-0.472638	0.317564
02964	9.354348	-0.168316	3.177807	-0.000161	0.001133	0.005747	0.264321	0.177244	0.948008	-0.504354	0.863247	-0.020774	-0.822047	-0.472641	0.317568
02965	9.343051	-0.202385	3.136289	-0.001610	-0.001461	0.003250	0.264306	0.177228	0.948015	-0.504339	0.863256	-0.020773	-0.822061	-0.472631	0.317547
02966	9.347705	-0.194321	3.113825	0.002142	0.000973	0.004354	0.264306	0.177234	0.948014	-0.504364	0.863242	-0.020769	-0.822046	-0.472654	0.317550
02967	9.383557	-0.229808	3.161323	-0.003355	0.001131	0.003153	0.264313	0.177228	0.948013	-0.504336	0.863257	-0.020771	-0.822060	-0.472627	0.317553
02968	9.334967	-0.224669	3.126999	0.002160	0.002431	0.008291	0.264305	0.177275	0.948007	-0.504371	0.863236	-0.020804	-0.822042	-0.472649	0.317570
02969	9.378152	-0.183651	3.124929	-0.002321	-0.001298	-0.002545	0.264323	0.177209	0.948014	-0.504338	0.863257	-0.020747	-0.822056	-0.472635	0.317552
02970	9.360839	-0.221599	3.160347	-0.000854	0.002753	0.003889	0.264340	0.177219	0.948007	-0.504336	0.863258	-0.020748	-0.822052	-0.472629	0.317572
02971	9.347534	-0.196074	3.114227	0.000333	-0.002270	0.005475	0.264310	0.177219	0.948016	-0.504342	0.863254	-0.020762	-0.822058	-0.472636	0.317546
02972	9.386108	-0.163636	3.134470	-0.001232	0.000646	0.003569	0.264311	0.177217	0.948016	-0.504336	0.863258	-0.020761	-0.822061	-0.472631	0.317545
02973	9.360816	-0.222842	3.160330	0.000891	0.000162	0.003986	0.264306	0.177215	0.948018	-0.504345	0.863253	-0.020759	-0.822058	-0.472641	0.317540
02974	9.365438	-0.214789	3.137965	0.000019	0.001458	0.003937	0.264311	0.177219	0.948015	-0.504351	0.863249	-0.020758	-0.822052	-0.472646	0.317547
02975	9.342779	-0.206016	3.136862	-0.002104	0.001942	0.003520	0.264326	0.177221	0.948011	-0.504334	0.863259	-0.020758	-0.822057	-0.472628	0.317561
02976	9.365346	-0.215456	3.138195	-0.000180	-0.000325	0.001809	0.264328	0.177198	0.948014	-0.504333	0.863260	-0.020737	-0.822058	-0.472633	0.317551
02977	9.360039	-0.168713	3.101595	0.004265	0.000488	0.004770	0.264325	0.177204	0.948014	-0.504372	0.863238	-0.020729	-0.822035	-0.472673	0.317552
02978	9.361964	-0.228686	3.106352	-0.007601	0.002101	0.002319	0.264344	0.177197	0.948010	-0.504311	0.863273	-0.020736	-0.822066	-0.472610	0.317564
02979	9.368543	-0.203880	3.170475	0.003392	0.001784	0.004721	0.264348	0.177208	0.948007	-0.504344	0.863254	-0.020731	-0.822044	-0.472642	0.317573
02980	9.337932	-0.216175	3.159744	-0.002663	-0.000489	0.005010	0.264332	0.177212	0.948011	-0.504331	0.863261	-0.020748	-0.822058	-0.472627	0.317561
02981	9.334636	-0.229214	3.127655	0.000512	-0.001945	0.003666	0.264312	0.177197	0.948019	-0.504336	0.863258	-0.020743	-0.822061	-0.472638	0.317536
02982	9.373212	-0.196806	3.147923	-0.003535	0.000807	0.004961	0.264307	0.177207	0.948019	-0.504316	0.863270	-0.020762	-0.822075	-0.472613	0.317537
02983	9.334632	-0.230126	3.127602	-0.000360	-0.000649	0.003617	0.264299	0.177197	0.948023	-0.504314	0.863271	-0.020759	-0.822079	-0.472614	0.317524
02984	9.382515	-0.180883	3.103047	0.001962	0.000648	0.006162	0.264287	0.177217	0.948022	-0.504341	0.863255	-0.020772	-0.822066	-0.472637	0.317525
02985	9.365185	-0.219158	3.138418	-0.002483	-0.000164	0.003201	0.264283	0.177207	0.948025	-0.504320	0.863267	-0.020773	-0.822080	-0.472618	0.317516
02986	9.360474	-0.227952	3.160976	-0.000853	0.002754	0.003888	0.264300	0.177217	0.948019	-0.504318	0.863268	-0.020774	-0.822076	-0.472613	0.317535
02987	9.359770	-0.172839	3.102178	0.001449	0.002593	0.002496	0.264322	0.177213	0.948013	-0.504327	0.863263	-0.020756	-0.822063	-0.472623	0.317553
02988	9.360338	-0.228524	3.161339	-0.002483	-0.000164	0.003200	0.264318	0.177204	0.948016	-0.504311	0.863273	-0.020756	-0.822075	-0.472608	0.317544
02989	9.385638	-0.169965	3.135539	0.001071	0.000486	0.002176	0.264327	0.177187	0.948017	-0.504318	0.863269	-0.020733	-0.822067	-0.472621	0.317544
02990	9.339073	-0.224094	3.105652	-0.003734	-0.000975	0.002832	0.264319	0.177170	0.948022	-0.504290	0.863286	-0.020733	-0.822087	-0.472598	0.317528
02991	9.390898	-0.217612	3.172140	0.000019	0.001458	0.003936	0.264326	0.177174	0.948020	-0.504291	0.863285	-0.020732	-0.822084	-0.472598	0.317535
02992	9.342362	-0.212143	3.137698	-0.000180	-0.000325	0.001808	0.264328	0.177151	0.948023	-0.504289	0.863286	-0.020711	-0.822085	-0.472604	0.317526
02993	9.369548	-0.213021	3.116721	-0.001365	0.004699	0.000222	0.264379	0.177138	0.948011	-0.504268	0.863299	-0.020680	-0.822081	-0.472584	0.317564
02994	9.372839	-0.200884	3.148778	-0.000029	-0.002919	0.009091	0.264323	0.177166	0.948022	-0.504287	0.863287	-0.020728	-0.822088	-0.472596	0.317529
02995	9.346939	-0.204833	3.115450	-0.001052	0.000972	0.001760	0.264339	0.177148	0.948021	-0.504275	0.863295	-0.020708	-0.822090	-0.472589	0.317534
02996	9.364832	-0.222699	3.139224	-0.001232	0.000647	0.003568	0.264340	0.177145	0.948021	-0.504270	0.863298	-0.020707	-0.822093	-0.472584	0.317533
02997	9.336958	-0.166801	3.101411	0.001071	0.000486	0.002176	0.264349	0.177129	0.948022	-0.504276	0.863295	-0.020685	-0.822086	-0.472596	0.317533
02998	9.360132	-0.231742	3.161715	-0.002663	-0.000488	0.005008	0.264334	0.177133	0.948025	-0.504262	0.863302	-0.020702	-0.822099	-0.472581	0.317521
02999	9.377454	-0.194381	3.126375	-0.001232	0.000647	0.003568	0.264335	0.177131	0.948025	-0.504251	0.863309	-0.020704	-0.822106	-0.472570	0.317521
03000	9.354864	-0.185395	3.125104	-0.001251	-0.000811	-0.000368	0.264344	0.177087	0.948031	-0.504234	0.863319	-0.020666	-0.822113	-0.472567	0.317506
03001	9.354784	-0.185599	3.125331	0.000777	0.005672	0.004575	0.264382	0.177116	0.948015	-0.504243	0.863315	-0.020669	-0.822096	-0.472565	0.317554
03002	9.369300	-0.216157	3.117252	-0.001611	-0.001460	0.003248	0.264367	0.177101	0.948022	-0.504233	0.863320	-0.020666	-0.822106	-0.472561	0.317534
03003	9.350091	-0.194817	3.147790	0.000331	-0.002270	0.005473	0.264336	0.177100	0.948031	-0.504241	0.863315	-0.020679	-0.822112	-0.472569	0.317507
03004	9.372676	-0.204443	3.149034	-0.002104	0.001944	0.003519	0.264348	0.177103	0.948027	-0.504228	0.863323	-0.020681	-0.822116	-0.472555	0.317518
03005	9.364626	-0.225829	3.139615	-0.001232	0.000647	0.003568	0.264351	0.177100	0.948027	-0.504218	0.863328	-0.020680	-0.822121	-0.472546	0.317518
03006	9.350016	-0.196108	3.147934	-0.001412	0.000323	0.005376	0.264340	0.177111	0.948027	-0.504216	0.863329	-0.020697	-0.822126	-0.472540	0.317515
03007	9.372575	-0.205662	3.149253	-0.001052	0.000972	0.001759	0.264355	0.177094	0.948026	-0.504202	0.863338	-0.020679	-0.822129	-0.472530	0.317519
03008	9.341900	-0.217944	3.138674	0.001289	0.003726	0.008239	0.264358	0.177147	0.948016	-0.504229	0.863321	-0.020714	-0.822112	-0.472541	0.317549
03009	9.369121	-0.219174	3.117579	-0.002682	-0.001945	0.001072	0.264352	0.177109	0.948025	-0.504202	0.863338	-0.020694	-0.822130	-0.472525	0.317524
03010	9.349860	-0.197763	3.148292	0.001090	0.001944	0.006111	0.264351	0.177134	0.948020	-0.504222	0.863326	-0.020709	-0.822118	-0.472538	0.317536
03011	9.346434	-0.210741	3.116571	-0.002795	0.003565	0.001662	0.264387	0.177127	0.948011	-0.504197	0.863341	-0.020693	-0.822122	-0.472514	0.317563
03012	9.398224	-0.204218	3.183163	0.001762	-0.001135	0.004033	0.264371	0.177120	0.948017	-0.504218	0.863329	-0.020687	-0.822115	-0.472538	0.317546
03013	9.341731	-0.219870	3.139045	-0.002664	-0.000487	0.005007	0.264357	0.177122	0.948021	-0.504202	0.863337	-0.020703	-0.822129	-0.472521	0.317534
03014	9.376974	-0.200109	3.127451	0.000019	0.001458	0.003935	0.264363	0.177126	0.948018	-0.504208	0.863334	-0.020702	-0.822123	-0.472526	0.317542
03015	9.327127	-0.190591	3.147348	-0.001792	-0.001784	0.005055	0.264337	0.177124	0.948026	-0.504198	0.863340	-0.020717	-0.822138	-0.472516	0.317518
03016	9.364269	-0.230500	3.140339	0.001090	0.001943	0.006111	0.264336	0.177149	0.948021	-0.504218	0.863327	-0.020733	-0.822126	-0.472529	0.317530
03017	9.357712	-0.179751	3.158118	-0.000741	-0.002756	0.003296	0.264311	0.177127	0.948033	-0.504212	0.863331	-0.020728	-0.822138	-0.472531	0.317497
03018	9.359621	-0.239508	3.162649	0.001251	0.000810	0.000368	0.264329	0.177097	0.948033	-0.504218	0.863328	-0.020689	-0.822128	-0.472547	0.317499
03019	9.367023	-0.163214	3.113356	-0.002795	0.003566	0.001662	0.264363	0.177092	0.948025	-0.504190	0.863345	-0.020677	-0.822134	-0.472518	0.317524
03020	9.336914	-0.230732	3.161722	-0.000361	-0.000649	0.003616	0.264353	0.177083	0.948029	-0.504192	0.863344	-0.020674	-0.822136	-0.472523	0.317512
03021	9.341568	-0.222593	3.139337	0.000199	0.001782	0.002127	0.264371	0.177073	0.948026	-0.504191	0.863345	-0.020655	-0.822131	-0.472525	0.317522
03022	9.354223	-0.193456	3.126532	0.000890	0.000161	0.003984	0.264366	0.177071	0.948028	-0.504204	0.863338	-0.020651	-0.822125	-0.472540	0.317517
03023	9.346175	-0.214807	3.117068	0.000019	0.001458	0.003935	0.264371	0.177074	0.948026	-0.504207	0.863336	-0.020650	-0.822121	-0.472542	0.317523
03024	9.362199	-0.173178	3.136147	-0.001612	-0.001459	0.003247	0.264357	0.177059	0.948033	-0.504197	0.863342	-0.020647	-0.822132	-0.472537	0.317503
03025	9.364128	-0.233116	3.140567	-0.000741	-0.002756	0.003296	0.264332	0.177036	0.948044	-0.504192	0.863345	-0.020642	-0.822143	-0.472540	0.317470
03026	9.354193	-0.194623	3.126551	0.000069	0.005835	-0.001218	0.264400	0.177017	0.948028	-0.504184	0.863351	-0.020591	-0.822126	-0.472537	0.317519
03027	9.354096	-0.194738	3.126832	0.000890	0.000161	0.003983	0.264395	0.177014	0.948030	-0.504194	0.863345	-0.020588	-0.822122	-0.472547	0.317513
03028	9.371993	-0.212604	3.150526	-0.000181	-0.000324	0.001808	0.264397	0.176992	0.948034	-0.504192	0.863347	-0.020567	-0.822122	-0.472553	0.317504
03029	9.354100	-0.195172	3.126795	-0.000181	-0.000324	0.001808	0.264397	0.176969	0.948038	-0.504186	0.863351	-0.020549	-0.822126	-0.472554	0.317493
03030	9.372025	-0.213132	3.150394	-0.001793	-0.001783	0.005055	0.264371	0.176968	0.948046	-0.504179	0.863354	-0.020564	-0.822138	-0.472549	0.317469
03031	9.344744	-0.212701	3.171606	0.001451	0.002592	0.002495	0.264394	0.176964	0.948040	-0.504190	0.863348	-0.020544	-0.822124	-0.472561	0.317487
03032	9.366797	-0.166754	3.113849	-0.002864	-0.002269	0.002879	0.264375	0.176941	0.948050	-0.504169	0.863360	-0.020542	-0.822143	-0.472547	0.317459
03033	9.326774	-0.195746	3.148076	0.000779	0.005671	0.004573	0.264414	0.176970	0.948033	-0.504179	0.863355	-0.020544	-0.822125	-0.472546	0.317508
03034	9.350583	-0.209521	3.095240	-0.003355	0.001135	0.003149	0.264422	0.176966	0.948032	-0.504154	0.863369	-0.020546	-0.822137	-0.472522	0.317512
03035	9.371825	-0.215001	3.150862	0.000329	-0.002270	0.005471	0.264392	0.176966	0.948040	-0.504162	0.863365	-0.020558	-0.822142	-0.472530	0.317486
03036	9.357256	-0.185151	3.159158	0.001451	0.002592	0.002495	0.264414	0.176963	0.948034	-0.504175	0.863357	-0.020539	-0.822127	-0.472545	0.317504
03037	9.353877	-0.198104	3.127276	-0.002665	-0.000486	0.005005	0.264400	0.176965	0.948038	-0.504162	0.863365	-0.020553	-0.822140	-0.472531	0.317492
03038	9.349181	-0.206975	3.149716	-0.001232	0.000648	0.003566	0.264401	0.176962	0.948038	-0.504156	0.863368	-0.020552	-0.822143	-0.472526	0.317492
03039	9.345804	-0.220012	3.117819	-0.000162	0.001134	0.005741	0.264400	0.176980	0.948035	-0.504160	0.863365	-0.020567	-0.822141	-0.472523	0.317500
03040	9.369890	-0.157494	3.146392	-0.002864	-0.002268	0.002878	0.264381	0.176958	0.948045	-0.504139	0.863378	-0.020565	-0.822160	-0.472509	0.317472
03041	9.337750	-0.241837	3.108297	-0.001723	0.004052	0.003837	0.264407	0.176971	0.948035	-0.504129	0.863383	-0.020568	-0.822157	-0.472494	0.317501
03042	9.361757	-0.179249	3.137125	0.000890	0.000161	0.003983	0.264402	0.176970	0.948037	-0.504142	0.863376	-0.020564	-0.822151	-0.472508	0.317496
03043	9.345608	-0.221616	3.118293	-0.002594	0.005349	0.003788	0.264441	0.176991	0.948022	-0.504121	0.863388	-0.020571	-0.822151	-0.472478	0.317540
03044	9.366752	-0.227050	3.174189	-0.000362	-0.000649	0.003614	0.264431	0.176983	0.948026	-0.504123	0.863387	-0.020568	-0.822153	-0.472483	0.317528
03045	9.353531	-0.201479	3.128097	-0.002284	0.001621	0.005324	0.264431	0.176999	0.948023	-0.504109	0.863394	-0.020588	-0.822162	-0.472463	0.317535
03046	9.353520	-0.201941	3.128100	-0.001613	-0.001458	0.003246	0.264416	0.176984	0.948030	-0.504100	0.863400	-0.020585	-0.822172	-0.472459	0.317515
03047	9.361564	-0.181304	3.137584	0.000890	0.000161	0.003983	0.264412	0.176981	0.948032	-0.504109	0.863395	-0.020582	-0.822168	-0.472469	0.317510
03048	9.371452	-0.220340	3.151602	-0.000924	-0.003080	0.005102	0.264375	0.176974	0.948043	-0.504110	0.863394	-0.020595	-0.822180	-0.472473	0.317474
03049	9.361614	-0.182268	3.137377	-0.002284	0.001621	0.005324	0.264374	0.176990	0.948041	-0.504097	0.863401	-0.020614	-0.822188	-0.472455	0.317480
03050	9.345469	-0.224718	3.118486	-0.000852	0.002755	0.003885	0.264390	0.177000	0.948034	-0.504096	0.863402	-0.020615	-0.822183	-0.472450	0.317500
03051	9.366099	-0.174650	3.115515	-0.000290	0.005186	0.002397	0.264434	0.177007	0.948021	-0.504092	0.863404	-0.020600	-0.822171	-0.472442	0.317542
03052	9.361340	-0.183455	3.138127	-0.003917	-0.001295	0.004636	0.264414	0.177005	0.948027	-0.504068	0.863418	-0.020618	-0.822193	-0.472418	0.317522
03053	9.340578	-0.234298	3.141431	-0.001233	0.000648	0.003565	0.264418	0.177001	0.948026	-0.504058	0.863424	-0.020616	-0.822197	-0.472409	0.317524
03054	9.361315	-0.184293	3.138151	-0.001233	0.000648	0.003565	0.264419	0.176998	0.948026	-0.504052	0.863427	-0.020615	-0.822200	-0.472404	0.317523
03055	9.353292	-0.205625	3.128541	0.000508	-0.001946	0.003663	0.264399	0.176984	0.948035	-0.504057	0.863425	-0.020611	-0.822204	-0.472414	0.317499
03056	9.353258	-0.205981	3.128618	0.000400	0.003564	0.004253	0.264421	0.177001	0.948025	-0.504066	0.863419	-0.020611	-0.822191	-0.472418	0.317526
03057	9.361236	-0.185380	3.138324	-0.002484	-0.000161	0.003197	0.264420	0.176991	0.948028	-0.504043	0.863433	-0.020612	-0.822206	-0.472396	0.317520
03058	9.372411	-0.228618	3.098062	-0.001414	0.000324	0.005372	0.264409	0.177002	0.948028	-0.504040	0.863434	-0.020629	-0.822211	-0.472390	0.317516
03059	9.361220	-0.186362	3.138314	0.002831	-0.000652	0.006206	0.264386	0.177016	0.948032	-0.504071	0.863415	-0.020641	-0.822200	-0.472419	0.317504
03060	9.361180	-0.186732	3.138411	-0.004044	0.002759	0.001292	0.264416	0.177003	0.948026	-0.504037	0.863436	-0.020628	-0.822211	-0.472386	0.317523
03061	9.348354	-0.216341	3.151543	0.001452	0.002591	0.002495	0.264438	0.176999	0.948021	-0.504047	0.863430	-0.020609	-0.822198	-0.472397	0.317540
03062	9.370431	-0.170409	3.093944	-0.001233	0.000649	0.003565	0.264439	0.176997	0.948021	-0.504041	0.863434	-0.020608	-0.822201	-0.472392	0.317539
03063	9.362772	-0.247212	3.143529	-0.002103	0.001946	0.003516	0.264454	0.176997	0.948017	-0.504027	0.863442	-0.020606	-0.822205	-0.472377	0.317552
03064	9.338354	-0.178780	3.137840	-0.002103	0.001946	0.003516	0.264466	0.177000	0.948013	-0.504015	0.863449	-0.020607	-0.822209	-0.472363	0.317563
03065	9.344768	-0.230449	3.120168	-0.002284	0.001622	0.005322	0.264466	0.177014	0.948010	-0.504004	0.863455	-0.020624	-0.822215	-0.472347	0.317570
03066	9.360890	-0.188829	3.139149	0.002430	-0.004217	0.001953	0.264435	0.176975	0.948026	-0.504025	0.863444	-0.020596	-0.822212	-0.472382	0.317524
03067	9.383463	-0.198235	3.140385	-0.002792	0.003568	0.001660	0.264472	0.176969	0.948017	-0.503997	0.863460	-0.020582	-0.822218	-0.472354	0.317553
03068	9.340044	-0.239753	3.142605	0.000708	-0.000164	0.005788	0.264455	0.176981	0.948020	-0.504013	0.863450	-0.020596	-0.822213	-0.472368	0.317545
03069	9.365523	-0.181349	3.116863	-0.004425	0.000653	0.000972	0.264473	0.176955	0.948019	-0.503970	0.863476	-0.020580	-0.822234	-0.472330	0.317547
03070	9.356083	-0.198470	3.161822	0.000019	0.001458	0.003933	0.264479	0.176960	0.948017	-0.503975	0.863473	-0.020579	-0.822228	-0.472334	0.317554
03071	9.352704	-0.211392	3.129914	0.000889	0.000160	0.003981	0.264476	0.176958	0.948018	-0.503984	0.863468	-0.020575	-0.822225	-0.472344	0.317550
03072	9.356050	-0.199173	3.161876	-0.000363	-0.000649	0.003613	0.264466	0.176949	0.948023	-0.503985	0.863467	-0.020572	-0.822227	-0.472349	0.317537
03073	9.360692	-0.191144	3.139601	-0.001721	0.004053	0.003835	0.264495	0.176964	0.948012	-0.503972	0.863475	-0.020576	-0.822226	-0.472329	0.317569
03074	9.365347	-0.183116	3.117288	-0.001615	-0.001458	0.003245	0.264480	0.176949	0.948019	-0.503963	0.863480	-0.020573	-0.822236	-0.472325	0.317549
03075	9.375166	-0.222191	3.131377	-0.001414	0.000325	0.005370	0.264469	0.176959	0.948020	-0.503958	0.863483	-0.020590	-0.822242	-0.472317	0.317545
03076	9.365321	-0.183836	3.117324	0.002504	0.001618	0.000737	0.264493	0.176937	0.948017	-0.503976	0.863473	-0.020550	-0.822224	-0.472342	0.317554
03077	9.355853	-0.200850	3.162354	-0.002103	0.001947	0.003515	0.264507	0.176939	0.948013	-0.503959	0.863483	-0.020551	-0.822229	-0.472324	0.317567
03078	9.352457	-0.213798	3.130487	-0.001233	0.000649	0.003564	0.264508	0.176936	0.948013	-0.503954	0.863486	-0.020550	-0.822232	-0.472319	0.317566
