// General information: 
//  MT Manager version: 2019.2.0 
//  XDA version: 2019.2.0 build 3853 rev 94535 built on 2019-09-09
// Device information: 
//  DeviceId: 00B44113
//  ProductCode: MTW2-3A7G6
//  Firmware Version: 4.3.5
//  Hardware Version: 1.1.0
// Device settings: 
//  Filter Profile: human(46.1)
//  Option Flags: Orientation Smoother Disabled, AHS Disabled, ICC Disabled
// Coordinate system: ENU
PacketCounter	Acc_X	Acc_Y	Acc_Z	Gyr_X	Gyr_Y	Gyr_Z	Mat[1][1]	Mat[2][1]	Mat[3][1]	Mat[1][2]	Mat[2][2]	Mat[3][2]	Mat[1][3]	Mat[2][3]	Mat[3][3]
02267	9.658587	-0.020213	-1.738125	0.007319	0.001365	-0.004912	-0.145269	-0.103403	0.983974	-0.585766	0.810479	-0.001309	-0.797355	-0.576569	-0.178308
02268	9.667341	0.000346	-1.727431	0.009128	0.004195	-0.003660	-0.145250	-0.103395	0.983978	-0.585788	0.810464	-0.001309	-0.797343	-0.576592	-0.178287
02269	9.636777	-0.015448	-1.727686	0.008033	0.002842	-0.002282	-0.145250	-0.103384	0.983979	-0.585798	0.810456	-0.001320	-0.797335	-0.576605	-0.178281
02270	9.661149	0.013516	-1.746563	0.007776	0.003367	-0.004086	-0.145235	-0.103384	0.983981	-0.585809	0.810448	-0.001313	-0.797330	-0.576616	-0.178269
02271	9.658810	-0.019443	-1.736894	0.005787	0.003188	-0.002307	-0.145232	-0.103371	0.983983	-0.585800	0.810455	-0.001321	-0.797337	-0.576609	-0.178259
02272	9.652519	-0.006466	-1.756577	0.005130	-0.001342	-0.002156	-0.145266	-0.103383	0.983977	-0.585787	0.810464	-0.001328	-0.797340	-0.576594	-0.178293
02273	9.630621	-0.002022	-1.746623	0.007138	0.004016	-0.001882	-0.145260	-0.103362	0.983980	-0.585791	0.810461	-0.001342	-0.797338	-0.576601	-0.178276
02274	9.665222	-0.031977	-1.716532	0.003540	0.003534	-0.002332	-0.145254	-0.103348	0.983982	-0.585766	0.810479	-0.001345	-0.797358	-0.576578	-0.178263
02275	9.646383	0.006818	-1.775420	0.010221	0.005548	-0.005041	-0.145216	-0.103343	0.983988	-0.585797	0.810457	-0.001333	-0.797342	-0.576611	-0.178229
02276	9.617611	0.023222	-1.725207	0.004435	0.002360	-0.002733	-0.145217	-0.103338	0.983988	-0.585780	0.810469	-0.001334	-0.797355	-0.576594	-0.178227
02277	9.681024	-0.022706	-1.745106	0.005072	0.001710	-0.004938	-0.145210	-0.103355	0.983988	-0.585771	0.810476	-0.001314	-0.797362	-0.576582	-0.178232
02278	9.633297	0.032145	-1.754418	0.008289	0.002318	-0.000480	-0.145224	-0.103333	0.983988	-0.585781	0.810468	-0.001343	-0.797352	-0.576596	-0.178230
02279	9.666084	-0.029856	-1.774961	0.005967	0.000536	-0.005339	-0.145224	-0.103360	0.983985	-0.585780	0.810469	-0.001320	-0.797353	-0.576590	-0.178246
02280	9.667877	0.002463	-1.724426	0.004692	0.001836	-0.000930	-0.145240	-0.103344	0.983984	-0.585762	0.810482	-0.001339	-0.797364	-0.576575	-0.178249
02281	9.622276	-0.020748	-1.755111	0.008213	0.000190	-0.005315	-0.145243	-0.103373	0.983981	-0.585778	0.810471	-0.001320	-0.797351	-0.576586	-0.178269
02282	9.661613	0.015654	-1.743974	0.006043	0.002664	-0.000505	-0.145254	-0.103349	0.983982	-0.585770	0.810476	-0.001346	-0.797355	-0.576583	-0.178264
02283	9.622337	-0.020449	-1.754777	0.007318	0.001364	-0.004915	-0.145251	-0.103367	0.983980	-0.585778	0.810471	-0.001330	-0.797350	-0.576587	-0.178272
02284	9.659284	-0.017065	-1.734278	0.005329	0.001186	-0.003135	-0.145259	-0.103373	0.983979	-0.585768	0.810478	-0.001328	-0.797355	-0.576576	-0.178282
02285	9.655392	0.029162	-1.763282	0.008669	0.002193	-0.004491	-0.145251	-0.103383	0.983979	-0.585787	0.810464	-0.001319	-0.797343	-0.576593	-0.178281
02286	9.650659	-0.036787	-1.744327	0.005071	0.001710	-0.004940	-0.145244	-0.103400	0.983978	-0.585777	0.810471	-0.001299	-0.797351	-0.576581	-0.178285
02287	9.661782	0.016952	-1.743024	0.009124	0.004196	-0.003666	-0.145225	-0.103391	0.983982	-0.585799	0.810456	-0.001299	-0.797339	-0.576604	-0.178265
02288	9.653153	-0.003096	-1.753101	0.006422	0.002538	-0.004516	-0.145213	-0.103400	0.983982	-0.585800	0.810455	-0.001286	-0.797340	-0.576603	-0.178261
02289	9.631268	0.001514	-1.743053	0.004433	0.002360	-0.002736	-0.145215	-0.103395	0.983983	-0.585782	0.810468	-0.001287	-0.797353	-0.576586	-0.178259
02290	9.666482	-0.027441	-1.772830	0.006042	0.002665	-0.000507	-0.145226	-0.103370	0.983984	-0.585774	0.810473	-0.001312	-0.797357	-0.576583	-0.178254
02291	9.659582	-0.015460	-1.732635	0.007317	0.001364	-0.004917	-0.145224	-0.103389	0.983982	-0.585781	0.810468	-0.001297	-0.797352	-0.576587	-0.178262
02292	9.637693	-0.010870	-1.722605	0.005784	0.003189	-0.002312	-0.145220	-0.103376	0.983984	-0.585774	0.810473	-0.001304	-0.797358	-0.576582	-0.178252
02293	9.631442	0.002079	-1.742091	0.005784	0.003189	-0.002312	-0.145220	-0.103362	0.983986	-0.585764	0.810480	-0.001312	-0.797365	-0.576574	-0.178244
02294	9.675354	-0.006530	-1.761414	0.008030	0.002844	-0.002288	-0.145219	-0.103351	0.983987	-0.585775	0.810473	-0.001324	-0.797358	-0.576587	-0.178237
02295	9.653464	-0.001941	-1.751387	0.005071	0.001709	-0.004941	-0.145213	-0.103369	0.983986	-0.585766	0.810479	-0.001304	-0.797366	-0.576574	-0.178242
02296	9.640239	0.022817	-1.731061	0.007193	0.000968	0.000896	-0.145246	-0.103343	0.983984	-0.585765	0.810480	-0.001345	-0.797360	-0.576578	-0.178254
02297	9.651153	-0.034754	-1.741631	0.005906	0.003585	-0.008127	-0.145207	-0.103374	0.983986	-0.585766	0.810479	-0.001295	-0.797366	-0.576574	-0.178241
02298	9.647278	0.011580	-1.770527	0.008029	0.002844	-0.002289	-0.145206	-0.103363	0.983987	-0.585776	0.810472	-0.001306	-0.797359	-0.576586	-0.178234
02299	9.651260	-0.034360	-1.741050	0.006040	0.002666	-0.000509	-0.145218	-0.103338	0.983988	-0.585768	0.810478	-0.001332	-0.797363	-0.576582	-0.178228
02300	9.662348	0.019259	-1.739863	0.005070	0.001709	-0.004942	-0.145211	-0.103355	0.983988	-0.585759	0.810485	-0.001312	-0.797371	-0.576570	-0.178232
02301	9.660664	-0.012665	-1.790004	0.005783	0.003189	-0.002314	-0.145207	-0.103343	0.983989	-0.585752	0.810489	-0.001319	-0.797377	-0.576565	-0.178222
02302	9.623148	-0.016658	-1.750364	0.008924	0.001670	-0.002690	-0.145214	-0.103341	0.983989	-0.585770	0.810476	-0.001328	-0.797362	-0.576584	-0.178227
02303	9.632508	0.004821	-1.799568	0.006420	0.002538	-0.004519	-0.145205	-0.103350	0.983989	-0.585770	0.810476	-0.001316	-0.797364	-0.576582	-0.178225
02304	9.682090	-0.017382	-1.739245	0.009121	0.004197	-0.003672	-0.145186	-0.103342	0.983993	-0.585791	0.810461	-0.001315	-0.797352	-0.576605	-0.178204
02305	9.623281	-0.016043	-1.749640	0.004234	-0.000167	-0.001757	-0.145213	-0.103344	0.983988	-0.585770	0.810476	-0.001325	-0.797362	-0.576583	-0.178228
02306	9.682155	-0.017104	-1.738885	0.003537	0.003534	-0.002339	-0.145207	-0.103329	0.983991	-0.585745	0.810494	-0.001328	-0.797382	-0.576561	-0.178214
02307	9.653939	0.000335	-1.748771	0.009106	-0.000985	-0.005720	-0.145218	-0.103368	0.983985	-0.585768	0.810477	-0.001308	-0.797363	-0.576577	-0.178246
02308	9.632044	0.004782	-1.738757	0.007845	0.005500	0.000737	-0.145214	-0.103317	0.983991	-0.585773	0.810474	-0.001349	-0.797360	-0.576591	-0.178212
02309	9.660346	-0.012284	-1.728396	0.005070	0.001708	-0.004944	-0.145207	-0.103333	0.983991	-0.585764	0.810481	-0.001329	-0.797368	-0.576579	-0.178216
02310	9.654062	0.000727	-1.748091	0.005584	0.000663	-0.001334	-0.145229	-0.103327	0.983988	-0.585753	0.810488	-0.001345	-0.797372	-0.576570	-0.178230
02311	9.654097	0.000873	-1.747896	0.007770	0.003367	-0.004097	-0.145213	-0.103328	0.983990	-0.585765	0.810480	-0.001337	-0.797366	-0.576582	-0.178218
02312	9.629880	-0.027595	-1.728218	0.007967	0.005894	-0.005080	-0.145172	-0.103322	0.983997	-0.585780	0.810469	-0.001321	-0.797363	-0.576597	-0.178181
02313	9.676179	-0.003017	-1.756884	0.006934	0.001493	-0.000911	-0.145192	-0.103307	0.983995	-0.585779	0.810470	-0.001345	-0.797360	-0.576599	-0.178188
02314	9.626031	0.018616	-1.756954	0.000836	0.001874	-0.003187	-0.145194	-0.103309	0.983995	-0.585733	0.810503	-0.001334	-0.797393	-0.576552	-0.178191
02315	9.667567	-0.022941	-1.766968	0.011805	0.000675	-0.004874	-0.145196	-0.103330	0.983992	-0.585776	0.810472	-0.001327	-0.797361	-0.576592	-0.178206
02316	9.669307	0.009540	-1.716370	0.006874	0.004542	-0.003699	-0.145173	-0.103321	0.983997	-0.585780	0.810469	-0.001322	-0.797362	-0.576597	-0.178182
02317	9.652039	-0.030937	-1.736789	0.006676	0.002016	-0.002717	-0.145177	-0.103318	0.983996	-0.585780	0.810469	-0.001327	-0.797361	-0.576598	-0.178183
02318	9.670081	0.010845	-1.775569	0.005523	0.003712	-0.004123	-0.145159	-0.103317	0.983999	-0.585773	0.810474	-0.001316	-0.797370	-0.576591	-0.178168
02319	9.632558	0.006989	-1.735900	0.006676	0.002016	-0.002717	-0.145164	-0.103314	0.983999	-0.585774	0.810473	-0.001321	-0.797368	-0.576593	-0.178170
02320	9.676483	-0.001515	-1.755213	0.007768	0.003368	-0.004100	-0.145148	-0.103315	0.984001	-0.585785	0.810465	-0.001314	-0.797363	-0.576604	-0.178158
02321	9.638937	-0.005344	-1.715658	0.006221	0.000011	-0.003540	-0.145162	-0.103330	0.983997	-0.585785	0.810466	-0.001309	-0.797361	-0.576601	-0.178178
02322	9.624002	-0.012676	-1.745696	0.010013	0.003024	-0.004077	-0.145150	-0.103333	0.983999	-0.585814	0.810445	-0.001306	-0.797342	-0.576630	-0.178170
02323	9.704841	-0.017984	-1.744544	0.003535	0.003534	-0.002343	-0.145144	-0.103319	0.984001	-0.585790	0.810462	-0.001309	-0.797360	-0.576608	-0.178157
02324	9.615451	-0.032741	-1.755480	0.004687	0.001838	-0.000936	-0.145160	-0.103303	0.984001	-0.585772	0.810475	-0.001327	-0.797370	-0.576593	-0.178160
02325	9.685344	0.019713	-1.743714	0.007768	0.003368	-0.004101	-0.145144	-0.103304	0.984003	-0.585784	0.810466	-0.001320	-0.797365	-0.576604	-0.178148
02326	9.615546	-0.032407	-1.754967	0.006675	0.002016	-0.002719	-0.145148	-0.103301	0.984003	-0.585784	0.810466	-0.001324	-0.797364	-0.576605	-0.178149
02327	9.689378	-0.025829	-1.713962	0.006675	0.002016	-0.002719	-0.145150	-0.103299	0.984002	-0.585786	0.810465	-0.001328	-0.797362	-0.576608	-0.178150
02328	9.626628	0.021314	-1.753653	0.008025	0.002846	-0.002297	-0.145150	-0.103288	0.984004	-0.585797	0.810457	-0.001339	-0.797354	-0.576620	-0.178143
02329	9.652577	-0.028686	-1.733835	0.001927	0.003225	-0.004572	-0.145132	-0.103293	0.984006	-0.585762	0.810482	-0.001317	-0.797383	-0.576584	-0.178132
02330	9.676886	0.000411	-1.752989	0.007116	-0.001163	-0.003940	-0.145154	-0.103319	0.984000	-0.585768	0.810478	-0.001310	-0.797375	-0.576586	-0.178165
02331	9.618082	0.001684	-1.763423	0.006233	0.005195	-0.001499	-0.145138	-0.103288	0.984005	-0.585764	0.810481	-0.001325	-0.797380	-0.576587	-0.178134
02332	9.639407	-0.003444	-1.713020	0.008024	0.002847	-0.002297	-0.145138	-0.103277	0.984007	-0.585774	0.810473	-0.001336	-0.797373	-0.576600	-0.178127
02333	9.648788	0.017849	-1.762228	0.006674	0.002016	-0.002720	-0.145142	-0.103274	0.984006	-0.585774	0.810473	-0.001341	-0.797372	-0.576600	-0.178129
02334	9.652780	-0.027885	-1.732714	0.006674	0.002016	-0.002720	-0.145145	-0.103271	0.984006	-0.585775	0.810473	-0.001345	-0.797371	-0.576601	-0.178130
02335	9.661452	-0.007375	-1.722227	0.007570	0.000842	-0.003119	-0.145155	-0.103278	0.984004	-0.585783	0.810467	-0.001347	-0.797363	-0.576608	-0.178142
02336	9.640249	-0.002001	-1.771986	0.006871	0.004542	-0.003706	-0.145133	-0.103269	0.984008	-0.585786	0.810464	-0.001343	-0.797365	-0.576613	-0.178119
02337	9.655273	0.005809	-1.741381	0.009115	0.004198	-0.003683	-0.145114	-0.103261	0.984012	-0.585807	0.810449	-0.001343	-0.797353	-0.576636	-0.178099
02338	9.649024	0.018812	-1.760927	0.000835	0.001872	-0.003190	-0.145116	-0.103263	0.984011	-0.585762	0.810482	-0.001332	-0.797386	-0.576590	-0.178102
02339	9.653025	-0.026871	-1.731365	0.008023	0.002847	-0.002299	-0.145115	-0.103252	0.984013	-0.585773	0.810474	-0.001343	-0.797378	-0.576603	-0.178094
02340	9.671041	0.014892	-1.770308	0.005963	0.000532	-0.005348	-0.145115	-0.103279	0.984010	-0.585771	0.810475	-0.001320	-0.797379	-0.576596	-0.178110
02341	9.609899	-0.016784	-1.771266	0.007765	0.003368	-0.004106	-0.145100	-0.103280	0.984012	-0.585783	0.810467	-0.001313	-0.797373	-0.576608	-0.178099
02342	9.699371	-0.001675	-1.759786	0.006673	0.002017	-0.002722	-0.145104	-0.103278	0.984011	-0.585783	0.810467	-0.001317	-0.797372	-0.576609	-0.178100
02343	9.640570	-0.000433	-1.770239	0.006673	0.002017	-0.002722	-0.145107	-0.103276	0.984011	-0.585785	0.810465	-0.001322	-0.797370	-0.576611	-0.178102
02344	9.653224	-0.025708	-1.730274	0.005520	0.003711	-0.004130	-0.145089	-0.103274	0.984014	-0.585778	0.810470	-0.001310	-0.797379	-0.576604	-0.178086
02345	9.627342	0.024770	-1.749681	0.006220	0.000012	-0.003543	-0.145106	-0.103290	0.984010	-0.585775	0.810473	-0.001307	-0.797378	-0.576598	-0.178109
02346	9.644655	-0.045533	-1.740247	0.005520	0.003711	-0.004131	-0.145088	-0.103289	0.984013	-0.585768	0.810477	-0.001295	-0.797386	-0.576592	-0.178094
02347	9.670584	0.015907	-1.709109	0.009103	-0.000985	-0.005725	-0.145096	-0.103327	0.984007	-0.585793	0.810460	-0.001274	-0.797367	-0.576609	-0.178123
02348	9.653335	-0.024561	-1.729670	0.005777	0.003191	-0.002325	-0.145093	-0.103314	0.984009	-0.585785	0.810465	-0.001281	-0.797373	-0.576604	-0.178113
02349	9.653393	-0.024368	-1.729352	0.007764	0.003368	-0.004108	-0.145074	-0.103315	0.984012	-0.585798	0.810456	-0.001272	-0.797367	-0.576616	-0.178098
02350	9.633816	0.013416	-1.728863	0.005066	0.001706	-0.004952	-0.145067	-0.103332	0.984011	-0.585788	0.810463	-0.001252	-0.797375	-0.576604	-0.178103
02351	9.647176	-0.011067	-1.748735	0.008021	0.002848	-0.002302	-0.145066	-0.103320	0.984013	-0.585799	0.810456	-0.001263	-0.797368	-0.576617	-0.178095
02352	9.647206	-0.010820	-1.748571	0.005962	0.000532	-0.005351	-0.145066	-0.103347	0.984010	-0.585797	0.810457	-0.001241	-0.797369	-0.576610	-0.178111
02353	9.684149	-0.007322	-1.727816	0.005333	0.006371	-0.001108	-0.145045	-0.103307	0.984017	-0.585785	0.810466	-0.001259	-0.797382	-0.576605	-0.178069
02354	9.653649	-0.023293	-1.727938	0.008021	0.002849	-0.002303	-0.145044	-0.103296	0.984018	-0.585795	0.810458	-0.001270	-0.797375	-0.576617	-0.178062
02355	9.627757	0.027110	-1.747362	0.007311	0.001363	-0.004930	-0.145038	-0.103314	0.984017	-0.585803	0.810452	-0.001253	-0.797370	-0.576622	-0.178068
02356	9.682707	-0.039305	-1.777189	0.007381	0.003503	-0.000098	-0.145046	-0.103281	0.984020	-0.585806	0.810451	-0.001285	-0.797367	-0.576631	-0.178055
02357	9.625537	-0.005788	-1.737249	0.005518	0.003711	-0.004134	-0.145026	-0.103280	0.984023	-0.585799	0.810455	-0.001273	-0.797375	-0.576624	-0.178039
02358	9.675806	-0.027004	-1.736566	0.005776	0.003191	-0.002327	-0.145023	-0.103267	0.984025	-0.585792	0.810461	-0.001280	-0.797381	-0.576619	-0.178028
02359	9.671881	0.018928	-1.765671	0.008020	0.002849	-0.002304	-0.145023	-0.103256	0.984026	-0.585802	0.810453	-0.001291	-0.797373	-0.576632	-0.178022
02360	9.647674	-0.009763	-1.745990	0.006228	0.005197	-0.001508	-0.145008	-0.103225	0.984031	-0.585797	0.810457	-0.001307	-0.797380	-0.576632	-0.177992
02361	9.640688	0.002447	-1.705798	0.008206	0.000188	-0.005329	-0.145012	-0.103254	0.984027	-0.585813	0.810445	-0.001289	-0.797367	-0.576643	-0.178012
02362	9.669667	-0.013666	-1.755535	0.005128	-0.001339	-0.002159	-0.145046	-0.103266	0.984021	-0.585800	0.810454	-0.001296	-0.797371	-0.576628	-0.178046
02363	9.654024	-0.022003	-1.725856	0.006032	0.002672	-0.000521	-0.145057	-0.103241	0.984022	-0.585792	0.810460	-0.001322	-0.797374	-0.576624	-0.178041
02364	9.663422	-0.000659	-1.775097	0.004808	0.002224	-0.006762	-0.145035	-0.103270	0.984022	-0.585783	0.810467	-0.001283	-0.797385	-0.576610	-0.178040
02365	9.639186	-0.029050	-1.755592	0.006671	0.002017	-0.002726	-0.145041	-0.103267	0.984022	-0.585782	0.810467	-0.001289	-0.797384	-0.576610	-0.178043
02366	9.628183	0.028970	-1.744984	0.006219	0.000012	-0.003545	-0.145056	-0.103282	0.984018	-0.585780	0.810469	-0.001285	-0.797383	-0.576605	-0.178064
02367	9.645520	-0.041475	-1.735551	0.006928	0.001499	-0.000920	-0.145074	-0.103268	0.984017	-0.585781	0.810468	-0.001307	-0.797379	-0.576608	-0.178070
02368	9.641576	0.004381	-1.764747	0.005774	0.003192	-0.002329	-0.145070	-0.103255	0.984019	-0.585774	0.810473	-0.001314	-0.797385	-0.576603	-0.178060
02369	9.676205	-0.025193	-1.734367	0.004621	0.004884	-0.003739	-0.145044	-0.103244	0.984024	-0.585759	0.810484	-0.001304	-0.797401	-0.576590	-0.178032
02370	9.656616	0.012570	-1.733878	0.007309	0.001362	-0.004933	-0.145040	-0.103263	0.984022	-0.585768	0.810478	-0.001288	-0.797395	-0.576596	-0.178040
02371	9.639442	-0.027766	-1.754209	0.003015	0.004571	-0.005968	-0.145003	-0.103270	0.984027	-0.585743	0.810496	-0.001254	-0.797420	-0.576569	-0.178014
02372	9.648115	-0.007166	-1.743567	0.008275	0.002331	-0.000499	-0.145017	-0.103248	0.984027	-0.585753	0.810489	-0.001284	-0.797410	-0.576583	-0.178012
02373	9.648157	-0.007051	-1.743332	0.006413	0.002536	-0.004535	-0.145005	-0.103257	0.984028	-0.585755	0.810487	-0.001269	-0.797411	-0.576583	-0.178008
02374	9.648197	-0.006815	-1.743112	0.006670	0.002018	-0.002728	-0.145009	-0.103254	0.984028	-0.585755	0.810487	-0.001274	-0.797410	-0.576584	-0.178009
02375	9.648255	-0.006622	-1.742795	0.006864	0.004543	-0.003718	-0.144987	-0.103245	0.984032	-0.585759	0.810485	-0.001269	-0.797412	-0.576589	-0.177986
02376	9.654609	-0.019009	-1.722618	0.005065	0.001704	-0.004957	-0.144980	-0.103262	0.984031	-0.585750	0.810491	-0.001249	-0.797420	-0.576577	-0.177990
02377	9.648352	-0.006193	-1.742258	0.009622	0.003164	-0.000080	-0.144990	-0.103231	0.984033	-0.585770	0.810476	-0.001285	-0.797403	-0.576604	-0.177981
02378	9.678955	0.009738	-1.741502	0.001348	0.000832	0.000420	-0.145021	-0.103210	0.984031	-0.585724	0.810510	-0.001311	-0.797431	-0.576560	-0.177994
02379	9.631196	-0.046881	-1.762549	0.009296	0.001539	-0.006719	-0.145172	-0.103405	0.983988	-0.585786	0.810464	-0.001254	-0.797358	-0.576589	-0.178230
02380	9.628805	0.031709	-1.741501	0.006863	0.004543	-0.003719	-0.145150	-0.103396	0.983992	-0.585790	0.810462	-0.001249	-0.797359	-0.576594	-0.178206
02381	9.661887	-0.030294	-1.761315	0.005773	0.003192	-0.002332	-0.145147	-0.103383	0.983994	-0.585783	0.810467	-0.001256	-0.797365	-0.576590	-0.178197
02382	9.657181	0.015073	-1.730710	0.006412	0.002536	-0.004537	-0.145135	-0.103392	0.983995	-0.585784	0.810466	-0.001242	-0.797366	-0.576589	-0.178193
02383	9.640027	-0.025496	-1.751025	0.005772	0.003192	-0.002332	-0.145133	-0.103380	0.983996	-0.585777	0.810471	-0.001249	-0.797372	-0.576584	-0.178184
02384	9.633030	-0.013257	-1.710740	0.006863	0.004543	-0.003720	-0.145110	-0.103371	0.984001	-0.585781	0.810469	-0.001244	-0.797373	-0.576589	-0.178160
02385	9.664406	0.003348	-1.769730	0.007440	0.000465	0.002694	-0.145159	-0.103333	0.983997	-0.585778	0.810470	-0.001304	-0.797366	-0.576594	-0.178178
02386	9.648765	-0.004832	-1.739975	0.006794	0.002398	-0.008552	-0.145126	-0.103375	0.983998	-0.585788	0.810463	-0.001251	-0.797365	-0.576596	-0.178175
02387	9.668494	-0.041964	-1.739752	0.004236	0.005022	0.000269	-0.145123	-0.103332	0.984003	-0.585766	0.810479	-0.001280	-0.797381	-0.576581	-0.178148
02388	9.651171	0.028747	-1.748986	0.004613	-0.000303	-0.005776	-0.145127	-0.103368	0.983999	-0.585755	0.810487	-0.001251	-0.797389	-0.576563	-0.178172
02389	9.684232	-0.033070	-1.768988	0.007759	0.003369	-0.004119	-0.145113	-0.103369	0.984001	-0.585766	0.810479	-0.001244	-0.797384	-0.576574	-0.178161
02390	9.629276	0.033669	-1.738854	0.006668	0.002018	-0.002731	-0.145116	-0.103366	0.984000	-0.585766	0.810479	-0.001248	-0.797383	-0.576575	-0.178162
02391	9.668659	-0.041062	-1.738853	0.005772	0.003192	-0.002334	-0.145114	-0.103354	0.984002	-0.585760	0.810484	-0.001255	-0.797388	-0.576571	-0.178153
02392	9.664717	0.004895	-1.768030	0.007758	0.003369	-0.004120	-0.145098	-0.103355	0.984004	-0.585771	0.810476	-0.001248	-0.797382	-0.576582	-0.178141
02393	9.649080	-0.003498	-1.738227	0.007439	0.000466	0.002693	-0.145147	-0.103317	0.984001	-0.585769	0.810477	-0.001307	-0.797375	-0.576587	-0.178158
02394	9.662480	-0.028096	-1.758097	0.006793	0.002396	-0.008554	-0.145114	-0.103360	0.984001	-0.585779	0.810470	-0.001255	-0.797374	-0.576590	-0.178156
02395	9.642853	0.009661	-1.757738	0.006028	0.002675	-0.000527	-0.145126	-0.103335	0.984002	-0.585770	0.810476	-0.001280	-0.797378	-0.576585	-0.178151
02396	9.646891	-0.035946	-1.728035	0.007307	0.001362	-0.004938	-0.145122	-0.103354	0.984001	-0.585779	0.810470	-0.001264	-0.797372	-0.576590	-0.178159
02397	9.649230	-0.002469	-1.737396	0.007500	0.003886	-0.005930	-0.145093	-0.103366	0.984004	-0.585790	0.810462	-0.001239	-0.797370	-0.576599	-0.178143
02398	9.654059	-0.047234	-1.767476	0.008204	0.000188	-0.005335	-0.145096	-0.103395	0.984000	-0.585806	0.810450	-0.001221	-0.797357	-0.576611	-0.178163
02399	9.649285	-0.001802	-1.737092	0.006667	0.002019	-0.002733	-0.145100	-0.103393	0.984000	-0.585809	0.810448	-0.001225	-0.797355	-0.576614	-0.178164
02400	9.643045	0.011057	-1.756675	0.006860	0.004543	-0.003726	-0.145077	-0.103384	0.984004	-0.585812	0.810446	-0.001220	-0.797356	-0.576619	-0.178141
02401	9.655679	-0.014034	-1.716655	0.006217	0.000012	-0.003549	-0.145093	-0.103399	0.984000	-0.585809	0.810448	-0.001217	-0.797356	-0.576613	-0.178162
02402	9.679961	0.014858	-1.735863	0.008014	0.002852	-0.002314	-0.145093	-0.103388	0.984002	-0.585819	0.810441	-0.001228	-0.797348	-0.576625	-0.178156
02403	9.618900	-0.017265	-1.736705	0.006027	0.002676	-0.000528	-0.145104	-0.103363	0.984002	-0.585810	0.810448	-0.001254	-0.797353	-0.576620	-0.178150
02404	9.677768	-0.018066	-1.725712	0.006410	0.002536	-0.004543	-0.145093	-0.103372	0.984003	-0.585811	0.810447	-0.001240	-0.797354	-0.576620	-0.178147
02405	9.650346	-0.000284	-1.795417	0.005770	0.003193	-0.002338	-0.145089	-0.103359	0.984005	-0.585805	0.810451	-0.001246	-0.797359	-0.576616	-0.178136
02406	9.641029	-0.021038	-1.745559	0.005513	0.003710	-0.004147	-0.145071	-0.103358	0.984008	-0.585798	0.810456	-0.001234	-0.797368	-0.576609	-0.178121
02407	9.658246	0.019997	-1.724705	0.008013	0.002853	-0.002315	-0.145073	-0.103347	0.984009	-0.585809	0.810448	-0.001247	-0.797360	-0.576622	-0.178116
02408	9.647444	-0.033283	-1.725000	0.003269	0.004050	-0.004170	-0.145052	-0.103345	0.984012	-0.585784	0.810466	-0.001231	-0.797381	-0.576597	-0.178097
02409	9.671715	-0.004242	-1.744270	0.008010	-0.002336	-0.004343	-0.145081	-0.103380	0.984004	-0.585797	0.810457	-0.001222	-0.797367	-0.576604	-0.178142
02410	9.643448	0.012868	-1.754450	0.006026	0.002677	-0.000530	-0.145092	-0.103356	0.984005	-0.585789	0.810463	-0.001247	-0.797370	-0.576600	-0.178137
02411	9.641239	-0.020076	-1.744407	0.010191	0.005553	-0.005097	-0.145054	-0.103351	0.984011	-0.585819	0.810441	-0.001235	-0.797355	-0.576632	-0.178103
02412	9.643575	0.013238	-1.753747	0.007563	0.000845	-0.003132	-0.145065	-0.103359	0.984009	-0.585827	0.810435	-0.001237	-0.797347	-0.576639	-0.178116
02413	9.663311	-0.023944	-1.753585	0.005512	0.003709	-0.004149	-0.145046	-0.103359	0.984011	-0.585822	0.810439	-0.001225	-0.797355	-0.576633	-0.178101
02414	9.643667	0.013579	-1.753237	0.008269	0.002337	-0.000508	-0.145060	-0.103336	0.984012	-0.585832	0.810432	-0.001254	-0.797345	-0.576647	-0.178099
02415	9.685387	-0.028051	-1.762745	0.004165	0.002875	-0.004568	-0.145048	-0.103344	0.984013	-0.585814	0.810445	-0.001237	-0.797360	-0.576628	-0.178093
02416	9.619506	-0.014873	-1.733372	0.008268	0.002337	-0.000508	-0.145062	-0.103321	0.984013	-0.585824	0.810437	-0.001266	-0.797350	-0.576642	-0.178092
02417	9.657204	-0.010881	-1.772472	0.004422	0.002359	-0.002759	-0.145063	-0.103317	0.984013	-0.585807	0.810450	-0.001266	-0.797363	-0.576625	-0.178090
02418	9.650125	0.001458	-1.732423	0.005319	0.001186	-0.003155	-0.145071	-0.103323	0.984012	-0.585797	0.810457	-0.001264	-0.797368	-0.576614	-0.178099
02419	9.663554	-0.023040	-1.752259	0.007305	0.001361	-0.004942	-0.145067	-0.103342	0.984010	-0.585805	0.810451	-0.001247	-0.797363	-0.576619	-0.178108
02420	9.674433	0.030678	-1.751467	0.008011	0.002853	-0.002319	-0.145067	-0.103331	0.984011	-0.585815	0.810444	-0.001258	-0.797356	-0.576632	-0.178101
02421	9.625978	-0.026626	-1.712475	0.004422	0.002359	-0.002760	-0.145068	-0.103327	0.984012	-0.585798	0.810456	-0.001258	-0.797368	-0.576615	-0.178100
02422	9.635396	-0.005649	-1.761848	0.009165	0.001164	-0.000906	-0.145089	-0.103315	0.984010	-0.585816	0.810443	-0.001285	-0.797351	-0.576635	-0.178109
02423	9.650291	0.002282	-1.731498	0.006408	0.002535	-0.004547	-0.145079	-0.103324	0.984010	-0.585817	0.810443	-0.001272	-0.797353	-0.576634	-0.178107
02424	9.641775	-0.017928	-1.741470	0.005767	0.003193	-0.002342	-0.145075	-0.103312	0.984012	-0.585809	0.810448	-0.001278	-0.797359	-0.576629	-0.178097
02425	9.672359	-0.001791	-1.740695	0.006921	0.001504	-0.000928	-0.145093	-0.103298	0.984011	-0.585809	0.810448	-0.001300	-0.797355	-0.576632	-0.178103
02426	9.656724	-0.009793	-1.710802	0.009482	0.004060	-0.007727	-0.145051	-0.103324	0.984014	-0.585840	0.810426	-0.001260	-0.797341	-0.576657	-0.178085
02427	9.629335	0.007905	-1.780499	0.006024	0.002678	-0.000533	-0.145062	-0.103300	0.984015	-0.585833	0.810431	-0.001285	-0.797344	-0.576655	-0.178080
02428	9.672497	-0.001191	-1.739929	0.007561	0.000846	-0.003135	-0.145073	-0.103308	0.984013	-0.585841	0.810425	-0.001287	-0.797336	-0.576662	-0.178093
02429	9.657679	-0.008794	-1.769895	0.007753	0.003369	-0.004131	-0.145059	-0.103309	0.984015	-0.585852	0.810417	-0.001281	-0.797330	-0.576673	-0.178082
02430	9.650603	0.003602	-1.729753	0.004421	0.002359	-0.002761	-0.145060	-0.103304	0.984015	-0.585835	0.810430	-0.001281	-0.797343	-0.576656	-0.178080
02431	9.654660	-0.041896	-1.699977	0.007561	0.000846	-0.003135	-0.145071	-0.103313	0.984013	-0.585844	0.810423	-0.001282	-0.797334	-0.576664	-0.178094
02432	9.644352	0.016640	-1.749440	0.009546	0.001021	-0.004923	-0.145069	-0.103334	0.984011	-0.585871	0.810404	-0.001270	-0.797314	-0.576687	-0.178105
02433	9.649270	-0.028304	-1.779323	0.004612	0.004882	-0.003759	-0.145043	-0.103323	0.984016	-0.585857	0.810413	-0.001260	-0.797329	-0.576676	-0.178077
02434	9.659319	0.024882	-1.718623	0.006023	0.002679	-0.000534	-0.145054	-0.103299	0.984017	-0.585849	0.810419	-0.001285	-0.797333	-0.576672	-0.178072
02435	9.670499	-0.032799	-1.728769	0.009098	-0.000987	-0.005737	-0.145063	-0.103338	0.984011	-0.585874	0.810401	-0.001264	-0.797314	-0.576690	-0.178102
02436	9.635935	-0.003028	-1.758905	0.004677	0.001845	-0.000953	-0.145078	-0.103322	0.984011	-0.585856	0.810414	-0.001282	-0.797324	-0.576674	-0.178105
02437	9.679106	-0.012076	-1.718248	0.005766	0.003194	-0.002345	-0.145075	-0.103309	0.984012	-0.585848	0.810420	-0.001289	-0.797330	-0.576669	-0.178095
02438	9.614048	0.001422	-1.748690	0.006022	0.002679	-0.000535	-0.145086	-0.103285	0.984013	-0.585841	0.810425	-0.001314	-0.797334	-0.576666	-0.178090
02439	9.664332	-0.019790	-1.748000	0.006214	0.000011	-0.003554	-0.145102	-0.103299	0.984010	-0.585837	0.810428	-0.001310	-0.797333	-0.576659	-0.178111
02440	9.658061	-0.006904	-1.767815	0.006406	0.002534	-0.004551	-0.145091	-0.103308	0.984010	-0.585838	0.810427	-0.001296	-0.797335	-0.576659	-0.178107
02441	9.657254	-0.007093	-1.707816	0.008905	0.001681	-0.002719	-0.145097	-0.103307	0.984009	-0.585856	0.810414	-0.001305	-0.797320	-0.576677	-0.178112
02442	9.682365	0.022178	-1.786873	0.005317	0.001185	-0.003159	-0.145105	-0.103313	0.984008	-0.585847	0.810421	-0.001303	-0.797326	-0.576667	-0.178121
02443	9.629034	0.010167	-1.717738	0.008008	0.002855	-0.002325	-0.145104	-0.103303	0.984009	-0.585858	0.810413	-0.001313	-0.797318	-0.576680	-0.178115
02444	9.664502	-0.018776	-1.747073	0.006405	0.002534	-0.004553	-0.145093	-0.103312	0.984010	-0.585859	0.810412	-0.001299	-0.797319	-0.576679	-0.178111
02445	9.659655	0.026743	-1.716705	0.004419	0.002359	-0.002764	-0.145095	-0.103308	0.984010	-0.585840	0.810425	-0.001300	-0.797332	-0.576661	-0.178110
02446	9.646640	-0.059649	-1.707272	0.006662	0.002020	-0.002743	-0.145098	-0.103305	0.984009	-0.585841	0.810425	-0.001304	-0.797331	-0.576662	-0.178111
02447	9.660600	0.027494	-1.775975	0.006853	0.004543	-0.003741	-0.145075	-0.103296	0.984014	-0.585844	0.810423	-0.001299	-0.797333	-0.576667	-0.178087
02448	9.656138	-0.038373	-1.756303	0.006214	0.000011	-0.003555	-0.145090	-0.103312	0.984010	-0.585842	0.810424	-0.001294	-0.797332	-0.576662	-0.178108
02449	9.673284	0.002742	-1.735546	0.007300	0.006552	-0.002929	-0.145055	-0.103284	0.984018	-0.585847	0.810421	-0.001297	-0.797335	-0.576672	-0.178065
02450	9.620848	-0.008904	-1.725950	0.008007	0.002855	-0.002326	-0.145055	-0.103274	0.984019	-0.585857	0.810413	-0.001308	-0.797327	-0.576684	-0.178058
02451	9.664892	-0.017605	-1.744926	0.004226	0.005028	0.000252	-0.145052	-0.103230	0.984024	-0.585835	0.810429	-0.001337	-0.797344	-0.576669	-0.178030
02452	9.658664	-0.004781	-1.764527	0.004803	0.002213	-0.006782	-0.145031	-0.103259	0.984024	-0.585826	0.810436	-0.001298	-0.797354	-0.576655	-0.178030
02453	9.628162	-0.020529	-1.764917	0.007559	0.000847	-0.003139	-0.145042	-0.103267	0.984022	-0.585834	0.810430	-0.001301	-0.797346	-0.576662	-0.178044
02454	9.679836	-0.009044	-1.714146	0.006918	0.001507	-0.000933	-0.145061	-0.103253	0.984021	-0.585834	0.810430	-0.001324	-0.797343	-0.576665	-0.178050
02455	9.643043	-0.012398	-1.734481	0.005059	0.001699	-0.004972	-0.145054	-0.103270	0.984020	-0.585825	0.810436	-0.001303	-0.797351	-0.576653	-0.178055
02456	9.636791	0.000421	-1.754215	0.008006	0.002856	-0.002328	-0.145053	-0.103260	0.984021	-0.585836	0.810429	-0.001314	-0.797343	-0.576665	-0.178049
02457	9.665133	-0.016432	-1.743601	0.007108	0.004030	-0.001933	-0.145045	-0.103239	0.984024	-0.585839	0.810427	-0.001327	-0.797343	-0.576672	-0.178029
02458	9.629734	0.012868	-1.713794	0.005316	0.001185	-0.003161	-0.145053	-0.103244	0.984023	-0.585829	0.810434	-0.001325	-0.797348	-0.576661	-0.178039
02459	9.665215	-0.016145	-1.743151	0.008005	0.002856	-0.002328	-0.145051	-0.103234	0.984024	-0.585839	0.810427	-0.001335	-0.797341	-0.576673	-0.178032
02460	9.621267	-0.007112	-1.723620	0.005700	0.001038	-0.007178	-0.145037	-0.103273	0.984022	-0.585838	0.810427	-0.001294	-0.797344	-0.576665	-0.178043
02461	9.643278	-0.011055	-1.733183	0.005316	0.001185	-0.003162	-0.145045	-0.103279	0.984020	-0.585829	0.810433	-0.001292	-0.797349	-0.576655	-0.178053
02462	9.673828	0.005232	-1.732510	0.008902	0.001683	-0.002724	-0.145051	-0.103278	0.984019	-0.585848	0.810420	-0.001300	-0.797335	-0.576674	-0.178057
02463	9.621358	-0.006342	-1.723114	0.005506	0.003708	-0.004162	-0.145032	-0.103278	0.984022	-0.585841	0.810425	-0.001287	-0.797343	-0.576668	-0.178041
02464	9.687383	-0.019172	-1.751859	0.008902	0.001683	-0.002724	-0.145038	-0.103277	0.984021	-0.585860	0.810411	-0.001296	-0.797328	-0.576686	-0.178046
02465	9.659133	-0.002110	-1.761958	0.004418	0.002359	-0.002768	-0.145038	-0.103273	0.984022	-0.585843	0.810423	-0.001295	-0.797340	-0.576670	-0.178045
02466	9.665451	-0.014516	-1.741855	0.009799	0.000509	-0.003119	-0.145052	-0.103283	0.984019	-0.585869	0.810404	-0.001302	-0.797319	-0.576695	-0.178061
02467	9.643471	-0.010067	-1.732114	0.003330	0.001010	-0.001373	-0.145071	-0.103275	0.984017	-0.585842	0.810424	-0.001313	-0.797335	-0.576669	-0.178072
02468	9.656973	-0.034600	-1.751781	0.006146	0.003046	-0.006369	-0.145045	-0.103296	0.984018	-0.585844	0.810423	-0.001281	-0.797339	-0.576667	-0.178064
02469	9.645774	0.023604	-1.741501	0.007557	0.000847	-0.003142	-0.145055	-0.103304	0.984016	-0.585852	0.810417	-0.001282	-0.797331	-0.576674	-0.178076
02470	9.650745	-0.021521	-1.771402	0.004417	0.002359	-0.002769	-0.145056	-0.103299	0.984016	-0.585835	0.810429	-0.001282	-0.797343	-0.576657	-0.178074
02471	9.637322	0.003442	-1.751291	0.008003	0.002857	-0.002331	-0.145054	-0.103288	0.984018	-0.585846	0.810422	-0.001292	-0.797336	-0.576670	-0.178066
02472	9.659342	-0.000744	-1.760816	0.006212	0.000011	-0.003558	-0.145068	-0.103304	0.984014	-0.585844	0.810423	-0.001288	-0.797335	-0.576665	-0.178087
02473	9.649967	-0.021360	-1.711017	0.007105	0.004031	-0.001938	-0.145060	-0.103284	0.984017	-0.585847	0.810421	-0.001300	-0.797334	-0.576672	-0.178068
02474	9.667946	0.020025	-1.750179	0.005315	0.001185	-0.003164	-0.145068	-0.103290	0.984016	-0.585837	0.810428	-0.001298	-0.797340	-0.576661	-0.178078
02475	9.613237	-0.024657	-1.731069	0.008003	0.002857	-0.002332	-0.145066	-0.103279	0.984017	-0.585847	0.810420	-0.001308	-0.797332	-0.576673	-0.178070
02476	9.665779	-0.012490	-1.740053	0.004354	0.000200	-0.007598	-0.145056	-0.103326	0.984013	-0.585836	0.810428	-0.001261	-0.797342	-0.576654	-0.178090
02477	9.702612	-0.008402	-1.719419	0.006402	0.002534	-0.004560	-0.145045	-0.103336	0.984014	-0.585838	0.810427	-0.001247	-0.797343	-0.576653	-0.178086
02478	9.643846	-0.007413	-1.730040	0.006658	0.002021	-0.002749	-0.145049	-0.103333	0.984014	-0.585838	0.810427	-0.001251	-0.797342	-0.576654	-0.178088
02479	9.651068	-0.019549	-1.769663	0.006658	0.002022	-0.002749	-0.145052	-0.103331	0.984014	-0.585837	0.810428	-0.001255	-0.797342	-0.576654	-0.178089
02480	9.643904	-0.007171	-1.729714	0.005571	0.000673	-0.001353	-0.145075	-0.103324	0.984011	-0.585827	0.810435	-0.001271	-0.797345	-0.576645	-0.178104
02481	9.679413	-0.036167	-1.759055	0.006401	0.002533	-0.004561	-0.145063	-0.103333	0.984012	-0.585827	0.810435	-0.001258	-0.797348	-0.576643	-0.178100
02482	9.646200	0.026182	-1.739105	0.006017	0.002683	-0.000544	-0.145075	-0.103309	0.984013	-0.585819	0.810441	-0.001282	-0.797351	-0.576639	-0.178094
02483	9.648084	-0.052272	-1.699332	0.007299	0.001360	-0.004956	-0.145070	-0.103328	0.984011	-0.585829	0.810434	-0.001266	-0.797345	-0.576645	-0.178102
02484	9.668269	0.022207	-1.748365	0.008001	0.002858	-0.002335	-0.145069	-0.103318	0.984012	-0.585839	0.810426	-0.001276	-0.797338	-0.576658	-0.178096
02485	9.635587	-0.026746	-1.738809	0.004159	0.002871	-0.004584	-0.145055	-0.103325	0.984014	-0.585823	0.810438	-0.001258	-0.797352	-0.576640	-0.178088
02486	9.672425	-0.022860	-1.718122	0.007555	0.000848	-0.003145	-0.145065	-0.103333	0.984011	-0.585831	0.810432	-0.001260	-0.797345	-0.576647	-0.178101
02487	9.631581	0.019237	-1.768224	0.005759	0.003195	-0.002357	-0.145062	-0.103320	0.984013	-0.585823	0.810438	-0.001267	-0.797351	-0.576641	-0.178090
02488	9.664007	-0.043006	-1.727780	0.007744	0.003370	-0.004148	-0.145046	-0.103321	0.984015	-0.585834	0.810430	-0.001259	-0.797346	-0.576652	-0.178079
02489	9.647376	0.027866	-1.797383	0.006211	0.000012	-0.003560	-0.145061	-0.103336	0.984012	-0.585832	0.810431	-0.001255	-0.797344	-0.576648	-0.178100
02490	9.657757	-0.030000	-1.747540	0.005313	0.001185	-0.003167	-0.145069	-0.103342	0.984010	-0.585823	0.810438	-0.001252	-0.797350	-0.576637	-0.178110
02491	9.657791	-0.029919	-1.747351	0.006016	0.002684	-0.000546	-0.145080	-0.103318	0.984011	-0.585815	0.810443	-0.001277	-0.797353	-0.576634	-0.178104
02492	9.651545	-0.017254	-1.767086	0.006400	0.002533	-0.004564	-0.145069	-0.103327	0.984011	-0.585816	0.810443	-0.001263	-0.797355	-0.576633	-0.178101
02493	9.622384	-0.000265	-1.717387	0.006400	0.002533	-0.004564	-0.145058	-0.103337	0.984012	-0.585818	0.810442	-0.001249	-0.797356	-0.576633	-0.178097
02494	9.651631	-0.016689	-1.766619	0.006656	0.002022	-0.002752	-0.145061	-0.103334	0.984012	-0.585818	0.810442	-0.001253	-0.797355	-0.576634	-0.178099
02495	9.660176	0.004052	-1.756232	0.006400	0.002533	-0.004565	-0.145048	-0.103344	0.984013	-0.585821	0.810440	-0.001238	-0.797355	-0.576634	-0.178094
02496	9.660215	0.004291	-1.756012	0.006656	0.002022	-0.002753	-0.145052	-0.103341	0.984012	-0.585821	0.810440	-0.001242	-0.797354	-0.576635	-0.178095
02497	9.607739	-0.007401	-1.746708	0.008898	0.001685	-0.002732	-0.145058	-0.103341	0.984012	-0.585839	0.810426	-0.001251	-0.797340	-0.576654	-0.178100
02498	9.658079	-0.028508	-1.745782	0.007999	0.002859	-0.002338	-0.145057	-0.103330	0.984013	-0.585850	0.810419	-0.001261	-0.797332	-0.576666	-0.178093
02499	9.638310	0.008828	-1.745825	0.005826	0.000164	0.000457	-0.145094	-0.103311	0.984009	-0.585837	0.810428	-0.001297	-0.797335	-0.576657	-0.178112
02500	9.666623	-0.007906	-1.735383	0.005056	0.001696	-0.004981	-0.145087	-0.103328	0.984009	-0.585828	0.810435	-0.001276	-0.797343	-0.576645	-0.178116
02501	9.666677	-0.007587	-1.735081	0.006844	0.004544	-0.003758	-0.145064	-0.103319	0.984013	-0.585831	0.810432	-0.001270	-0.797345	-0.576649	-0.178092
02502	9.638447	0.009454	-1.745064	0.005757	0.003196	-0.002360	-0.145061	-0.103307	0.984015	-0.585823	0.810438	-0.001276	-0.797351	-0.576644	-0.178082
02503	9.695071	-0.024071	-1.724192	0.006210	0.000012	-0.003562	-0.145074	-0.103323	0.984011	-0.585820	0.810440	-0.001271	-0.797351	-0.576638	-0.178102
02504	9.615185	-0.018734	-1.785245	0.006467	-0.000499	-0.001750	-0.145103	-0.103327	0.984006	-0.585818	0.810442	-0.001284	-0.797347	-0.576635	-0.178128
02505	9.680330	-0.031888	-1.754083	0.005304	0.006380	-0.001160	-0.145082	-0.103286	0.984014	-0.585806	0.810451	-0.001302	-0.797360	-0.576630	-0.178087
02506	9.644873	-0.002613	-1.724318	0.009795	0.000512	-0.003127	-0.145095	-0.103296	0.984011	-0.585832	0.810432	-0.001308	-0.797339	-0.576654	-0.178103
02507	9.638618	0.010111	-1.744117	0.005500	0.003706	-0.004174	-0.145079	-0.103295	0.984013	-0.585824	0.810438	-0.001298	-0.797347	-0.576646	-0.178090
02508	9.658471	-0.026900	-1.743641	0.005055	0.001695	-0.004982	-0.145072	-0.103312	0.984012	-0.585814	0.810444	-0.001277	-0.797355	-0.576634	-0.178095
02509	9.654412	0.018890	-1.773319	0.006655	0.002022	-0.002755	-0.145075	-0.103310	0.984012	-0.585815	0.810444	-0.001281	-0.797354	-0.576635	-0.178096
02510	9.642814	-0.034625	-1.713679	0.007553	0.000849	-0.003149	-0.145086	-0.103317	0.984010	-0.585823	0.810438	-0.001283	-0.797347	-0.576642	-0.178109
02511	9.667039	-0.005757	-1.733072	0.005312	0.001185	-0.003170	-0.145093	-0.103323	0.984008	-0.585813	0.810445	-0.001280	-0.797353	-0.576631	-0.178118
02512	9.638756	0.011276	-1.743346	0.007553	0.000849	-0.003149	-0.145103	-0.103330	0.984006	-0.585821	0.810439	-0.001282	-0.797345	-0.576638	-0.178131
02513	9.658610	-0.025963	-1.742882	0.007099	0.004034	-0.001949	-0.145095	-0.103310	0.984009	-0.585824	0.810437	-0.001295	-0.797344	-0.576644	-0.178112
02514	9.652361	-0.013018	-1.762661	0.004096	0.000704	-0.009417	-0.145070	-0.103369	0.984007	-0.585814	0.810445	-0.001229	-0.797356	-0.576623	-0.178126
02515	9.652378	-0.012494	-1.762569	0.005311	0.001185	-0.003171	-0.145077	-0.103375	0.984005	-0.585805	0.810451	-0.001226	-0.797361	-0.576613	-0.178135
02516	9.646150	0.000092	-1.782230	0.007543	0.006045	-0.001143	-0.145058	-0.103336	0.984012	-0.585810	0.810447	-0.001248	-0.797361	-0.576625	-0.178097
02517	9.645284	0.000130	-1.722022	0.006397	0.002533	-0.004570	-0.145048	-0.103346	0.984013	-0.585812	0.810446	-0.001234	-0.797361	-0.576626	-0.178095
02518	9.672379	-0.049360	-1.761339	0.006654	0.002023	-0.002757	-0.145051	-0.103344	0.984012	-0.585813	0.810446	-0.001238	-0.797360	-0.576626	-0.178096
02519	9.639061	0.012919	-1.741645	0.006911	0.001513	-0.000944	-0.145071	-0.103329	0.984011	-0.585811	0.810447	-0.001261	-0.797358	-0.576627	-0.178104
02520	9.667422	-0.003710	-1.730942	0.006584	0.005053	-0.005577	-0.145034	-0.103332	0.984016	-0.585815	0.810444	-0.001237	-0.797362	-0.576631	-0.178075
02521	9.658985	-0.023907	-1.740833	0.006209	0.000012	-0.003564	-0.145047	-0.103348	0.984012	-0.585812	0.810446	-0.001232	-0.797361	-0.576625	-0.178095
02522	9.639185	0.013537	-1.740957	0.006012	0.002687	-0.000552	-0.145058	-0.103324	0.984013	-0.585804	0.810451	-0.001257	-0.797365	-0.576622	-0.178090
02523	9.645511	0.001206	-1.720746	0.007295	0.001359	-0.004964	-0.145052	-0.103343	0.984012	-0.585814	0.810445	-0.001239	-0.797360	-0.576628	-0.178096
02524	9.669740	0.030127	-1.740093	0.006653	0.002023	-0.002758	-0.145055	-0.103341	0.984012	-0.585814	0.810445	-0.001243	-0.797359	-0.576628	-0.178097
02525	9.628635	-0.039374	-1.740570	0.005498	0.003706	-0.004179	-0.145037	-0.103340	0.984015	-0.585807	0.810450	-0.001232	-0.797367	-0.576622	-0.178082
02526	9.661351	0.010066	-1.749730	0.007551	0.000850	-0.003151	-0.145047	-0.103347	0.984012	-0.585815	0.810444	-0.001233	-0.797359	-0.576628	-0.178095
02527	9.638139	-0.018466	-1.789840	0.006011	0.002688	-0.000553	-0.145058	-0.103324	0.984013	-0.585808	0.810449	-0.001257	-0.797363	-0.576625	-0.178090
02528	9.659276	-0.022706	-1.739236	0.005685	0.006227	-0.005188	-0.145014	-0.103317	0.984021	-0.585804	0.810452	-0.001236	-0.797374	-0.576623	-0.178050
02529	9.622555	-0.026421	-1.759441	0.007423	0.000496	0.002682	-0.145061	-0.103279	0.984018	-0.585803	0.810453	-0.001295	-0.797366	-0.576628	-0.178066
02530	9.653059	-0.010316	-1.758851	0.005310	0.001185	-0.003173	-0.145069	-0.103285	0.984016	-0.585793	0.810460	-0.001293	-0.797372	-0.576617	-0.178076
02531	9.683578	0.006272	-1.758181	0.004797	0.002203	-0.006800	-0.145048	-0.103314	0.984016	-0.585785	0.810466	-0.001255	-0.797382	-0.576603	-0.178076
02532	9.637392	-0.017678	-1.728895	0.007551	0.000850	-0.003152	-0.145058	-0.103321	0.984014	-0.585793	0.810460	-0.001256	-0.797374	-0.576610	-0.178089
02533	9.659439	-0.021697	-1.738340	0.008379	0.002706	-0.006367	-0.145036	-0.103345	0.984014	-0.585812	0.810446	-0.001228	-0.797364	-0.576625	-0.178085
02534	9.659492	-0.021398	-1.738053	0.005753	0.003197	-0.002368	-0.145033	-0.103333	0.984016	-0.585805	0.810451	-0.001235	-0.797370	-0.576620	-0.178075
02535	9.651069	-0.041799	-1.747920	0.006652	0.002023	-0.002760	-0.145037	-0.103330	0.984016	-0.585805	0.810451	-0.001239	-0.797369	-0.576621	-0.178076
02536	9.676486	0.019858	-1.717494	0.004481	-0.000670	0.000041	-0.145078	-0.103321	0.984011	-0.585784	0.810466	-0.001267	-0.797377	-0.576601	-0.178104
02537	9.631271	-0.004432	-1.747986	0.007095	0.004035	-0.001955	-0.145069	-0.103300	0.984014	-0.585786	0.810464	-0.001279	-0.797376	-0.576608	-0.178085
02538	9.675378	-0.012788	-1.766822	0.009464	0.004052	-0.007770	-0.145027	-0.103327	0.984018	-0.585817	0.810443	-0.001239	-0.797362	-0.576633	-0.178067
02539	9.653419	-0.008182	-1.756883	0.006010	0.002689	-0.000555	-0.145039	-0.103302	0.984018	-0.585809	0.810448	-0.001264	-0.797365	-0.576630	-0.178062
02540	9.622970	-0.024307	-1.757199	0.005310	0.001185	-0.003174	-0.145047	-0.103308	0.984017	-0.585799	0.810455	-0.001262	-0.797371	-0.576619	-0.178072
02541	9.653486	-0.007830	-1.756516	0.006395	0.002532	-0.004576	-0.145035	-0.103318	0.984017	-0.585801	0.810454	-0.001247	-0.797372	-0.576620	-0.178068
02542	9.668280	0.000504	-1.726147	0.006651	0.002024	-0.002762	-0.145038	-0.103315	0.984017	-0.585802	0.810454	-0.001252	-0.797371	-0.576620	-0.178069
02543	9.653565	-0.007563	-1.756084	0.008250	0.002354	-0.000535	-0.145052	-0.103293	0.984017	-0.585812	0.810446	-0.001281	-0.797361	-0.576635	-0.178067
02544	9.647318	0.005004	-1.775885	0.006394	0.002532	-0.004577	-0.145041	-0.103302	0.984018	-0.585813	0.810445	-0.001266	-0.797362	-0.576634	-0.178064
02545	9.659934	-0.019742	-1.735613	0.006908	0.001516	-0.000948	-0.145057	-0.103289	0.984017	-0.585815	0.810444	-0.001287	-0.797358	-0.576639	-0.178068
02546	9.645210	-0.027684	-1.765619	0.007293	0.001358	-0.004969	-0.145053	-0.103308	0.984016	-0.585823	0.810438	-0.001271	-0.797352	-0.576644	-0.178076
02547	9.659995	-0.019428	-1.735276	0.006009	0.002689	-0.000557	-0.145064	-0.103284	0.984017	-0.585815	0.810444	-0.001296	-0.797356	-0.576640	-0.178071
02548	9.646475	0.005726	-1.715328	0.004796	0.002201	-0.006804	-0.145042	-0.103313	0.984017	-0.585807	0.810450	-0.001257	-0.797366	-0.576626	-0.178071
02549	9.645319	-0.026904	-1.765036	0.007549	0.000850	-0.003155	-0.145051	-0.103321	0.984015	-0.585816	0.810443	-0.001257	-0.797358	-0.576634	-0.178083
02550	9.654985	0.026908	-1.704915	0.006394	0.002532	-0.004578	-0.145040	-0.103331	0.984015	-0.585817	0.810443	-0.001243	-0.797359	-0.576633	-0.178080
02551	9.645391	-0.026415	-1.764650	0.006650	0.002024	-0.002764	-0.145043	-0.103328	0.984015	-0.585818	0.810442	-0.001247	-0.797358	-0.576634	-0.178081
02552	9.668643	0.002367	-1.724109	0.007093	0.004036	-0.001960	-0.145035	-0.103308	0.984018	-0.585820	0.810440	-0.001260	-0.797358	-0.576641	-0.178062
02553	9.651771	-0.038594	-1.744112	0.006207	0.000012	-0.003568	-0.145049	-0.103323	0.984015	-0.585818	0.810442	-0.001255	-0.797357	-0.576636	-0.178082
02554	9.646679	0.007023	-1.714174	0.007991	0.002863	-0.002352	-0.145048	-0.103313	0.984016	-0.585828	0.810434	-0.001265	-0.797349	-0.576648	-0.178075
02555	9.623529	-0.021331	-1.754172	0.004795	0.002200	-0.006806	-0.145027	-0.103342	0.984016	-0.585819	0.810441	-0.001227	-0.797360	-0.576633	-0.178076
02556	9.676074	-0.009119	-1.763030	0.007991	0.002863	-0.002353	-0.145026	-0.103332	0.984017	-0.585829	0.810433	-0.001237	-0.797353	-0.576646	-0.178069
02557	9.632078	-0.000335	-1.743540	0.005751	0.003198	-0.002373	-0.145022	-0.103319	0.984019	-0.585822	0.810439	-0.001244	-0.797359	-0.576641	-0.178058
02558	9.660443	-0.016871	-1.732810	0.006393	0.002531	-0.004580	-0.145011	-0.103328	0.984020	-0.585823	0.810438	-0.001229	-0.797360	-0.576640	-0.178055
02559	9.684660	0.012122	-1.752178	0.007291	0.001358	-0.004972	-0.145008	-0.103347	0.984018	-0.585830	0.810433	-0.001214	-0.797356	-0.576643	-0.178063
02560	9.652058	-0.036718	-1.742564	0.005051	0.001692	-0.004992	-0.145001	-0.103364	0.984018	-0.585821	0.810440	-0.001193	-0.797364	-0.576631	-0.178068
02561	9.632238	0.000836	-1.742654	0.007091	0.004037	-0.001962	-0.144993	-0.103344	0.984021	-0.585823	0.810438	-0.001206	-0.797363	-0.576637	-0.178049
02562	9.645868	-0.023858	-1.762077	0.007291	0.001358	-0.004973	-0.144989	-0.103363	0.984019	-0.585832	0.810432	-0.001189	-0.797358	-0.576643	-0.178057
02563	9.632320	0.001196	-1.742199	0.006006	0.002691	-0.000560	-0.144998	-0.103339	0.984021	-0.585825	0.810437	-0.001213	-0.797361	-0.576639	-0.178051
02564	9.684860	0.013351	-1.751062	0.004794	0.002199	-0.006808	-0.144976	-0.103369	0.984021	-0.585816	0.810443	-0.001174	-0.797372	-0.576625	-0.178050
02565	9.652288	-0.035445	-1.741315	0.007733	0.003371	-0.004170	-0.144959	-0.103370	0.984023	-0.585828	0.810435	-0.001165	-0.797366	-0.576637	-0.178037
02566	9.648200	0.010184	-1.771069	0.004408	0.002359	-0.002787	-0.144960	-0.103366	0.984023	-0.585810	0.810447	-0.001165	-0.797379	-0.576620	-0.178035
02567	9.636633	-0.043090	-1.711214	0.005307	0.001185	-0.003179	-0.144967	-0.103372	0.984022	-0.585800	0.810455	-0.001162	-0.797385	-0.576609	-0.178044
02568	9.663012	0.018652	-1.740464	0.008431	0.004877	-0.001553	-0.144955	-0.103343	0.984027	-0.585813	0.810445	-0.001181	-0.797378	-0.576627	-0.178017
02569	9.654615	-0.001870	-1.750319	0.004223	-0.000161	-0.001775	-0.144981	-0.103345	0.984023	-0.585793	0.810460	-0.001191	-0.797388	-0.576606	-0.178040
02570	9.638885	-0.009718	-1.720610	0.007290	0.001358	-0.004974	-0.144977	-0.103364	0.984021	-0.585801	0.810454	-0.001174	-0.797382	-0.576611	-0.178048
02571	9.646221	-0.021756	-1.760169	0.004794	0.002198	-0.006810	-0.144955	-0.103393	0.984021	-0.585792	0.810461	-0.001136	-0.797393	-0.576596	-0.178047
02572	9.646267	-0.021426	-1.759923	0.007988	0.002865	-0.002357	-0.144954	-0.103382	0.984023	-0.585802	0.810453	-0.001146	-0.797386	-0.576609	-0.178040
02573	9.652600	-0.033712	-1.739621	0.006648	0.002025	-0.002768	-0.144958	-0.103379	0.984022	-0.585801	0.810454	-0.001151	-0.797386	-0.576608	-0.178041
02574	9.649624	0.044897	-1.719619	0.005748	0.003198	-0.002377	-0.144954	-0.103367	0.984024	-0.585793	0.810460	-0.001157	-0.797392	-0.576603	-0.178031
02575	9.662165	-0.012936	-1.788725	0.009072	0.004211	-0.003762	-0.144934	-0.103359	0.984028	-0.585813	0.810445	-0.001156	-0.797381	-0.576624	-0.178010
02576	9.661181	-0.012604	-1.728727	0.006206	0.000012	-0.003571	-0.144949	-0.103375	0.984024	-0.585811	0.810447	-0.001152	-0.797380	-0.576619	-0.178032
02577	9.646497	-0.020633	-1.758671	0.007088	0.004039	-0.001967	-0.144940	-0.103354	0.984028	-0.585813	0.810445	-0.001164	-0.797380	-0.576625	-0.178012
02578	9.661249	-0.012178	-1.728350	0.004609	-0.000322	-0.005798	-0.144945	-0.103389	0.984023	-0.585801	0.810454	-0.001135	-0.797388	-0.576607	-0.178037
02579	9.648711	0.012807	-1.768263	0.004206	0.005039	0.000220	-0.145108	-0.103358	0.984002	-0.585736	0.810501	-0.001243	-0.797407	-0.576546	-0.178151
02580	9.683376	-0.016209	-1.737408	0.009529	0.001024	-0.004956	-0.145107	-0.103379	0.984000	-0.585762	0.810482	-0.001231	-0.797387	-0.576569	-0.178162
02581	9.626761	0.017568	-1.758221	0.006390	0.002531	-0.004586	-0.145097	-0.103388	0.984001	-0.585763	0.810482	-0.001218	-0.797389	-0.576568	-0.178159
02582	9.652998	-0.031904	-1.737444	0.005747	0.003199	-0.002379	-0.145093	-0.103376	0.984003	-0.585755	0.810487	-0.001224	-0.797395	-0.576562	-0.178149
02583	9.648891	0.013602	-1.767274	0.006647	0.002025	-0.002770	-0.145095	-0.103374	0.984003	-0.585756	0.810487	-0.001227	-0.797394	-0.576563	-0.178149
02584	9.661490	-0.010962	-1.727009	0.003966	0.000345	-0.003592	-0.145107	-0.103388	0.983999	-0.585736	0.810501	-0.001218	-0.797407	-0.576541	-0.178167
02585	9.646783	-0.018834	-1.757123	0.008188	0.000184	-0.005368	-0.145109	-0.103418	0.983996	-0.585753	0.810489	-0.001198	-0.797394	-0.576552	-0.178187
02586	9.655251	0.001893	-1.746807	0.004205	0.005040	0.000218	-0.145106	-0.103374	0.984001	-0.585729	0.810506	-0.001228	-0.797412	-0.576536	-0.178159
02587	9.653187	-0.031083	-1.736409	0.007986	0.002866	-0.002360	-0.145106	-0.103363	0.984002	-0.585739	0.810499	-0.001238	-0.797404	-0.576548	-0.178152
02588	9.655344	0.002244	-1.746295	0.006591	-0.000151	-0.007595	-0.145098	-0.103413	0.983998	-0.585746	0.810494	-0.001195	-0.797401	-0.576546	-0.178175
02589	9.646941	-0.017962	-1.756263	0.006646	0.002026	-0.002771	-0.145103	-0.103411	0.983998	-0.585746	0.810494	-0.001199	-0.797400	-0.576547	-0.178178
02590	9.646967	-0.017801	-1.756123	0.007545	0.000852	-0.003162	-0.145114	-0.103418	0.983995	-0.585754	0.810488	-0.001201	-0.797392	-0.576554	-0.178191
02591	9.633373	0.007287	-1.736354	0.006646	0.002026	-0.002772	-0.145118	-0.103416	0.983995	-0.585754	0.810488	-0.001205	-0.797391	-0.576554	-0.178193
02592	9.653304	-0.029802	-1.735785	0.003966	0.000345	-0.003593	-0.145130	-0.103430	0.983992	-0.585734	0.810503	-0.001197	-0.797404	-0.576531	-0.178211
02593	9.639722	-0.004632	-1.715938	0.009069	0.004212	-0.003768	-0.145111	-0.103423	0.983995	-0.585755	0.810487	-0.001195	-0.797392	-0.576554	-0.178191
02594	9.699608	-0.005109	-1.764392	0.007985	0.002867	-0.002362	-0.145110	-0.103413	0.983996	-0.585766	0.810479	-0.001206	-0.797384	-0.576566	-0.178184
02595	9.631399	-0.024684	-1.725485	0.002112	0.000514	-0.007636	-0.145097	-0.103459	0.983994	-0.585737	0.810500	-0.001153	-0.797408	-0.576529	-0.178201
02596	9.655586	0.004256	-1.744950	0.008242	0.002362	-0.000546	-0.145111	-0.103437	0.983994	-0.585747	0.810493	-0.001182	-0.797398	-0.576543	-0.178199
02597	9.655624	0.004287	-1.744738	0.006645	0.002026	-0.002773	-0.145113	-0.103434	0.983994	-0.585748	0.810493	-0.001186	-0.797397	-0.576544	-0.178200
02598	9.647260	-0.016103	-1.754526	0.007728	0.003372	-0.004180	-0.145098	-0.103436	0.983996	-0.585759	0.810485	-0.001178	-0.797392	-0.576555	-0.178188
02599	9.686168	0.020976	-1.743737	0.006645	0.002026	-0.002774	-0.145100	-0.103433	0.983996	-0.585758	0.810485	-0.001182	-0.797391	-0.576555	-0.178189
02600	9.653594	-0.028111	-1.734196	0.006021	-0.002507	-0.002558	-0.145141	-0.103455	0.983987	-0.585753	0.810488	-0.001187	-0.797388	-0.576546	-0.178235
02601	9.653643	-0.028091	-1.733926	0.007965	0.008069	-0.000373	-0.145109	-0.103399	0.983998	-0.585761	0.810483	-0.001216	-0.797388	-0.576564	-0.178176
02602	9.655843	0.004930	-1.743527	0.005305	0.001185	-0.003184	-0.145117	-0.103404	0.983996	-0.585751	0.810490	-0.001214	-0.797394	-0.576553	-0.178185
02603	9.647443	-0.015327	-1.753528	0.004608	-0.000325	-0.005801	-0.145123	-0.103440	0.983992	-0.585739	0.810499	-0.001185	-0.797401	-0.576534	-0.178211
02604	9.655872	0.005562	-1.743363	0.007984	0.002867	-0.002365	-0.145122	-0.103429	0.983993	-0.585750	0.810491	-0.001196	-0.797394	-0.576547	-0.178204
02605	9.639104	-0.035529	-1.763207	0.006644	0.002026	-0.002775	-0.145126	-0.103426	0.983993	-0.585749	0.810492	-0.001200	-0.797394	-0.576547	-0.178205
02606	9.649661	0.018189	-1.763028	0.006644	0.002026	-0.002775	-0.145129	-0.103424	0.983992	-0.585749	0.810491	-0.001204	-0.797393	-0.576548	-0.178206
02607	9.653875	-0.026885	-1.732653	0.006387	0.002531	-0.004592	-0.145116	-0.103434	0.983993	-0.585751	0.810490	-0.001189	-0.797394	-0.576548	-0.178201
02608	9.647619	-0.014258	-1.752570	0.005304	0.001185	-0.003185	-0.145123	-0.103440	0.983992	-0.585741	0.810497	-0.001186	-0.797400	-0.576537	-0.178211
02609	9.656042	0.006826	-1.742419	0.007673	0.001192	-0.009007	-0.145098	-0.103493	0.983990	-0.585758	0.810485	-0.001132	-0.797392	-0.576544	-0.178222
02610	9.647666	-0.013622	-1.752314	0.006514	0.001688	0.003065	-0.145139	-0.103445	0.983989	-0.585749	0.810491	-0.001193	-0.797391	-0.576544	-0.178227
02611	9.649803	0.019309	-1.762234	0.007286	0.001357	-0.004983	-0.145135	-0.103464	0.983987	-0.585757	0.810486	-0.001177	-0.797386	-0.576548	-0.178234
02612	9.656150	0.007161	-1.741817	0.006183	0.005214	-0.001587	-0.145120	-0.103433	0.983993	-0.585752	0.810490	-0.001192	-0.797393	-0.576548	-0.178204
02613	9.641544	-0.001051	-1.771504	0.007083	0.004041	-0.001977	-0.145112	-0.103413	0.983996	-0.585755	0.810487	-0.001205	-0.797392	-0.576556	-0.178186
02614	9.662567	-0.005105	-1.720999	0.006900	0.001523	-0.000960	-0.145130	-0.103399	0.983995	-0.585755	0.810487	-0.001227	-0.797389	-0.576558	-0.178192
02615	9.647907	-0.013214	-1.750992	0.007286	0.001357	-0.004984	-0.145127	-0.103419	0.983993	-0.585764	0.810481	-0.001211	-0.797383	-0.576563	-0.178201
02616	9.678396	0.003281	-1.750257	0.007082	0.004041	-0.001978	-0.145119	-0.103398	0.983997	-0.585766	0.810479	-0.001223	-0.797382	-0.576570	-0.178183
02617	9.654258	-0.025168	-1.730540	0.008003	-0.002335	-0.004356	-0.145148	-0.103433	0.983989	-0.585780	0.810470	-0.001215	-0.797367	-0.576577	-0.178227
02618	9.641686	-0.000310	-1.770728	0.007982	0.002868	-0.002369	-0.145147	-0.103423	0.983990	-0.585790	0.810462	-0.001225	-0.797360	-0.576589	-0.178220
02619	9.634358	0.012457	-1.730850	0.005303	0.001185	-0.003187	-0.145155	-0.103428	0.983988	-0.585780	0.810469	-0.001223	-0.797365	-0.576578	-0.178230
02620	9.655428	-0.024930	-1.789822	0.002604	0.004705	-0.002017	-0.145142	-0.103405	0.983993	-0.585747	0.810493	-0.001227	-0.797392	-0.576549	-0.178205
02621	9.664907	0.029149	-1.729764	0.008625	0.002198	-0.004576	-0.145132	-0.103416	0.983993	-0.585766	0.810479	-0.001216	-0.797380	-0.576566	-0.178204
02622	9.626109	-0.007629	-1.740076	0.006899	0.001523	-0.000961	-0.145150	-0.103402	0.983992	-0.585766	0.810479	-0.001239	-0.797377	-0.576568	-0.178211
02623	9.656588	0.008712	-1.739378	0.005742	0.003200	-0.002389	-0.145147	-0.103390	0.983993	-0.585759	0.810485	-0.001245	-0.797383	-0.576563	-0.178201
02624	9.626166	-0.007453	-1.739758	0.005121	-0.001333	-0.002169	-0.145181	-0.103402	0.983987	-0.585746	0.810494	-0.001253	-0.797386	-0.576548	-0.178236
02625	9.662930	-0.003457	-1.718963	0.009759	0.005725	-0.001163	-0.145164	-0.103366	0.983993	-0.585769	0.810477	-0.001278	-0.797372	-0.576578	-0.178201
02626	9.664060	-0.003621	-1.778502	0.002625	-0.000499	-0.004005	-0.145181	-0.103388	0.983989	-0.585739	0.810499	-0.001262	-0.797391	-0.576543	-0.178227
02627	9.648307	-0.011266	-1.748798	0.007285	0.001357	-0.004986	-0.145178	-0.103408	0.983987	-0.585747	0.810493	-0.001246	-0.797385	-0.576549	-0.178236
02628	9.648342	-0.010924	-1.748610	0.006385	0.002530	-0.004597	-0.145167	-0.103417	0.983988	-0.585748	0.810492	-0.001232	-0.797387	-0.576548	-0.178233
02629	9.654670	-0.023002	-1.728272	0.006641	0.002027	-0.002780	-0.145170	-0.103415	0.983987	-0.585748	0.810492	-0.001236	-0.797386	-0.576548	-0.178234
02630	9.670468	-0.014861	-1.757737	0.006641	0.002027	-0.002780	-0.145173	-0.103412	0.983987	-0.585749	0.810492	-0.001240	-0.797385	-0.576549	-0.178235
02631	9.634797	0.014572	-1.728388	0.005741	0.003200	-0.002391	-0.145169	-0.103401	0.983989	-0.585742	0.810496	-0.001245	-0.797391	-0.576545	-0.178225
02632	9.631776	-0.051471	-1.767527	0.005923	0.005718	-0.003411	-0.145139	-0.103382	0.983995	-0.585738	0.810500	-0.001242	-0.797399	-0.576543	-0.178190
02633	9.687407	0.026952	-1.736759	0.006203	0.000012	-0.003578	-0.145155	-0.103399	0.983991	-0.585736	0.810501	-0.001238	-0.797398	-0.576539	-0.178213
02634	9.618174	-0.026366	-1.747616	0.006511	0.001693	0.003062	-0.145195	-0.103351	0.983990	-0.585727	0.810507	-0.001299	-0.797397	-0.576538	-0.178217
02635	9.648640	-0.010052	-1.746970	0.002807	0.002019	-0.005026	-0.145185	-0.103367	0.983990	-0.585700	0.810527	-0.001274	-0.797419	-0.576508	-0.178218
02636	9.648675	-0.009758	-1.746775	0.006641	0.002027	-0.002781	-0.145188	-0.103364	0.983990	-0.585700	0.810527	-0.001278	-0.797418	-0.576508	-0.178220
02637	9.648726	-0.009526	-1.746498	0.005484	0.003703	-0.004210	-0.145170	-0.103365	0.983992	-0.585695	0.810531	-0.001265	-0.797425	-0.576503	-0.178206
02638	9.657147	0.011371	-1.736259	0.005302	0.001185	-0.003190	-0.145178	-0.103371	0.983991	-0.585685	0.810538	-0.001263	-0.797431	-0.576492	-0.178215
02639	9.620456	0.007488	-1.756703	0.004659	0.001856	-0.000982	-0.145193	-0.103356	0.983990	-0.585667	0.810551	-0.001280	-0.797442	-0.576476	-0.178219
02640	9.662466	-0.034039	-1.765683	0.006021	-0.002506	-0.002559	-0.145234	-0.103378	0.983982	-0.585662	0.810554	-0.001286	-0.797438	-0.576467	-0.178265
02641	9.665557	0.032307	-1.726071	0.007079	0.004043	-0.001984	-0.145228	-0.103358	0.983985	-0.585664	0.810553	-0.001299	-0.797438	-0.576473	-0.178248
02642	9.640485	-0.029214	-1.755759	0.006771	0.002360	-0.008625	-0.145194	-0.103401	0.983985	-0.585674	0.810546	-0.001245	-0.797436	-0.576475	-0.178246
02643	9.642617	0.004058	-1.765646	0.005997	0.002698	-0.000575	-0.145205	-0.103376	0.983986	-0.585665	0.810552	-0.001270	-0.797441	-0.576471	-0.178240
02644	9.670975	-0.012448	-1.754960	0.004864	-0.000831	-0.003988	-0.145224	-0.103400	0.983981	-0.585653	0.810561	-0.001259	-0.797446	-0.576454	-0.178269
02645	9.648939	-0.007923	-1.745327	0.007978	0.002870	-0.002375	-0.145223	-0.103390	0.983982	-0.585663	0.810554	-0.001269	-0.797439	-0.576466	-0.178262
02646	9.671058	-0.012154	-1.754509	0.004839	0.004374	-0.002005	-0.145212	-0.103368	0.983986	-0.585648	0.810565	-0.001277	-0.797452	-0.576455	-0.178241
02647	9.646974	-0.040631	-1.734528	0.006640	0.002027	-0.002783	-0.145217	-0.103366	0.983986	-0.585649	0.810564	-0.001281	-0.797451	-0.576456	-0.178244
02648	9.644891	0.037691	-1.774748	0.006640	0.002027	-0.002783	-0.145220	-0.103364	0.983985	-0.585649	0.810564	-0.001285	-0.797450	-0.576457	-0.178245
02649	9.662813	-0.032383	-1.763812	0.008878	0.001697	-0.002765	-0.145226	-0.103365	0.983984	-0.585668	0.810550	-0.001293	-0.797435	-0.576476	-0.178251
02650	9.627096	-0.002914	-1.734622	0.005301	0.001185	-0.003191	-0.145234	-0.103371	0.983982	-0.585658	0.810557	-0.001290	-0.797441	-0.576465	-0.178260
02651	9.671231	-0.011289	-1.753557	0.007283	0.001356	-0.004991	-0.145230	-0.103390	0.983981	-0.585667	0.810551	-0.001274	-0.797435	-0.576470	-0.178268
02652	9.655513	-0.018946	-1.723606	0.006820	0.004545	-0.003806	-0.145207	-0.103382	0.983985	-0.585670	0.810549	-0.001268	-0.797437	-0.576475	-0.178245
02653	9.627219	-0.002097	-1.733940	0.005301	0.001185	-0.003192	-0.145216	-0.103387	0.983984	-0.585660	0.810556	-0.001266	-0.797443	-0.576463	-0.178255
02654	9.663956	0.002123	-1.713187	0.006639	0.002028	-0.002784	-0.145219	-0.103385	0.983983	-0.585660	0.810556	-0.001270	-0.797442	-0.576464	-0.178256
02655	9.655627	-0.018372	-1.722975	0.006639	0.002028	-0.002785	-0.145223	-0.103383	0.983983	-0.585660	0.810555	-0.001274	-0.797441	-0.576465	-0.178258
02656	9.643122	0.006383	-1.762883	0.005919	0.005718	-0.003418	-0.145193	-0.103365	0.983989	-0.585656	0.810559	-0.001270	-0.797450	-0.576464	-0.178223
02657	9.641144	-0.026535	-1.752178	0.007770	0.005559	0.000626	-0.145188	-0.103315	0.983995	-0.585661	0.810555	-0.001309	-0.797447	-0.576477	-0.178190
02658	9.673687	0.022791	-1.761638	0.002625	-0.000501	-0.004007	-0.145204	-0.103337	0.983990	-0.585631	0.810577	-0.001294	-0.797466	-0.576443	-0.178216
02659	9.669555	-0.042856	-1.741195	0.007976	0.002871	-0.002378	-0.145202	-0.103327	0.983992	-0.585641	0.810569	-0.001304	-0.797459	-0.576456	-0.178209
02660	9.643326	0.006925	-1.761763	0.005044	0.001686	-0.005011	-0.145196	-0.103345	0.983991	-0.585632	0.810576	-0.001283	-0.797467	-0.576443	-0.178214
02661	9.643376	0.007155	-1.761487	0.007075	0.004044	-0.001990	-0.145187	-0.103325	0.983994	-0.585636	0.810573	-0.001295	-0.797466	-0.576450	-0.178195
02662	9.641363	-0.025696	-1.750983	0.007976	0.002871	-0.002379	-0.145186	-0.103314	0.983995	-0.585646	0.810566	-0.001305	-0.797458	-0.576463	-0.178189
02663	9.686477	-0.000873	-1.720108	0.005738	0.003201	-0.002398	-0.145182	-0.103302	0.983997	-0.585639	0.810571	-0.001312	-0.797464	-0.576457	-0.178178
02664	9.649814	-0.004686	-1.740493	0.007282	0.001356	-0.004994	-0.145178	-0.103321	0.983996	-0.585647	0.810565	-0.001295	-0.797459	-0.576463	-0.178186
02665	9.657284	-0.017193	-1.779871	0.007075	0.004044	-0.001991	-0.145170	-0.103301	0.983999	-0.585650	0.810563	-0.001308	-0.797458	-0.576469	-0.178168
02666	9.643644	0.007915	-1.760018	0.003499	0.003531	-0.002417	-0.145163	-0.103287	0.984002	-0.585625	0.810581	-0.001310	-0.797478	-0.576446	-0.178154
02667	9.641581	-0.024665	-1.749796	0.006408	-0.002677	-0.006585	-0.145182	-0.103343	0.983993	-0.585629	0.810578	-0.001276	-0.797472	-0.576440	-0.178202
02668	9.672009	-0.008106	-1.749282	0.005093	0.003874	-0.000191	-0.145185	-0.103309	0.983996	-0.585613	0.810590	-0.001302	-0.797483	-0.576430	-0.178185
02669	9.627936	0.000613	-1.729953	0.004400	0.002358	-0.002806	-0.145186	-0.103305	0.983996	-0.585596	0.810602	-0.001302	-0.797495	-0.576414	-0.178183
02670	9.650050	-0.003483	-1.739190	0.007718	0.003372	-0.004200	-0.145171	-0.103307	0.983999	-0.585607	0.810594	-0.001294	-0.797490	-0.576424	-0.178172
02671	9.650101	-0.003181	-1.738905	0.006381	0.002529	-0.004607	-0.145160	-0.103316	0.983999	-0.585608	0.810593	-0.001280	-0.797491	-0.576424	-0.178168
02672	9.648078	-0.035982	-1.728477	0.008231	0.002371	-0.000562	-0.145173	-0.103294	0.983999	-0.585618	0.810586	-0.001308	-0.797481	-0.576438	-0.178167
02673	9.663903	-0.027930	-1.757906	0.006381	0.002528	-0.004607	-0.145163	-0.103303	0.984000	-0.585619	0.810586	-0.001295	-0.797483	-0.576437	-0.178163
02674	9.641908	-0.023342	-1.748012	0.008154	0.005389	-0.003406	-0.145136	-0.103287	0.984006	-0.585632	0.810576	-0.001295	-0.797478	-0.576453	-0.178132
02675	9.658644	0.018256	-1.727851	0.002625	-0.000502	-0.004008	-0.145151	-0.103309	0.984001	-0.585603	0.810597	-0.001279	-0.797497	-0.576419	-0.178157
02676	9.657750	-0.015098	-1.777360	0.006249	0.002201	0.001238	-0.145177	-0.103274	0.984001	-0.585594	0.810603	-0.001322	-0.797498	-0.576417	-0.178157
02677	9.633681	-0.043682	-1.757326	0.006817	0.004545	-0.003813	-0.145154	-0.103265	0.984005	-0.585597	0.810601	-0.001316	-0.797500	-0.576421	-0.178134
02678	9.644146	0.010108	-1.757250	0.006637	0.002028	-0.002789	-0.145157	-0.103263	0.984005	-0.585597	0.810601	-0.001320	-0.797500	-0.576422	-0.178135
02679	9.656751	-0.014148	-1.716705	0.006380	0.002528	-0.004608	-0.145145	-0.103272	0.984006	-0.585598	0.810601	-0.001305	-0.797501	-0.576421	-0.178130
02680	9.666319	0.006191	-1.766178	0.008410	0.004889	-0.001589	-0.145132	-0.103243	0.984011	-0.585610	0.810592	-0.001324	-0.797494	-0.576439	-0.178103
02681	9.620131	-0.017866	-1.736920	0.005328	-0.004022	-0.005172	-0.145168	-0.103295	0.984000	-0.585603	0.810597	-0.001301	-0.797493	-0.576422	-0.178163
02682	9.672599	-0.005600	-1.746027	0.007973	0.002872	-0.002383	-0.145167	-0.103285	0.984001	-0.585613	0.810589	-0.001311	-0.797486	-0.576435	-0.178156
02683	9.666360	0.006977	-1.765949	0.004786	0.002184	-0.006835	-0.145146	-0.103315	0.984001	-0.585606	0.810595	-0.001272	-0.797495	-0.576422	-0.178156
02684	9.634831	-0.008588	-1.706375	0.005992	0.002702	-0.000583	-0.145157	-0.103291	0.984002	-0.585598	0.810601	-0.001297	-0.797499	-0.576418	-0.178151
02685	9.674780	0.027948	-1.755550	0.008873	0.001699	-0.002772	-0.145164	-0.103290	0.984001	-0.585614	0.810589	-0.001305	-0.797486	-0.576435	-0.178156
02686	9.627723	-0.029593	-1.775760	0.005299	0.001185	-0.003197	-0.145172	-0.103296	0.984000	-0.585604	0.810596	-0.001303	-0.797491	-0.576424	-0.178166
02687	9.657018	-0.012580	-1.715213	0.006171	0.005219	-0.001609	-0.145155	-0.103266	0.984005	-0.585600	0.810599	-0.001317	-0.797498	-0.576424	-0.178135
02688	9.650785	-0.000252	-1.735106	0.009774	0.000526	-0.003160	-0.145169	-0.103275	0.984002	-0.585626	0.810581	-0.001322	-0.797477	-0.576449	-0.178152
02689	9.636208	-0.008596	-1.765003	0.007071	0.004046	-0.001998	-0.145161	-0.103255	0.984005	-0.585628	0.810579	-0.001335	-0.797476	-0.576455	-0.178133
02690	9.675031	0.028565	-1.754156	0.008151	0.005389	-0.003412	-0.145134	-0.103239	0.984011	-0.585641	0.810569	-0.001336	-0.797471	-0.576472	-0.178102
02691	9.679330	-0.016508	-1.723359	0.005991	0.002703	-0.000584	-0.145145	-0.103214	0.984012	-0.585632	0.810576	-0.001361	-0.797476	-0.576467	-0.178096
02692	9.636402	-0.008230	-1.763946	0.005042	0.001684	-0.005017	-0.145138	-0.103232	0.984011	-0.585623	0.810582	-0.001340	-0.797484	-0.576454	-0.178101
02693	9.673134	-0.003748	-1.743061	0.005478	0.003701	-0.004224	-0.145119	-0.103231	0.984014	-0.585616	0.810587	-0.001327	-0.797492	-0.576447	-0.178086
02694	9.614425	-0.003339	-1.753933	0.008872	0.001700	-0.002774	-0.145125	-0.103231	0.984013	-0.585634	0.810574	-0.001335	-0.797478	-0.576466	-0.178090
02695	9.701582	-0.019872	-1.731851	0.005477	0.003701	-0.004225	-0.145107	-0.103231	0.984016	-0.585626	0.810580	-0.001323	-0.797487	-0.576458	-0.178076
02696	9.644935	0.013452	-1.752894	0.005734	0.003202	-0.002405	-0.145103	-0.103219	0.984018	-0.585619	0.810586	-0.001329	-0.797493	-0.576452	-0.178066
02697	9.665012	-0.023552	-1.751864	0.006378	0.002528	-0.004613	-0.145093	-0.103228	0.984018	-0.585618	0.810586	-0.001315	-0.797496	-0.576450	-0.178062
02698	9.631268	0.038973	-1.733016	0.005298	0.001185	-0.003198	-0.145100	-0.103234	0.984017	-0.585609	0.810593	-0.001312	-0.797501	-0.576439	-0.178072
02699	9.654699	-0.076587	-1.751245	0.007279	0.001355	-0.005001	-0.145096	-0.103254	0.984015	-0.585618	0.810586	-0.001295	-0.797496	-0.576445	-0.178080
02700	9.673419	-0.002135	-1.741485	0.006891	0.001530	-0.000973	-0.145114	-0.103240	0.984014	-0.585617	0.810587	-0.001318	-0.797493	-0.576447	-0.178086
02701	9.620973	-0.013988	-1.732287	0.005042	0.001683	-0.005019	-0.145109	-0.103257	0.984013	-0.585607	0.810594	-0.001298	-0.797501	-0.576433	-0.178092
02702	9.687221	-0.026750	-1.760632	0.005554	0.000686	-0.001379	-0.145131	-0.103251	0.984010	-0.585597	0.810602	-0.001314	-0.797505	-0.576424	-0.178107
02703	9.638857	0.027135	-1.771952	0.004397	0.002358	-0.002812	-0.145131	-0.103247	0.984011	-0.585578	0.810615	-0.001313	-0.797518	-0.576406	-0.178105
02704	9.641077	-0.050671	-1.731139	0.006199	0.000012	-0.003586	-0.145146	-0.103263	0.984007	-0.585576	0.810617	-0.001308	-0.797517	-0.576401	-0.178126
02705	9.659814	0.023754	-1.721230	0.005267	0.006393	-0.001228	-0.145124	-0.103223	0.984014	-0.585563	0.810626	-0.001326	-0.797531	-0.576394	-0.178085
02706	9.651559	0.003182	-1.730793	0.005298	0.001185	-0.003199	-0.145132	-0.103229	0.984012	-0.585553	0.810633	-0.001323	-0.797537	-0.576383	-0.178095
02707	9.665353	-0.021685	-1.750006	0.007970	0.002874	-0.002389	-0.145131	-0.103219	0.984014	-0.585564	0.810625	-0.001333	-0.797528	-0.576397	-0.178088
02708	9.645358	0.015878	-1.750543	0.004785	0.002181	-0.006841	-0.145109	-0.103249	0.984014	-0.585556	0.810631	-0.001294	-0.797539	-0.576382	-0.178088
02709	9.635043	-0.037288	-1.749990	0.008614	0.002199	-0.004597	-0.145101	-0.103260	0.984014	-0.585575	0.810617	-0.001283	-0.797526	-0.576400	-0.178088
02710	9.659198	-0.008468	-1.769517	0.004396	0.002358	-0.002813	-0.145101	-0.103256	0.984014	-0.585558	0.810630	-0.001283	-0.797539	-0.576383	-0.178086
02711	9.651770	0.004487	-1.729614	0.007068	0.004047	-0.002003	-0.145096	-0.103236	0.984017	-0.585561	0.810628	-0.001297	-0.797537	-0.576390	-0.178070
02712	9.665577	-0.020485	-1.748785	0.005553	0.000687	-0.001380	-0.145118	-0.103231	0.984014	-0.585550	0.810635	-0.001312	-0.797541	-0.576380	-0.178084
02713	9.651839	0.004727	-1.729231	0.006377	0.002527	-0.004616	-0.145106	-0.103241	0.984015	-0.585552	0.810634	-0.001297	-0.797542	-0.576380	-0.178081
02714	9.643573	-0.015761	-1.738888	0.007968	0.002875	-0.002391	-0.145105	-0.103231	0.984016	-0.585562	0.810626	-0.001307	-0.797534	-0.576393	-0.178074
02715	9.643622	-0.015739	-1.738618	0.005988	0.002705	-0.000589	-0.145115	-0.103207	0.984017	-0.585554	0.810632	-0.001331	-0.797539	-0.576388	-0.178068
02716	9.643661	-0.015564	-1.738406	0.005041	0.001682	-0.005022	-0.145108	-0.103225	0.984016	-0.585545	0.810639	-0.001310	-0.797547	-0.576376	-0.178073
02717	9.643701	-0.015320	-1.738185	0.007968	0.002875	-0.002392	-0.145107	-0.103215	0.984018	-0.585555	0.810632	-0.001320	-0.797540	-0.576388	-0.178066
02718	9.637453	-0.003065	-1.758212	0.005553	0.000687	-0.001380	-0.145129	-0.103209	0.984015	-0.585544	0.810639	-0.001336	-0.797543	-0.576378	-0.178081
02719	9.657544	-0.040112	-1.757186	0.005475	0.003700	-0.004231	-0.145112	-0.103209	0.984017	-0.585538	0.810644	-0.001324	-0.797551	-0.576371	-0.178067
02720	9.652124	0.005770	-1.727635	0.006888	0.001532	-0.000976	-0.145130	-0.103195	0.984016	-0.585537	0.810644	-0.001346	-0.797548	-0.576374	-0.178074
02721	9.657637	-0.039635	-1.756684	0.005863	0.003522	-0.008260	-0.145090	-0.103229	0.984019	-0.585540	0.810643	-0.001295	-0.797554	-0.576370	-0.178061
02722	9.659722	-0.006348	-1.766666	0.007967	0.002875	-0.002393	-0.145089	-0.103219	0.984020	-0.585550	0.810635	-0.001305	-0.797547	-0.576382	-0.178054
02723	9.637695	-0.001892	-1.756887	0.003494	0.003530	-0.002429	-0.145083	-0.103206	0.984022	-0.585525	0.810653	-0.001307	-0.797566	-0.576360	-0.178041
02724	9.681919	-0.010409	-1.775516	0.007967	0.002875	-0.002393	-0.145082	-0.103195	0.984023	-0.585536	0.810645	-0.001317	-0.797558	-0.576372	-0.178035
02725	9.659877	-0.006032	-1.765818	0.004651	0.001860	-0.000995	-0.145097	-0.103181	0.984023	-0.585519	0.810658	-0.001334	-0.797568	-0.576357	-0.178038
02726	9.658688	-0.005181	-1.705820	0.006375	0.002527	-0.004619	-0.145086	-0.103190	0.984023	-0.585520	0.810657	-0.001320	-0.797569	-0.576356	-0.178035
02727	9.637889	-0.001333	-1.755821	0.007065	0.004048	-0.002008	-0.145077	-0.103171	0.984027	-0.585523	0.810655	-0.001331	-0.797569	-0.576363	-0.178016
02728	9.666324	-0.017553	-1.744681	0.005218	0.004197	-0.006055	-0.145044	-0.103183	0.984030	-0.585516	0.810660	-0.001300	-0.797579	-0.576354	-0.177996
02729	9.647566	0.019186	-1.804917	0.005085	0.003879	-0.000205	-0.145048	-0.103149	0.984033	-0.585500	0.810671	-0.001327	-0.797591	-0.576344	-0.177980
02730	9.629779	-0.021484	-1.764692	0.005296	0.001184	-0.003203	-0.145055	-0.103155	0.984032	-0.585490	0.810679	-0.001324	-0.797597	-0.576333	-0.177989
02731	9.646410	0.020102	-1.744694	0.007966	0.002876	-0.002395	-0.145055	-0.103145	0.984033	-0.585500	0.810671	-0.001335	-0.797589	-0.576345	-0.177983
02732	9.680314	-0.041938	-1.762945	0.006375	0.002527	-0.004621	-0.145044	-0.103154	0.984033	-0.585501	0.810671	-0.001320	-0.797591	-0.576344	-0.177980
02733	9.646488	0.020591	-1.744257	0.005296	0.001184	-0.003203	-0.145052	-0.103161	0.984031	-0.585493	0.810677	-0.001318	-0.797595	-0.576334	-0.177990
02734	9.681172	-0.007925	-1.713039	0.007064	0.004049	-0.002009	-0.145044	-0.103141	0.984035	-0.585495	0.810675	-0.001330	-0.797595	-0.576340	-0.177972
02735	9.644572	-0.011950	-1.733372	0.006375	0.002527	-0.004621	-0.145033	-0.103151	0.984035	-0.585496	0.810675	-0.001315	-0.797597	-0.576339	-0.177969
02736	9.643802	-0.045433	-1.782817	0.007611	-0.002154	-0.000333	-0.145084	-0.103153	0.984027	-0.585500	0.810671	-0.001345	-0.797584	-0.576343	-0.178012
02737	9.674973	0.004552	-1.732826	0.007064	0.004049	-0.002010	-0.145075	-0.103133	0.984031	-0.585502	0.810670	-0.001356	-0.797584	-0.576349	-0.177993
02738	9.632107	0.012601	-1.773330	0.003492	0.003530	-0.002432	-0.145068	-0.103120	0.984033	-0.585477	0.810688	-0.001358	-0.797604	-0.576326	-0.177980
02739	9.674326	-0.028800	-1.781607	0.007965	0.002876	-0.002397	-0.145067	-0.103111	0.984034	-0.585489	0.810679	-0.001367	-0.797595	-0.576339	-0.177973
02740	9.622661	-0.007041	-1.722925	0.007276	0.001354	-0.005008	-0.145062	-0.103130	0.984033	-0.585497	0.810673	-0.001350	-0.797590	-0.576345	-0.177981
02741	9.664864	-0.048205	-1.731300	0.004138	0.002854	-0.004640	-0.145048	-0.103139	0.984034	-0.585480	0.810686	-0.001331	-0.797605	-0.576326	-0.177974
02742	9.684749	0.025661	-1.781402	0.006630	0.002030	-0.002801	-0.145051	-0.103137	0.984034	-0.585481	0.810685	-0.001334	-0.797604	-0.576326	-0.177976
02743	9.658662	-0.035596	-1.751125	0.005295	0.001184	-0.003205	-0.145057	-0.103144	0.984032	-0.585472	0.810692	-0.001330	-0.797610	-0.576316	-0.177985
02744	9.660676	-0.002668	-1.761450	0.006709	-0.000981	0.000053	-0.145101	-0.103136	0.984027	-0.585469	0.810694	-0.001362	-0.797604	-0.576314	-0.178016
02745	9.638612	0.001629	-1.751849	0.007063	0.004049	-0.002012	-0.145094	-0.103116	0.984030	-0.585472	0.810692	-0.001374	-0.797603	-0.576321	-0.177998
02746	9.682841	-0.006875	-1.770500	0.005295	0.001184	-0.003205	-0.145101	-0.103123	0.984028	-0.585462	0.810699	-0.001372	-0.797609	-0.576310	-0.178008
02747	9.638680	0.002058	-1.751475	0.007275	0.001353	-0.005010	-0.145097	-0.103142	0.984027	-0.585470	0.810693	-0.001355	-0.797604	-0.576314	-0.178015
02748	9.667099	-0.014109	-1.740414	0.006806	0.004545	-0.003835	-0.145074	-0.103134	0.984031	-0.585473	0.810691	-0.001349	-0.797606	-0.576319	-0.177992
02749	9.675425	0.006960	-1.730289	0.005940	0.000507	-0.005413	-0.145073	-0.103160	0.984028	-0.585470	0.810693	-0.001326	-0.797608	-0.576311	-0.178007
02750	9.636792	-0.029897	-1.740476	0.006629	0.002031	-0.002803	-0.145076	-0.103158	0.984028	-0.585470	0.810693	-0.001329	-0.797607	-0.576312	-0.178009
02751	9.653389	0.011727	-1.720523	0.006629	0.002031	-0.002803	-0.145080	-0.103157	0.984028	-0.585472	0.810692	-0.001333	-0.797606	-0.576314	-0.178011
02752	9.667240	-0.013154	-1.739636	0.004393	0.002357	-0.002821	-0.145081	-0.103153	0.984028	-0.585454	0.810705	-0.001333	-0.797618	-0.576296	-0.178009
02753	9.653439	0.012012	-1.720238	0.008688	-0.000811	-0.001752	-0.145113	-0.103160	0.984023	-0.585470	0.810693	-0.001350	-0.797601	-0.576311	-0.178039
02754	9.636922	-0.029357	-1.739766	0.008140	0.005392	-0.003434	-0.145086	-0.103143	0.984028	-0.585483	0.810683	-0.001350	-0.797596	-0.576328	-0.178007
02755	9.661056	-0.000580	-1.759365	0.007098	-0.001162	-0.003978	-0.145107	-0.103170	0.984022	-0.585489	0.810679	-0.001342	-0.797588	-0.576329	-0.178040
02756	9.645245	-0.008186	-1.729645	0.006628	0.002031	-0.002804	-0.145110	-0.103168	0.984022	-0.585489	0.810679	-0.001346	-0.797587	-0.576330	-0.178041
02757	9.667379	-0.012262	-1.738868	0.006372	0.002526	-0.004627	-0.145099	-0.103177	0.984023	-0.585490	0.810678	-0.001332	-0.797588	-0.576329	-0.178038
02758	9.669447	0.020805	-1.748860	0.006159	0.005223	-0.001631	-0.145083	-0.103147	0.984028	-0.585485	0.810682	-0.001346	-0.797595	-0.576329	-0.178008
02759	9.665494	-0.044795	-1.727870	0.006196	0.000011	-0.003593	-0.145099	-0.103164	0.984024	-0.585483	0.810683	-0.001341	-0.797594	-0.576324	-0.178030
02760	9.632877	0.016913	-1.769109	0.007706	0.003373	-0.004225	-0.145083	-0.103165	0.984026	-0.585494	0.810676	-0.001333	-0.797589	-0.576335	-0.178018
02761	9.657297	-0.065156	-1.737328	0.006884	0.001536	-0.000983	-0.145099	-0.103152	0.984025	-0.585495	0.810675	-0.001354	-0.797585	-0.576338	-0.178023
02762	9.632953	0.017378	-1.768688	0.006761	0.002343	-0.008658	-0.145066	-0.103196	0.984026	-0.585505	0.810668	-0.001300	-0.797584	-0.576340	-0.178022
02763	9.661390	0.001245	-1.757531	0.004178	0.005055	0.000173	-0.145061	-0.103153	0.984031	-0.585481	0.810685	-0.001328	-0.797602	-0.576324	-0.177993
02764	9.673299	-0.056600	-1.766044	0.007706	0.003373	-0.004226	-0.145046	-0.103154	0.984033	-0.585492	0.810677	-0.001319	-0.797597	-0.576335	-0.177981
02765	9.639431	0.005830	-1.747329	0.007059	0.004051	-0.002018	-0.145037	-0.103134	0.984037	-0.585494	0.810676	-0.001331	-0.797597	-0.576341	-0.177962
02766	9.665846	-0.043324	-1.725942	0.006195	0.000011	-0.003594	-0.145051	-0.103150	0.984033	-0.585492	0.810677	-0.001327	-0.797596	-0.576336	-0.177983
02767	9.653306	-0.018879	-1.766386	0.007529	0.000858	-0.003191	-0.145064	-0.103157	0.984030	-0.585499	0.810672	-0.001330	-0.797589	-0.576341	-0.177997
02768	9.667898	-0.009941	-1.735997	0.006547	0.005040	-0.005665	-0.145026	-0.103160	0.984035	-0.585503	0.810670	-0.001305	-0.797593	-0.576344	-0.177969
02769	9.661673	0.002197	-1.755973	0.007395	0.000548	0.002662	-0.145072	-0.103122	0.984033	-0.585500	0.810671	-0.001363	-0.797586	-0.576349	-0.177983
02770	9.645862	-0.005680	-1.726209	0.005293	0.001184	-0.003209	-0.145079	-0.103128	0.984031	-0.585490	0.810678	-0.001361	-0.797592	-0.576338	-0.177993
02771	9.661696	0.002462	-1.755849	0.004605	-0.000341	-0.005819	-0.145084	-0.103163	0.984026	-0.585478	0.810687	-0.001332	-0.797600	-0.576319	-0.178018
02772	9.653474	-0.018047	-1.765481	0.008392	0.004898	-0.001618	-0.145072	-0.103135	0.984031	-0.585491	0.810678	-0.001350	-0.797593	-0.576337	-0.177991
02773	9.661786	0.002800	-1.755351	0.007529	0.000858	-0.003192	-0.145082	-0.103143	0.984029	-0.585498	0.810672	-0.001352	-0.797586	-0.576343	-0.178004
02774	9.661808	0.003087	-1.755228	0.005037	0.001678	-0.005033	-0.145075	-0.103161	0.984028	-0.585489	0.810679	-0.001331	-0.797594	-0.576331	-0.178009
02775	9.653576	-0.017292	-1.764931	0.007272	0.001353	-0.005016	-0.145070	-0.103182	0.984026	-0.585498	0.810672	-0.001313	-0.797588	-0.576336	-0.178017
02776	9.668152	-0.008516	-1.734592	0.007314	0.003557	-0.000198	-0.145077	-0.103150	0.984029	-0.585500	0.810671	-0.001343	-0.797585	-0.576344	-0.178004
02777	9.668205	-0.008401	-1.734298	0.006370	0.002525	-0.004632	-0.145066	-0.103160	0.984029	-0.585501	0.810670	-0.001328	-0.797586	-0.576343	-0.178001
02778	9.647448	-0.004743	-1.784391	0.007960	0.002879	-0.002407	-0.145065	-0.103150	0.984031	-0.585512	0.810663	-0.001338	-0.797579	-0.576356	-0.177994
02779	9.637942	-0.024600	-1.734183	0.005980	0.002710	-0.000601	-0.144983	-0.103372	0.984019	-0.585692	0.810533	-0.001148	-0.797461	-0.576499	-0.178058
02780	9.641258	0.007650	-1.804198	0.005683	0.000999	-0.007242	-0.144969	-0.103412	0.984017	-0.585691	0.810533	-0.001106	-0.797464	-0.576491	-0.178069
02781	9.660123	-0.028307	-1.743182	0.007057	0.004052	-0.002023	-0.144962	-0.103392	0.984020	-0.585694	0.810532	-0.001119	-0.797464	-0.576497	-0.178052
02782	9.662149	0.004696	-1.753346	0.005292	0.001184	-0.003211	-0.144969	-0.103398	0.984019	-0.585684	0.810539	-0.001116	-0.797470	-0.576486	-0.178062
02783	9.631814	-0.011531	-1.753648	0.005292	0.001184	-0.003211	-0.144976	-0.103405	0.984017	-0.585675	0.810545	-0.001112	-0.797475	-0.576475	-0.178071
02784	9.644391	-0.035510	-1.712957	0.004390	0.002357	-0.002827	-0.144976	-0.103402	0.984017	-0.585658	0.810558	-0.001111	-0.797488	-0.576458	-0.178069
02785	9.654006	-0.015511	-1.762589	0.007056	0.004052	-0.002024	-0.144968	-0.103382	0.984021	-0.585661	0.810555	-0.001123	-0.797487	-0.576466	-0.178051
02786	9.633925	0.021808	-1.763340	0.005292	0.001184	-0.003212	-0.144976	-0.103388	0.984019	-0.585652	0.810562	-0.001120	-0.797492	-0.576455	-0.178061
02787	9.668598	-0.006402	-1.732114	0.007271	0.001352	-0.005018	-0.144971	-0.103410	0.984017	-0.585661	0.810555	-0.001102	-0.797486	-0.576461	-0.178070
02788	9.609908	-0.006319	-1.743136	0.007312	0.003559	-0.000201	-0.144977	-0.103378	0.984020	-0.585663	0.810554	-0.001132	-0.797484	-0.576469	-0.178056
02789	9.682545	-0.031218	-1.750874	0.005036	0.001677	-0.005036	-0.144970	-0.103397	0.984019	-0.585655	0.810560	-0.001111	-0.797491	-0.576457	-0.178061
02790	9.648604	0.031349	-1.732353	0.009035	0.004221	-0.003832	-0.144949	-0.103391	0.984022	-0.585676	0.810544	-0.001109	-0.797479	-0.576479	-0.178041
02791	9.652312	-0.047190	-1.750639	0.005722	0.003205	-0.002427	-0.144946	-0.103379	0.984024	-0.585669	0.810549	-0.001114	-0.797485	-0.576474	-0.178032
02792	9.670819	0.027350	-1.741162	0.006625	0.002032	-0.002811	-0.144949	-0.103377	0.984024	-0.585669	0.810549	-0.001117	-0.797484	-0.576475	-0.178033
02793	9.632264	-0.009629	-1.751186	0.006369	0.002525	-0.004635	-0.144938	-0.103389	0.984024	-0.585673	0.810547	-0.001102	-0.797484	-0.576476	-0.178031
02794	9.666943	-0.037867	-1.719913	0.009762	0.000534	-0.003179	-0.144951	-0.103399	0.984021	-0.585698	0.810528	-0.001107	-0.797463	-0.576500	-0.178047
02795	9.648823	0.032178	-1.731116	0.004173	0.005057	0.000165	-0.144947	-0.103355	0.984027	-0.585675	0.810545	-0.001136	-0.797480	-0.576485	-0.178018
02796	9.660777	-0.025630	-1.739599	0.007271	0.001352	-0.005020	-0.144942	-0.103375	0.984025	-0.585684	0.810539	-0.001119	-0.797475	-0.576490	-0.178026
02797	9.660800	-0.025342	-1.739475	0.005291	0.001184	-0.003213	-0.144949	-0.103382	0.984023	-0.585675	0.810545	-0.001115	-0.797480	-0.576479	-0.178036
02798	9.646954	-0.000149	-1.720109	0.006880	0.001539	-0.000989	-0.144967	-0.103368	0.984022	-0.585675	0.810545	-0.001137	-0.797477	-0.576482	-0.178043
02799	9.669091	-0.004421	-1.729362	0.008859	0.001707	-0.002796	-0.144973	-0.103368	0.984021	-0.585693	0.810533	-0.001145	-0.797463	-0.576500	-0.178048
02800	9.640745	0.012124	-1.740031	0.004389	0.002357	-0.002830	-0.144974	-0.103365	0.984022	-0.585675	0.810545	-0.001144	-0.797476	-0.576483	-0.178046
02801	9.660908	-0.024894	-1.738878	0.004214	-0.000157	-0.001791	-0.145001	-0.103368	0.984017	-0.585656	0.810559	-0.001154	-0.797484	-0.576463	-0.178070
02802	9.662905	0.008160	-1.749164	0.005465	0.003697	-0.004253	-0.144983	-0.103368	0.984020	-0.585649	0.810564	-0.001141	-0.797493	-0.576456	-0.178055
02803	9.670553	-0.004538	-1.788422	0.007270	0.001352	-0.005022	-0.144979	-0.103388	0.984018	-0.585658	0.810558	-0.001124	-0.797487	-0.576461	-0.178064
02804	9.638914	-0.019925	-1.728830	0.009545	0.003236	-0.000188	-0.144988	-0.103358	0.984020	-0.585678	0.810543	-0.001159	-0.797471	-0.576487	-0.178053
02805	9.663027	0.008636	-1.748487	0.005291	0.001184	-0.003215	-0.144994	-0.103364	0.984019	-0.585669	0.810550	-0.001155	-0.797476	-0.576477	-0.178062
02806	9.638971	-0.019691	-1.728515	0.007526	0.000859	-0.003198	-0.145004	-0.103372	0.984016	-0.585677	0.810544	-0.001156	-0.797469	-0.576483	-0.178075
02807	9.647240	0.001321	-1.718499	0.007700	0.003373	-0.004238	-0.144989	-0.103375	0.984018	-0.585688	0.810536	-0.001147	-0.797463	-0.576494	-0.178064
02808	9.654882	-0.011590	-1.757815	0.007781	0.000367	-0.001374	-0.145014	-0.103371	0.984015	-0.585695	0.810530	-0.001167	-0.797453	-0.576502	-0.178082
02809	9.663152	0.009231	-1.747792	0.007053	0.004053	-0.002031	-0.145004	-0.103351	0.984018	-0.585698	0.810528	-0.001178	-0.797453	-0.576509	-0.178063
02810	9.654968	-0.011411	-1.757347	0.005290	0.001184	-0.003215	-0.145012	-0.103358	0.984017	-0.585688	0.810535	-0.001175	-0.797459	-0.576498	-0.178072
02811	9.669495	-0.002699	-1.727106	0.008467	0.001897	0.001234	-0.145041	-0.103324	0.984016	-0.585698	0.810529	-0.001222	-0.797447	-0.576513	-0.178076
02812	9.639185	-0.019031	-1.727329	0.007013	0.001843	-0.006848	-0.145022	-0.103356	0.984015	-0.585707	0.810522	-0.001187	-0.797444	-0.576517	-0.178080
02813	9.669565	-0.002122	-1.726714	0.006366	0.002524	-0.004640	-0.145010	-0.103366	0.984016	-0.585708	0.810521	-0.001172	-0.797445	-0.576516	-0.178076
02814	9.646881	-0.031410	-1.766386	0.006622	0.002032	-0.002816	-0.145013	-0.103365	0.984016	-0.585709	0.810521	-0.001175	-0.797444	-0.576517	-0.178078
02815	9.655154	-0.010474	-1.756330	0.005720	0.003205	-0.002433	-0.145008	-0.103354	0.984018	-0.585703	0.810525	-0.001180	-0.797449	-0.576513	-0.178067
02816	9.633085	-0.006010	-1.746679	0.006622	0.002032	-0.002816	-0.145012	-0.103352	0.984017	-0.585704	0.810525	-0.001184	-0.797448	-0.576514	-0.178069
02817	9.655233	-0.010193	-1.755895	0.008857	0.001708	-0.002800	-0.145018	-0.103353	0.984016	-0.585723	0.810511	-0.001191	-0.797433	-0.576533	-0.178075
02818	9.633158	-0.005770	-1.746277	0.007954	0.002881	-0.002417	-0.145017	-0.103343	0.984017	-0.585733	0.810503	-0.001201	-0.797425	-0.576546	-0.178068
02819	9.661613	-0.022125	-1.734996	0.004170	0.005059	0.000158	-0.145014	-0.103300	0.984022	-0.585710	0.810520	-0.001229	-0.797442	-0.576530	-0.178041
02820	9.663604	0.010886	-1.745281	0.006839	-0.000671	-0.005809	-0.145021	-0.103338	0.984017	-0.585717	0.810515	-0.001203	-0.797436	-0.576530	-0.178069
02821	9.631319	-0.038095	-1.735157	0.005290	0.001184	-0.003217	-0.145028	-0.103345	0.984016	-0.585708	0.810521	-0.001199	-0.797442	-0.576520	-0.178078
02822	9.649165	0.002668	-1.775085	0.009029	0.004221	-0.003843	-0.145007	-0.103339	0.984019	-0.585729	0.810506	-0.001197	-0.797430	-0.576542	-0.178058
02823	9.655490	-0.009181	-1.754487	0.006621	0.002032	-0.002818	-0.145009	-0.103337	0.984019	-0.585729	0.810506	-0.001200	-0.797430	-0.576543	-0.178058
02824	9.633391	-0.004665	-1.744996	0.006192	0.000011	-0.003601	-0.145024	-0.103353	0.984015	-0.585727	0.810508	-0.001195	-0.797428	-0.576538	-0.178080
02825	9.657458	0.024156	-1.764888	0.008171	0.000178	-0.005410	-0.145027	-0.103383	0.984012	-0.585743	0.810496	-0.001176	-0.797416	-0.576549	-0.178100
02826	9.655516	-0.008487	-1.754351	0.007780	0.000369	-0.001377	-0.145052	-0.103379	0.984008	-0.585751	0.810490	-0.001196	-0.797406	-0.576557	-0.178118
02827	9.633433	-0.004013	-1.744764	0.005462	0.003696	-0.004261	-0.145033	-0.103379	0.984011	-0.585743	0.810496	-0.001183	-0.797415	-0.576549	-0.178103
02828	9.661856	-0.020269	-1.733664	0.005801	0.000202	0.000432	-0.145070	-0.103362	0.984008	-0.585732	0.810504	-0.001217	-0.797416	-0.576541	-0.178122
02829	9.625282	-0.024735	-1.754196	0.005718	0.003205	-0.002436	-0.145066	-0.103350	0.984009	-0.585724	0.810510	-0.001222	-0.797423	-0.576535	-0.178112
02830	9.678367	0.021455	-1.713638	0.007952	0.002882	-0.002420	-0.145065	-0.103340	0.984011	-0.585734	0.810502	-0.001231	-0.797416	-0.576547	-0.178105
02831	9.631652	-0.036497	-1.733343	0.004386	0.002356	-0.002836	-0.145065	-0.103337	0.984011	-0.585717	0.810515	-0.001230	-0.797429	-0.576530	-0.178103
02832	9.677864	-0.012121	-1.762483	0.007523	0.000860	-0.003203	-0.145075	-0.103345	0.984009	-0.585725	0.810509	-0.001232	-0.797421	-0.576537	-0.178116
02833	9.662064	-0.019583	-1.732514	0.004559	0.004869	-0.003879	-0.145050	-0.103336	0.984013	-0.585711	0.810519	-0.001221	-0.797435	-0.576525	-0.178091
02834	9.653892	-0.040073	-1.742082	0.002626	-0.000515	-0.004017	-0.145066	-0.103358	0.984009	-0.585682	0.810540	-0.001206	-0.797454	-0.576491	-0.178117
02835	9.664085	0.013829	-1.742596	0.008124	0.005395	-0.003464	-0.145039	-0.103343	0.984014	-0.585695	0.810530	-0.001205	-0.797449	-0.576507	-0.178086
02836	9.631873	-0.035282	-1.732141	0.005288	0.001183	-0.003219	-0.145046	-0.103350	0.984012	-0.585686	0.810537	-0.001202	-0.797455	-0.576496	-0.178096
02837	9.664170	0.014223	-1.742124	0.006620	0.002033	-0.002821	-0.145051	-0.103348	0.984012	-0.585685	0.810538	-0.001206	-0.797454	-0.576496	-0.178098
02838	9.647809	-0.027286	-1.761380	0.007048	0.004055	-0.002039	-0.145042	-0.103328	0.984015	-0.585688	0.810536	-0.001218	-0.797454	-0.576502	-0.178080
02839	9.668618	-0.030316	-1.710624	0.007695	0.003373	-0.004248	-0.145026	-0.103330	0.984017	-0.585699	0.810528	-0.001209	-0.797449	-0.576513	-0.178068
02840	9.649842	0.005966	-1.771395	0.006191	0.000011	-0.003603	-0.145041	-0.103347	0.984014	-0.585697	0.810529	-0.001204	-0.797447	-0.576508	-0.178089
02841	9.662430	-0.017952	-1.730491	0.009710	0.005754	-0.001242	-0.145024	-0.103311	0.984020	-0.585719	0.810514	-0.001228	-0.797434	-0.576537	-0.178055
02842	9.664446	0.014932	-1.740586	0.003482	0.003529	-0.002455	-0.145017	-0.103297	0.984022	-0.585693	0.810532	-0.001230	-0.797454	-0.576514	-0.178042
02843	9.648098	-0.026495	-1.759806	0.009929	0.003049	-0.004233	-0.145004	-0.103301	0.984024	-0.585722	0.810511	-0.001225	-0.797436	-0.576542	-0.178033
02844	9.640509	-0.013116	-1.719979	0.006792	0.004545	-0.003866	-0.144981	-0.103293	0.984028	-0.585725	0.810509	-0.001219	-0.797438	-0.576546	-0.178010
02845	9.656425	-0.005228	-1.749352	0.006619	0.002033	-0.002822	-0.144984	-0.103291	0.984028	-0.585726	0.810508	-0.001222	-0.797436	-0.576548	-0.178011
02846	9.642005	-0.013904	-1.779182	0.005716	0.003206	-0.002440	-0.144980	-0.103280	0.984030	-0.585719	0.810514	-0.001227	-0.797442	-0.576542	-0.178001
02847	9.678643	-0.009253	-1.758218	0.006619	0.002033	-0.002823	-0.144982	-0.103279	0.984029	-0.585719	0.810513	-0.001230	-0.797442	-0.576543	-0.178002
02848	9.634440	-0.000382	-1.739197	0.005460	0.003695	-0.004266	-0.144964	-0.103279	0.984032	-0.585712	0.810518	-0.001217	-0.797450	-0.576536	-0.177987
02849	9.642137	-0.013250	-1.778472	0.006191	0.000011	-0.003604	-0.144979	-0.103296	0.984028	-0.585710	0.810520	-0.001212	-0.797449	-0.576530	-0.178010
02850	9.673015	0.037323	-1.728737	0.005971	0.002716	-0.000615	-0.144990	-0.103272	0.984029	-0.585702	0.810526	-0.001236	-0.797453	-0.576527	-0.178005
02851	9.626352	-0.020735	-1.748369	0.009928	0.003050	-0.004235	-0.144978	-0.103275	0.984030	-0.585730	0.810505	-0.001232	-0.797435	-0.576555	-0.177997
02852	9.650475	0.008005	-1.767936	0.006790	0.004545	-0.003869	-0.144955	-0.103268	0.984035	-0.585733	0.810503	-0.001226	-0.797436	-0.576559	-0.177973
02853	9.663072	-0.015844	-1.726920	0.003737	0.003039	-0.000631	-0.144963	-0.103242	0.984036	-0.585707	0.810522	-0.001246	-0.797454	-0.576538	-0.177965
02854	9.642406	-0.012563	-1.777017	0.007693	0.003372	-0.004252	-0.144947	-0.103244	0.984038	-0.585718	0.810514	-0.001237	-0.797449	-0.576549	-0.177954
02855	9.628499	0.012837	-1.757734	0.006191	0.000011	-0.003605	-0.144961	-0.103260	0.984034	-0.585716	0.810515	-0.001232	-0.797448	-0.576544	-0.177974
02856	9.668947	-0.061172	-1.755095	0.006790	0.004545	-0.003870	-0.144938	-0.103253	0.984039	-0.585720	0.810513	-0.001225	-0.797449	-0.576548	-0.177951
02857	9.656973	-0.002968	-1.746332	0.006190	0.000011	-0.003605	-0.144953	-0.103268	0.984035	-0.585716	0.810515	-0.001220	-0.797449	-0.576542	-0.177972
02858	9.642545	-0.011652	-1.776272	0.007948	0.002884	-0.002427	-0.144951	-0.103258	0.984036	-0.585727	0.810508	-0.001230	-0.797442	-0.576555	-0.177965
02859	9.679177	-0.007092	-1.755283	0.005970	0.002717	-0.000617	-0.144962	-0.103235	0.984037	-0.585719	0.810514	-0.001253	-0.797446	-0.576550	-0.177961
02860	9.622421	0.025581	-1.777034	0.005287	0.001183	-0.003223	-0.144970	-0.103242	0.984035	-0.585709	0.810521	-0.001250	-0.797452	-0.576539	-0.177971
02861	9.685497	-0.018902	-1.734645	0.009107	0.001222	-0.000983	-0.144990	-0.103230	0.984033	-0.585727	0.810508	-0.001276	-0.797435	-0.576560	-0.177980
02862	9.635018	0.001923	-1.735995	0.005203	0.004183	-0.006096	-0.144956	-0.103242	0.984037	-0.585721	0.810512	-0.001245	-0.797445	-0.576551	-0.177960
02863	9.655283	-0.034872	-1.734465	0.006617	0.002033	-0.002826	-0.144959	-0.103241	0.984037	-0.585721	0.810512	-0.001247	-0.797445	-0.576551	-0.177962
02864	9.659167	0.031078	-1.755402	0.006106	0.003011	-0.006479	-0.144933	-0.103263	0.984038	-0.585722	0.810511	-0.001214	-0.797448	-0.576549	-0.177954
02865	9.649092	-0.022185	-1.754408	0.006190	0.000011	-0.003606	-0.144948	-0.103279	0.984034	-0.585719	0.810513	-0.001209	-0.797448	-0.576543	-0.177975
02866	9.651014	0.010808	-1.764975	0.009754	0.000539	-0.003193	-0.144961	-0.103289	0.984031	-0.585745	0.810494	-0.001214	-0.797426	-0.576568	-0.177991
02867	9.663572	-0.013077	-1.724143	0.005969	0.002718	-0.000618	-0.144970	-0.103266	0.984032	-0.585738	0.810499	-0.001237	-0.797430	-0.576565	-0.177986
02868	9.663631	-0.013060	-1.723815	0.007044	0.004057	-0.002048	-0.144962	-0.103247	0.984036	-0.585741	0.810497	-0.001249	-0.797429	-0.576571	-0.177967
02869	9.649233	-0.021790	-1.753638	0.005286	0.001183	-0.003225	-0.144969	-0.103254	0.984034	-0.585732	0.810504	-0.001245	-0.797435	-0.576560	-0.177977
02870	9.642998	-0.009642	-1.773823	0.006616	0.002034	-0.002827	-0.144972	-0.103252	0.984034	-0.585732	0.810504	-0.001248	-0.797434	-0.576561	-0.177978
02871	9.657476	-0.000603	-1.743549	0.006616	0.002034	-0.002828	-0.144975	-0.103251	0.984033	-0.585732	0.810503	-0.001251	-0.797433	-0.576562	-0.177980
02872	9.663784	-0.012363	-1.722960	0.009924	0.003051	-0.004242	-0.144961	-0.103255	0.984035	-0.585761	0.810483	-0.001246	-0.797415	-0.576590	-0.177971
02873	9.635425	0.004017	-1.733730	0.006872	0.001546	-0.001001	-0.144977	-0.103241	0.984034	-0.585760	0.810484	-0.001267	-0.797412	-0.576591	-0.177977
02874	9.677819	-0.037065	-1.741631	0.006752	0.002325	-0.008690	-0.144944	-0.103286	0.984034	-0.585770	0.810476	-0.001213	-0.797411	-0.576594	-0.177975
02875	9.651360	0.012472	-1.763071	0.005286	0.001183	-0.003226	-0.144951	-0.103292	0.984032	-0.585761	0.810483	-0.001209	-0.797416	-0.576583	-0.177985
02876	9.647587	-0.052857	-1.741601	0.005457	0.003694	-0.004274	-0.144933	-0.103293	0.984035	-0.585754	0.810488	-0.001196	-0.797425	-0.576576	-0.177971
02877	9.650022	0.014209	-1.702748	0.007946	0.002885	-0.002432	-0.144931	-0.103284	0.984036	-0.585766	0.810479	-0.001206	-0.797417	-0.576590	-0.177964
02878	9.663556	-0.044859	-1.770776	0.005286	0.001183	-0.003226	-0.144939	-0.103290	0.984035	-0.585756	0.810486	-0.001203	-0.797422	-0.576579	-0.177973
02879	9.679943	-0.003013	-1.751069	0.007042	0.004058	-0.002051	-0.144930	-0.103270	0.984038	-0.585758	0.810485	-0.001214	-0.797423	-0.576584	-0.177955
02880	9.621281	-0.003143	-1.762198	0.005285	0.001183	-0.003226	-0.144937	-0.103277	0.984036	-0.585748	0.810492	-0.001211	-0.797429	-0.576573	-0.177965
02881	9.664146	-0.010215	-1.720940	0.006360	0.002522	-0.004657	-0.144926	-0.103288	0.984037	-0.585750	0.810491	-0.001196	-0.797429	-0.576572	-0.177962
02882	9.665652	-0.011411	-1.780374	0.008627	0.004421	0.000172	-0.144928	-0.103248	0.984041	-0.585762	0.810482	-0.001232	-0.797420	-0.576592	-0.177940
02883	9.642103	-0.005654	-1.711063	0.004603	-0.000353	-0.005832	-0.144931	-0.103285	0.984036	-0.585752	0.810489	-0.001202	-0.797427	-0.576575	-0.177964
02884	9.680158	-0.002093	-1.749882	0.008371	0.004909	-0.001656	-0.144918	-0.103257	0.984041	-0.585765	0.810480	-0.001220	-0.797420	-0.576593	-0.177937
02885	9.629231	-0.015630	-1.800319	0.005967	0.002719	-0.000622	-0.144928	-0.103234	0.984042	-0.585757	0.810486	-0.001243	-0.797424	-0.576589	-0.177932
02886	9.658119	0.002294	-1.739983	0.005285	0.001183	-0.003227	-0.144935	-0.103240	0.984040	-0.585747	0.810493	-0.001240	-0.797430	-0.576578	-0.177942
02887	9.672128	-0.022597	-1.758861	0.006359	0.002521	-0.004658	-0.144925	-0.103250	0.984041	-0.585747	0.810493	-0.001225	-0.797432	-0.576576	-0.177939
02888	9.621639	-0.001659	-1.760246	0.009666	0.003538	-0.006074	-0.144897	-0.103266	0.984043	-0.585776	0.810472	-0.001202	-0.797415	-0.576603	-0.177926
02889	9.656349	-0.029639	-1.728621	0.006870	0.001547	-0.001004	-0.144915	-0.103253	0.984042	-0.585777	0.810471	-0.001223	-0.797411	-0.576606	-0.177933
02890	9.658293	0.003298	-1.739014	0.005455	0.003694	-0.004278	-0.144896	-0.103254	0.984045	-0.585770	0.810476	-0.001210	-0.797420	-0.576599	-0.177918
02891	9.636171	0.007832	-1.729563	0.005115	-0.001328	-0.002178	-0.144928	-0.103267	0.984039	-0.585758	0.810485	-0.001216	-0.797423	-0.576585	-0.177951
02892	9.650173	-0.017144	-1.748511	0.007688	0.003373	-0.004263	-0.144912	-0.103269	0.984041	-0.585769	0.810477	-0.001207	-0.797418	-0.576596	-0.177940
02893	9.650228	-0.016816	-1.748210	0.004125	0.002842	-0.004675	-0.144897	-0.103278	0.984042	-0.585754	0.810488	-0.001187	-0.797432	-0.576578	-0.177933
02894	9.680570	0.000004	-1.747600	0.006614	0.002035	-0.002832	-0.144900	-0.103277	0.984042	-0.585754	0.810488	-0.001190	-0.797431	-0.576579	-0.177935
02895	9.628174	-0.012087	-1.738386	0.005710	0.003207	-0.002451	-0.144896	-0.103265	0.984043	-0.585746	0.810494	-0.001196	-0.797437	-0.576573	-0.177925
02896	9.650346	-0.016211	-1.747564	0.006188	0.000010	-0.003610	-0.144911	-0.103281	0.984040	-0.585744	0.810495	-0.001191	-0.797436	-0.576568	-0.177946
02897	9.652260	0.016863	-1.758102	0.006358	0.002521	-0.004661	-0.144900	-0.103291	0.984040	-0.585744	0.810496	-0.001176	-0.797439	-0.576566	-0.177943
02898	9.672561	-0.020016	-1.756510	0.007943	0.002886	-0.002437	-0.144898	-0.103282	0.984041	-0.585754	0.810488	-0.001185	-0.797431	-0.576578	-0.177936
02899	9.642314	-0.036546	-1.756609	0.005965	0.002721	-0.000625	-0.144909	-0.103258	0.984042	-0.585746	0.810494	-0.001209	-0.797435	-0.576574	-0.177931
02900	9.644251	-0.003616	-1.767022	0.006358	0.002521	-0.004661	-0.144897	-0.103269	0.984043	-0.585747	0.810493	-0.001194	-0.797437	-0.576573	-0.177928
02901	9.656824	-0.027206	-1.726006	0.005709	0.003207	-0.002453	-0.144894	-0.103257	0.984045	-0.585739	0.810499	-0.001199	-0.797443	-0.576567	-0.177918
02902	9.622202	0.001078	-1.757164	0.006613	0.002035	-0.002834	-0.144897	-0.103256	0.984044	-0.585739	0.810499	-0.001203	-0.797442	-0.576567	-0.177920
02903	9.665071	-0.006068	-1.715757	0.007038	0.004059	-0.002057	-0.144889	-0.103236	0.984048	-0.585742	0.810497	-0.001214	-0.797442	-0.576574	-0.177902
02904	9.650744	-0.014963	-1.745377	0.006134	0.005232	-0.001677	-0.144873	-0.103207	0.984053	-0.585737	0.810500	-0.001228	-0.797449	-0.576574	-0.177872
02905	9.672937	-0.019128	-1.754449	0.006188	0.000010	-0.003611	-0.144889	-0.103224	0.984049	-0.585735	0.810502	-0.001223	-0.797447	-0.576569	-0.177894
02906	9.650815	-0.014647	-1.744983	0.007942	0.002887	-0.002439	-0.144887	-0.103214	0.984050	-0.585745	0.810494	-0.001232	-0.797440	-0.576581	-0.177887
02907	9.644600	-0.002404	-1.765114	0.004773	0.002155	-0.006887	-0.144866	-0.103244	0.984050	-0.585735	0.810501	-0.001193	-0.797451	-0.576566	-0.177888
02908	9.644626	-0.002095	-1.764976	0.005539	0.000697	-0.001402	-0.144888	-0.103239	0.984047	-0.585725	0.810509	-0.001208	-0.797454	-0.576556	-0.177903
02909	9.650917	-0.013930	-1.744426	0.007941	0.002887	-0.002440	-0.144886	-0.103229	0.984049	-0.585737	0.810501	-0.001217	-0.797446	-0.576570	-0.177895
02910	9.652836	0.019005	-1.754917	0.005283	0.001183	-0.003231	-0.144894	-0.103236	0.984047	-0.585727	0.810508	-0.001214	-0.797452	-0.576559	-0.177905
02911	9.672744	-0.052095	-1.802430	0.007941	0.002887	-0.002440	-0.144892	-0.103226	0.984048	-0.585737	0.810500	-0.001224	-0.797445	-0.576571	-0.177898
02912	9.659173	0.007393	-1.734106	0.006612	0.002035	-0.002836	-0.144895	-0.103224	0.984048	-0.585737	0.810500	-0.001227	-0.797444	-0.576571	-0.177899
02913	9.651093	-0.013258	-1.743460	0.004548	0.004865	-0.003904	-0.144870	-0.103215	0.984052	-0.585723	0.810510	-0.001217	-0.797459	-0.576559	-0.177874
02914	9.657405	-0.024893	-1.722786	0.005283	0.001183	-0.003231	-0.144878	-0.103221	0.984051	-0.585714	0.810517	-0.001213	-0.797465	-0.576548	-0.177884
02915	9.653059	0.019863	-1.753675	0.005963	0.002722	-0.000628	-0.144887	-0.103198	0.984052	-0.585706	0.810523	-0.001237	-0.797468	-0.576544	-0.177878
02916	9.649348	-0.045536	-1.732025	0.006356	0.002520	-0.004665	-0.144876	-0.103209	0.984052	-0.585707	0.810522	-0.001221	-0.797470	-0.576543	-0.177875
02917	9.653144	0.020259	-1.753205	0.006612	0.002035	-0.002837	-0.144878	-0.103208	0.984052	-0.585709	0.810521	-0.001224	-0.797468	-0.576545	-0.177877
02918	9.679717	-0.028464	-1.731213	0.006356	0.002520	-0.004665	-0.144867	-0.103218	0.984053	-0.585710	0.810520	-0.001208	-0.797470	-0.576544	-0.177873
02919	9.622954	0.004140	-1.753036	0.007036	0.004060	-0.002062	-0.144858	-0.103199	0.984056	-0.585712	0.810518	-0.001220	-0.797469	-0.576550	-0.177855
02920	9.651418	-0.011939	-1.741670	0.006611	0.002035	-0.002837	-0.144861	-0.103198	0.984056	-0.585713	0.810518	-0.001223	-0.797469	-0.576551	-0.177857
02921	9.657681	-0.023492	-1.721257	0.005507	-0.001530	-0.006216	-0.144872	-0.103244	0.984049	-0.585709	0.810521	-0.001190	-0.797469	-0.576539	-0.177893
02922	9.659594	0.009670	-1.731749	0.003643	0.006038	-0.003526	-0.144839	-0.103225	0.984056	-0.585686	0.810537	-0.001181	-0.797492	-0.576519	-0.177855
02923	9.651555	-0.011092	-1.740913	0.010596	0.004593	-0.001653	-0.144828	-0.103200	0.984060	-0.585718	0.810514	-0.001203	-0.797471	-0.576556	-0.177831
02924	9.651604	-0.010803	-1.740643	0.005676	0.000980	-0.007270	-0.144813	-0.103240	0.984058	-0.585717	0.810515	-0.001160	-0.797474	-0.576548	-0.177843
02925	9.667520	-0.002823	-1.770238	0.005282	0.001183	-0.003233	-0.144821	-0.103246	0.984056	-0.585707	0.810522	-0.001158	-0.797480	-0.576536	-0.177853
02926	9.623240	0.006053	-1.751458	0.008588	0.002201	-0.004653	-0.144812	-0.103258	0.984056	-0.585725	0.810509	-0.001146	-0.797468	-0.576553	-0.177853
02927	9.671989	-0.046987	-1.738697	0.005706	0.003208	-0.002459	-0.144808	-0.103247	0.984058	-0.585718	0.810514	-0.001151	-0.797474	-0.576547	-0.177843
02928	9.659889	0.011088	-1.730091	0.007034	0.004061	-0.002064	-0.144799	-0.103228	0.984062	-0.585720	0.810512	-0.001163	-0.797474	-0.576553	-0.177824
02929	9.637418	-0.018669	-1.769627	0.006187	0.000010	-0.003614	-0.144815	-0.103243	0.984058	-0.585718	0.810514	-0.001159	-0.797473	-0.576548	-0.177846
02930	9.639293	0.014254	-1.780305	0.003305	0.001018	-0.001420	-0.144834	-0.103236	0.984056	-0.585690	0.810534	-0.001170	-0.797490	-0.576521	-0.177857
02931	9.649945	-0.042009	-1.728782	0.009068	-0.000997	-0.005808	-0.144845	-0.103276	0.984050	-0.585715	0.810517	-0.001149	-0.797470	-0.576539	-0.177890
02932	9.659944	0.011812	-1.729778	0.008193	0.002404	-0.000616	-0.144858	-0.103254	0.984050	-0.585724	0.810510	-0.001177	-0.797460	-0.576553	-0.177887
02933	9.637492	-0.018090	-1.769234	0.005705	0.003208	-0.002460	-0.144853	-0.103242	0.984052	-0.585716	0.810515	-0.001182	-0.797467	-0.576547	-0.177877
02934	9.658197	-0.020722	-1.718397	0.006778	0.004545	-0.003895	-0.144830	-0.103235	0.984056	-0.585719	0.810513	-0.001175	-0.797469	-0.576551	-0.177853
02935	9.639474	0.015104	-1.779321	0.005282	0.001183	-0.003235	-0.144837	-0.103240	0.984055	-0.585709	0.810521	-0.001173	-0.797476	-0.576539	-0.177862
02936	9.658285	-0.020301	-1.717906	0.005705	0.003208	-0.002461	-0.144833	-0.103229	0.984056	-0.585701	0.810526	-0.001178	-0.797482	-0.576534	-0.177852
02937	9.667956	-0.000699	-1.767854	0.006186	0.000010	-0.003615	-0.144846	-0.103246	0.984053	-0.585701	0.810526	-0.001172	-0.797480	-0.576530	-0.177873
02938	9.666456	0.000964	-1.707950	0.007937	0.002889	-0.002447	-0.144845	-0.103236	0.984054	-0.585711	0.810519	-0.001181	-0.797472	-0.576543	-0.177866
02939	9.628112	-0.036503	-1.717694	0.005960	0.002724	-0.000632	-0.144857	-0.103213	0.984055	-0.585704	0.810524	-0.001206	-0.797476	-0.576539	-0.177862
02940	9.645894	0.004023	-1.758030	0.004603	-0.000359	-0.005838	-0.144861	-0.103249	0.984050	-0.585692	0.810533	-0.001176	-0.797483	-0.576521	-0.177887
02941	9.635939	-0.049299	-1.756838	0.004377	0.002355	-0.002856	-0.144862	-0.103247	0.984050	-0.585675	0.810545	-0.001175	-0.797496	-0.576504	-0.177886
02942	9.660325	0.013684	-1.727639	0.006354	0.002520	-0.004671	-0.144851	-0.103257	0.984051	-0.585676	0.810545	-0.001160	-0.797497	-0.576503	-0.177883
02943	9.621978	-0.023569	-1.737429	0.006609	0.002036	-0.002842	-0.144854	-0.103257	0.984051	-0.585677	0.810544	-0.001162	-0.797496	-0.576504	-0.177885
02944	9.676326	0.021495	-1.756796	0.006383	0.004750	0.000140	-0.144853	-0.103215	0.984055	-0.585671	0.810548	-0.001194	-0.797500	-0.576506	-0.177860
02945	9.644242	-0.027732	-1.746157	0.008162	0.000175	-0.005431	-0.144856	-0.103245	0.984051	-0.585688	0.810535	-0.001175	-0.797487	-0.576518	-0.177880
02946	9.644255	-0.027431	-1.746089	0.005281	0.001183	-0.003236	-0.144863	-0.103252	0.984050	-0.585679	0.810542	-0.001172	-0.797493	-0.576507	-0.177890
02947	9.668305	0.001175	-1.765948	0.007936	0.002890	-0.002449	-0.144861	-0.103242	0.984051	-0.585688	0.810536	-0.001181	-0.797487	-0.576518	-0.177882
02948	9.646202	0.005759	-1.756329	0.007425	0.003856	-0.006109	-0.144830	-0.103256	0.984054	-0.585699	0.810528	-0.001153	-0.797484	-0.576527	-0.177866
02949	9.652518	-0.005803	-1.735591	0.007936	0.002890	-0.002450	-0.144828	-0.103247	0.984055	-0.585710	0.810520	-0.001162	-0.797476	-0.576540	-0.177858
02950	9.646303	0.006095	-1.755775	0.004631	0.001872	-0.001028	-0.144842	-0.103231	0.984055	-0.585692	0.810533	-0.001179	-0.797487	-0.576524	-0.177861
02951	9.658862	-0.017433	-1.714693	0.007680	0.003373	-0.004280	-0.144826	-0.103234	0.984057	-0.585704	0.810524	-0.001170	-0.797481	-0.576536	-0.177850
02952	9.668552	0.002185	-1.764592	0.005281	0.001183	-0.003237	-0.144834	-0.103241	0.984055	-0.585695	0.810531	-0.001167	-0.797487	-0.576525	-0.177860
02953	9.654559	0.027534	-1.745297	0.005221	0.006407	-0.001313	-0.144812	-0.103201	0.984062	-0.585681	0.810540	-0.001184	-0.797500	-0.576519	-0.177819
02954	9.644668	-0.026044	-1.743825	0.009744	0.000545	-0.003209	-0.144825	-0.103211	0.984060	-0.585707	0.810522	-0.001189	-0.797479	-0.576543	-0.177835
02955	9.654634	0.027872	-1.744874	0.007257	0.001347	-0.005053	-0.144820	-0.103232	0.984058	-0.585717	0.810515	-0.001171	-0.797473	-0.576549	-0.177843
02956	9.658786	-0.050859	-1.762455	0.005958	0.002726	-0.000636	-0.144830	-0.103209	0.984059	-0.585709	0.810521	-0.001195	-0.797477	-0.576545	-0.177838
02957	9.656549	0.060938	-1.755270	0.007257	0.001347	-0.005054	-0.144827	-0.103230	0.984057	-0.585719	0.810514	-0.001178	-0.797470	-0.576551	-0.177847
02958	9.634845	-0.078881	-1.742017	0.006607	0.002036	-0.002845	-0.144830	-0.103228	0.984057	-0.585719	0.810513	-0.001181	-0.797470	-0.576552	-0.177849
02959	9.646672	0.007780	-1.753738	0.006352	0.002519	-0.004675	-0.144820	-0.103238	0.984057	-0.585719	0.810513	-0.001167	-0.797471	-0.576551	-0.177847
02960	9.638637	-0.012842	-1.763030	0.006774	0.004545	-0.003904	-0.144797	-0.103231	0.984062	-0.585723	0.810511	-0.001160	-0.797473	-0.576555	-0.177824
02961	9.653029	-0.003494	-1.732754	0.006185	0.000010	-0.003618	-0.144811	-0.103247	0.984058	-0.585721	0.810512	-0.001154	-0.797472	-0.576550	-0.177845
02962	9.638703	-0.012426	-1.762669	0.007934	0.002891	-0.002453	-0.144810	-0.103237	0.984059	-0.585731	0.810505	-0.001164	-0.797464	-0.576562	-0.177838
02963	9.659336	-0.015163	-1.712038	0.005790	0.000218	0.000421	-0.144847	-0.103221	0.984055	-0.585720	0.810513	-0.001197	-0.797466	-0.576554	-0.177859
02964	9.669010	0.004157	-1.762077	0.008838	0.001718	-0.002832	-0.144853	-0.103221	0.984054	-0.585738	0.810500	-0.001204	-0.797452	-0.576572	-0.177863
02965	9.645019	-0.024099	-1.741912	0.006184	0.000010	-0.003618	-0.144867	-0.103237	0.984051	-0.585736	0.810501	-0.001199	-0.797450	-0.576568	-0.177885
02966	9.659405	-0.014756	-1.711653	0.009005	0.004227	-0.003892	-0.144847	-0.103232	0.984054	-0.585757	0.810486	-0.001196	-0.797439	-0.576590	-0.177865
02967	9.638853	-0.011958	-1.761855	0.006862	0.001554	-0.001017	-0.144864	-0.103217	0.984053	-0.585755	0.810487	-0.001218	-0.797437	-0.576591	-0.177871
02968	9.653257	-0.002633	-1.731485	0.006517	0.005027	-0.005737	-0.144826	-0.103222	0.984058	-0.585759	0.810484	-0.001193	-0.797441	-0.576594	-0.177843
02969	9.623042	-0.018915	-1.731586	0.006184	0.000010	-0.003619	-0.144842	-0.103238	0.984054	-0.585758	0.810485	-0.001188	-0.797439	-0.576589	-0.177865
02970	9.689576	-0.031662	-1.759269	0.007933	0.002891	-0.002455	-0.144840	-0.103229	0.984056	-0.585768	0.810478	-0.001197	-0.797432	-0.576601	-0.177858
02971	9.609035	0.006521	-1.712282	0.005956	0.002727	-0.000639	-0.144850	-0.103206	0.984056	-0.585761	0.810483	-0.001220	-0.797435	-0.576598	-0.177853
02972	9.675579	-0.006307	-1.739914	0.005279	0.001182	-0.003241	-0.144858	-0.103213	0.984055	-0.585751	0.810490	-0.001217	-0.797441	-0.576587	-0.177863
02973	9.647182	0.009993	-1.750921	0.006606	0.002037	-0.002848	-0.144859	-0.103212	0.984054	-0.585751	0.810490	-0.001218	-0.797441	-0.576588	-0.177863
02974	9.675629	-0.005823	-1.739635	0.005929	0.000492	-0.005450	-0.144859	-0.103241	0.984052	-0.585750	0.810491	-0.001194	-0.797442	-0.576581	-0.177880
02975	9.625059	0.014970	-1.741384	0.006350	0.002518	-0.004679	-0.144847	-0.103251	0.984052	-0.585750	0.810491	-0.001179	-0.797443	-0.576580	-0.177877
02976	9.659520	-0.047030	-1.758534	0.005279	0.001182	-0.003241	-0.144854	-0.103258	0.984050	-0.585741	0.810498	-0.001176	-0.797449	-0.576569	-0.177886
02977	9.653562	-0.000703	-1.729786	0.007027	0.004064	-0.002078	-0.144846	-0.103239	0.984054	-0.585742	0.810496	-0.001187	-0.797449	-0.576574	-0.177869
02978	9.639281	-0.009443	-1.759528	0.006744	0.002309	-0.008720	-0.144812	-0.103283	0.984054	-0.585752	0.810489	-0.001132	-0.797448	-0.576576	-0.177867
02979	9.667753	-0.025201	-1.748112	0.005955	0.002728	-0.000640	-0.144941	-0.103359	0.984027	-0.585698	0.810529	-0.001135	-0.797465	-0.576507	-0.178016
02980	9.625267	0.016228	-1.740221	0.005279	0.001182	-0.003242	-0.144949	-0.103365	0.984025	-0.585688	0.810536	-0.001132	-0.797471	-0.576496	-0.178026
02981	9.651893	-0.032499	-1.718078	0.006860	0.001556	-0.001019	-0.144966	-0.103352	0.984024	-0.585688	0.810536	-0.001152	-0.797468	-0.576498	-0.178032
02982	9.684004	0.016959	-1.728386	0.004373	0.002355	-0.002864	-0.144966	-0.103349	0.984024	-0.585671	0.810548	-0.001151	-0.797480	-0.576481	-0.178030
02983	9.623531	-0.016104	-1.728894	0.005278	0.001182	-0.003242	-0.144974	-0.103356	0.984022	-0.585661	0.810555	-0.001148	-0.797486	-0.576470	-0.178041
02984	9.691930	0.004046	-1.767229	0.006515	0.005027	-0.005742	-0.144936	-0.103361	0.984027	-0.585665	0.810553	-0.001123	-0.797490	-0.576473	-0.178013
02985	9.639570	-0.007970	-1.757947	0.004373	0.002355	-0.002864	-0.144936	-0.103356	0.984028	-0.585646	0.810566	-0.001122	-0.797504	-0.576454	-0.178011
02986	9.682373	-0.014821	-1.716470	0.005954	0.002728	-0.000642	-0.144947	-0.103333	0.984029	-0.585638	0.810572	-0.001146	-0.797508	-0.576450	-0.178005
02987	9.647747	0.013261	-1.747784	0.007420	0.003854	-0.006121	-0.144916	-0.103348	0.984032	-0.585649	0.810564	-0.001118	-0.797505	-0.576459	-0.177989
02988	9.660062	-0.044384	-1.755624	0.008414	-0.000307	-0.003607	-0.144933	-0.103366	0.984027	-0.585665	0.810552	-0.001116	-0.797490	-0.576472	-0.178014
02989	9.633474	0.004574	-1.777537	0.007930	0.002892	-0.002460	-0.144932	-0.103357	0.984029	-0.585675	0.810545	-0.001125	-0.797483	-0.576485	-0.178007
02990	9.646035	-0.018865	-1.736342	0.005699	0.003210	-0.002474	-0.144927	-0.103346	0.984030	-0.585668	0.810550	-0.001131	-0.797489	-0.576479	-0.177997
02991	9.646071	-0.018705	-1.736145	0.007509	0.000865	-0.003230	-0.144938	-0.103354	0.984028	-0.585675	0.810545	-0.001132	-0.797482	-0.576484	-0.178011
02992	9.617647	-0.002627	-1.747300	0.008019	-0.000096	0.000433	-0.144977	-0.103338	0.984024	-0.585682	0.810540	-0.001170	-0.797470	-0.576494	-0.178033
02993	9.638043	-0.039706	-1.745505	0.007024	0.004065	-0.002083	-0.144970	-0.103319	0.984027	-0.585685	0.810538	-0.001181	-0.797469	-0.576501	-0.178017
02994	9.654227	0.002346	-1.726068	0.005278	0.001182	-0.003244	-0.144978	-0.103326	0.984025	-0.585675	0.810545	-0.001178	-0.797475	-0.576490	-0.178027
02995	9.639949	-0.006564	-1.755878	0.005443	0.003690	-0.004306	-0.144958	-0.103327	0.984028	-0.585668	0.810551	-0.001165	-0.797484	-0.576482	-0.178011
02996	9.676491	-0.001342	-1.734845	0.007253	0.001346	-0.005062	-0.144954	-0.103347	0.984026	-0.585676	0.810544	-0.001147	-0.797478	-0.576487	-0.178020
02997	9.617862	-0.001702	-1.746120	0.007024	0.004065	-0.002084	-0.144944	-0.103328	0.984030	-0.585678	0.810543	-0.001157	-0.797479	-0.576493	-0.178000
02998	9.668519	-0.021924	-1.743916	0.005277	0.001182	-0.003245	-0.144952	-0.103334	0.984028	-0.585668	0.810550	-0.001154	-0.797485	-0.576481	-0.178010
02999	9.654432	0.003525	-1.724921	0.006603	0.002038	-0.002854	-0.144955	-0.103334	0.984028	-0.585670	0.810549	-0.001157	-0.797483	-0.576483	-0.178013
03000	9.646404	-0.017269	-1.734309	0.006603	0.002038	-0.002854	-0.144958	-0.103333	0.984027	-0.585670	0.810549	-0.001160	-0.797482	-0.576483	-0.178014
03001	9.640205	-0.005388	-1.754474	0.007023	0.004065	-0.002085	-0.144949	-0.103314	0.984031	-0.585675	0.810545	-0.001171	-0.797481	-0.576491	-0.177996
03002	9.640251	-0.005239	-1.754220	0.005277	0.001182	-0.003245	-0.144956	-0.103321	0.984029	-0.585665	0.810553	-0.001168	-0.797486	-0.576480	-0.178006
03003	9.646547	-0.016657	-1.733515	0.007418	0.003853	-0.006127	-0.144926	-0.103336	0.984032	-0.585676	0.810544	-0.001140	-0.797483	-0.576489	-0.177990
03004	9.646592	-0.016315	-1.733271	0.005277	0.001182	-0.003246	-0.144933	-0.103342	0.984030	-0.585667	0.810551	-0.001136	-0.797489	-0.576478	-0.178000
03005	9.668806	-0.020334	-1.742339	0.006347	0.002518	-0.004687	-0.144922	-0.103353	0.984030	-0.585667	0.810551	-0.001121	-0.797491	-0.576477	-0.177997
03006	9.616426	-0.032442	-1.733201	0.006602	0.002038	-0.002855	-0.144925	-0.103352	0.984030	-0.585667	0.810551	-0.001124	-0.797490	-0.576477	-0.177998
03007	9.668900	-0.019962	-1.741821	0.007022	0.004066	-0.002087	-0.144914	-0.103332	0.984034	-0.585669	0.810549	-0.001134	-0.797491	-0.576483	-0.177978
03008	9.640508	-0.003850	-1.752811	0.005532	0.000702	-0.001414	-0.144936	-0.103327	0.984031	-0.585659	0.810557	-0.001149	-0.797494	-0.576473	-0.177993
03009	9.646816	-0.015602	-1.732031	0.009673	0.005777	-0.001306	-0.144919	-0.103290	0.984037	-0.585681	0.810541	-0.001174	-0.797481	-0.576502	-0.177958
03010	9.661181	-0.006293	-1.701652	0.005277	0.001182	-0.003246	-0.144927	-0.103297	0.984036	-0.585671	0.810548	-0.001171	-0.797487	-0.576491	-0.177968
03011	9.632604	-0.024258	-1.761566	0.006742	0.002304	-0.008729	-0.144893	-0.103342	0.984036	-0.585681	0.810541	-0.001116	-0.797486	-0.576493	-0.177967
03012	9.654993	0.006282	-1.721767	0.006857	0.001559	-0.001024	-0.144910	-0.103329	0.984035	-0.585681	0.810541	-0.001137	-0.797483	-0.576495	-0.177973
03013	9.662910	-0.007153	-1.760860	0.004371	0.002354	-0.002870	-0.144910	-0.103325	0.984035	-0.585664	0.810553	-0.001136	-0.797495	-0.576478	-0.177971
03014	9.647028	-0.014544	-1.730861	0.007276	0.003587	-0.000257	-0.144916	-0.103294	0.984037	-0.585666	0.810552	-0.001166	-0.797493	-0.576486	-0.177958
03015	9.612384	0.013297	-1.762337	0.005276	0.001182	-0.003247	-0.144924	-0.103300	0.984036	-0.585655	0.810560	-0.001163	-0.797500	-0.576473	-0.177967
03016	9.661211	-0.039422	-1.749409	0.006832	-0.000683	-0.005834	-0.144931	-0.103339	0.984031	-0.585661	0.810555	-0.001137	-0.797494	-0.576473	-0.177996
03017	9.634602	0.009585	-1.771390	0.007021	0.004066	-0.002090	-0.144922	-0.103319	0.984034	-0.585664	0.810553	-0.001148	-0.797493	-0.576480	-0.177978
03018	9.661289	-0.039010	-1.748987	0.005276	0.001182	-0.003248	-0.144930	-0.103326	0.984032	-0.585654	0.810560	-0.001145	-0.797499	-0.576469	-0.177988
03019	9.657013	0.040235	-1.731416	0.007251	0.001345	-0.005067	-0.144926	-0.103347	0.984031	-0.585662	0.810555	-0.001127	-0.797494	-0.576473	-0.177996
03020	9.616978	-0.029937	-1.730176	0.003720	0.003047	-0.000662	-0.144933	-0.103322	0.984032	-0.585636	0.810573	-0.001147	-0.797512	-0.576451	-0.177988
03021	9.675704	-0.029154	-1.718298	0.007671	0.003373	-0.004300	-0.144917	-0.103326	0.984034	-0.585648	0.810564	-0.001137	-0.797505	-0.576463	-0.177977
03022	9.663273	-0.005421	-1.758871	0.006765	0.004545	-0.003923	-0.144894	-0.103319	0.984038	-0.585651	0.810562	-0.001129	-0.797507	-0.576467	-0.177954
03023	9.641143	-0.000911	-1.749320	0.006601	0.002038	-0.002858	-0.144898	-0.103316	0.984038	-0.585651	0.810562	-0.001133	-0.797507	-0.576467	-0.177956
03024	9.641198	-0.000721	-1.749017	0.008995	0.004230	-0.003911	-0.144877	-0.103311	0.984041	-0.585672	0.810547	-0.001130	-0.797495	-0.576489	-0.177936
03025	9.647470	-0.012154	-1.728413	0.003532	-0.001703	-0.004406	-0.144899	-0.103344	0.984035	-0.585649	0.810564	-0.001111	-0.797508	-0.576460	-0.177973
03026	9.626941	-0.009455	-1.778875	0.007925	0.002895	-0.002469	-0.144898	-0.103334	0.984036	-0.585660	0.810556	-0.001120	-0.797501	-0.576472	-0.177966
03027	9.641280	-0.000170	-1.748567	0.005949	0.002732	-0.000650	-0.144906	-0.103311	0.984037	-0.585651	0.810562	-0.001143	-0.797505	-0.576468	-0.177960
03028	9.669760	-0.016130	-1.737081	0.006600	0.002038	-0.002859	-0.144909	-0.103309	0.984037	-0.585651	0.810562	-0.001146	-0.797505	-0.576469	-0.177961
03029	9.655640	0.009434	-1.718122	0.005020	0.001660	-0.005082	-0.144903	-0.103328	0.984036	-0.585643	0.810569	-0.001125	-0.797512	-0.576456	-0.177967
03030	9.633354	-0.020440	-1.757507	0.006345	0.002517	-0.004693	-0.144891	-0.103339	0.984036	-0.585644	0.810568	-0.001109	-0.797514	-0.576455	-0.177964
03031	9.647679	-0.010922	-1.727250	0.006600	0.002039	-0.002860	-0.144893	-0.103337	0.984036	-0.585645	0.810567	-0.001112	-0.797513	-0.576457	-0.177964
03032	9.641469	0.000833	-1.747523	0.008179	0.002417	-0.000638	-0.144906	-0.103316	0.984037	-0.585654	0.810560	-0.001139	-0.797503	-0.576470	-0.177962
03033	9.677985	0.005867	-1.726483	0.004369	0.002354	-0.002873	-0.144907	-0.103314	0.984037	-0.585638	0.810572	-0.001138	-0.797515	-0.576454	-0.177962
03034	9.619371	0.005453	-1.737777	0.005438	0.003689	-0.004317	-0.144888	-0.103315	0.984039	-0.585631	0.810577	-0.001125	-0.797524	-0.576447	-0.177947
03035	9.692265	-0.019145	-1.744574	0.006622	0.004283	0.001948	-0.144901	-0.103261	0.984043	-0.585624	0.810582	-0.001174	-0.797527	-0.576449	-0.177926
03036	9.641674	0.001223	-1.746388	0.005926	0.000488	-0.005460	-0.144901	-0.103290	0.984040	-0.585622	0.810583	-0.001150	-0.797528	-0.576443	-0.177943
03037	9.633666	-0.019474	-1.755808	0.006599	0.002039	-0.002861	-0.144905	-0.103289	0.984040	-0.585624	0.810582	-0.001154	-0.797526	-0.576444	-0.177946
03038	9.635494	0.013371	-1.766506	0.005693	0.003211	-0.002485	-0.144901	-0.103278	0.984041	-0.585616	0.810588	-0.001159	-0.797532	-0.576438	-0.177936
03039	9.662195	-0.035077	-1.744059	0.007250	0.001344	-0.005071	-0.144895	-0.103298	0.984040	-0.585624	0.810582	-0.001141	-0.797527	-0.576443	-0.177943
03040	9.641811	0.002178	-1.745631	0.006599	0.002039	-0.002862	-0.144898	-0.103297	0.984040	-0.585624	0.810582	-0.001143	-0.797527	-0.576443	-0.177944
03041	9.656011	-0.022972	-1.764205	0.008829	0.001724	-0.002849	-0.144902	-0.103298	0.984039	-0.585643	0.810568	-0.001149	-0.797512	-0.576463	-0.177949
03042	9.648103	-0.009150	-1.724895	0.002626	-0.000532	-0.004030	-0.144919	-0.103321	0.984034	-0.585614	0.810590	-0.001134	-0.797531	-0.576428	-0.177976
03043	9.641861	0.002902	-1.745353	0.007249	0.001344	-0.005072	-0.144915	-0.103341	0.984033	-0.585622	0.810584	-0.001117	-0.797526	-0.576433	-0.177984
03044	9.648150	-0.008543	-1.724635	0.005692	0.003211	-0.002486	-0.144910	-0.103330	0.984035	-0.585614	0.810589	-0.001122	-0.797532	-0.576427	-0.177974
03045	9.641939	0.003335	-1.744922	0.005274	0.001182	-0.003252	-0.144917	-0.103336	0.984033	-0.585605	0.810596	-0.001118	-0.797538	-0.576416	-0.177984
03046	9.664173	-0.000781	-1.753927	0.005692	0.003211	-0.002487	-0.144913	-0.103325	0.984035	-0.585597	0.810602	-0.001123	-0.797544	-0.576411	-0.177974
03047	9.642025	0.003737	-1.744450	0.008573	0.002201	-0.004684	-0.144903	-0.103337	0.984035	-0.585614	0.810590	-0.001111	-0.797534	-0.576425	-0.177972
03048	9.662481	-0.032966	-1.742514	0.003044	0.001497	-0.003265	-0.144908	-0.103342	0.984034	-0.585586	0.810610	-0.001104	-0.797553	-0.576396	-0.177979
03049	9.664296	-0.000147	-1.753248	0.011476	0.003439	-0.002073	-0.144903	-0.103327	0.984036	-0.585624	0.810582	-0.001122	-0.797526	-0.576438	-0.177966
03050	9.664357	-0.000057	-1.752911	0.003462	0.003526	-0.002500	-0.144896	-0.103314	0.984038	-0.585599	0.810600	-0.001123	-0.797546	-0.576415	-0.177953
03051	9.626218	-0.002797	-1.713943	0.006413	-0.002714	-0.006603	-0.144915	-0.103371	0.984029	-0.585604	0.810596	-0.001088	-0.797538	-0.576410	-0.178002
03052	9.678553	-0.024789	-1.771566	0.007270	0.003591	-0.000266	-0.144921	-0.103339	0.984032	-0.585606	0.810595	-0.001118	-0.797536	-0.576417	-0.177988
03053	9.640455	-0.027851	-1.732363	0.006597	0.002039	-0.002864	-0.144924	-0.103337	0.984032	-0.585606	0.810595	-0.001121	-0.797535	-0.576418	-0.177989
03054	9.658224	0.012462	-1.772788	0.005436	0.003688	-0.004322	-0.144905	-0.103338	0.984034	-0.585599	0.810600	-0.001108	-0.797544	-0.576410	-0.177975
03055	9.640559	-0.027346	-1.731793	0.004367	0.002354	-0.002877	-0.144906	-0.103336	0.984035	-0.585581	0.810613	-0.001106	-0.797557	-0.576392	-0.177974
03056	9.640583	-0.027245	-1.731659	0.007758	0.000391	-0.001407	-0.144930	-0.103332	0.984031	-0.585588	0.810608	-0.001126	-0.797547	-0.576400	-0.177992
03057	9.662896	0.003130	-1.691895	0.007015	0.004069	-0.002101	-0.144923	-0.103313	0.984034	-0.585590	0.810606	-0.001138	-0.797547	-0.576406	-0.177975
03058	9.650395	-0.008016	-1.781303	0.003461	0.003526	-0.002502	-0.144916	-0.103300	0.984037	-0.585565	0.810625	-0.001139	-0.797567	-0.576383	-0.177962
