// General information: 
//  MT Manager version: 2019.2.0 
//  XDA version: 2019.2.0 build 3853 rev 94535 built on 2019-09-09
// Device information: 
//  DeviceId: 00B43F80
//  ProductCode: MTW2-3A7G6
//  Firmware Version: 4.3.5
//  Hardware Version: 1.1.0
// Device settings: 
//  Filter Profile: human(46.1)
//  Option Flags: Orientation Smoother Disabled, AHS Disabled, ICC Disabled
// Coordinate system: ENU
PacketCounter	Acc_X	Acc_Y	Acc_Z	Gyr_X	Gyr_Y	Gyr_Z	Mat[1][1]	Mat[2][1]	Mat[3][1]	Mat[1][2]	Mat[2][2]	Mat[3][2]	Mat[1][3]	Mat[2][3]	Mat[3][3]
02267	9.516287	-0.663510	2.203277	0.001504	0.002804	0.002009	-0.221530	0.082660	0.971644	-0.607434	-0.791174	-0.071185	0.762855	-0.605979	0.225480
02268	9.521553	-0.717105	2.191977	0.001962	-0.000678	0.008787	-0.221552	0.082636	0.971641	-0.607438	-0.791168	-0.071220	0.762846	-0.605991	0.225481
02269	9.541058	-0.680702	2.185519	0.003730	-0.002571	0.004561	-0.221531	0.082631	0.971646	-0.607436	-0.791171	-0.071210	0.762854	-0.605988	0.225462
02270	9.524631	-0.713954	2.225871	0.001855	0.000026	0.006748	-0.221546	0.082627	0.971643	-0.607445	-0.791162	-0.071225	0.762842	-0.606000	0.225470
02271	9.492089	-0.668514	2.205647	0.005394	-0.001803	0.005851	-0.221540	0.082621	0.971645	-0.607426	-0.791177	-0.071221	0.762859	-0.605981	0.225464
02272	9.520777	-0.699963	2.206686	0.003730	-0.002572	0.004561	-0.221521	0.082619	0.971649	-0.607426	-0.791178	-0.071211	0.762864	-0.605980	0.225447
02273	9.499770	-0.699074	2.243314	0.003437	0.000833	0.004619	-0.221529	0.082637	0.971646	-0.607428	-0.791177	-0.071201	0.762860	-0.605979	0.225464
02274	9.569661	-0.714077	2.186311	-0.001391	-0.001549	0.007586	-0.221536	0.082617	0.971646	-0.607461	-0.791149	-0.071232	0.762832	-0.606017	0.225454
02275	9.471776	-0.688339	2.226779	0.005369	-0.001138	0.007230	-0.221544	0.082605	0.971645	-0.607438	-0.791166	-0.071240	0.762848	-0.605997	0.225456
02276	9.519961	-0.682742	2.221628	0.005178	-0.000395	0.001772	-0.221525	0.082638	0.971647	-0.607433	-0.791173	-0.071200	0.762857	-0.605983	0.225461
02277	9.523784	-0.697884	2.240566	0.003571	-0.000536	0.005279	-0.221527	0.082643	0.971646	-0.607431	-0.791175	-0.071197	0.762858	-0.605980	0.225466
02278	9.520665	-0.702545	2.206347	0.003705	-0.001906	0.005940	-0.221522	0.082633	0.971648	-0.607429	-0.791177	-0.071200	0.762862	-0.605979	0.225457
02279	9.544766	-0.700007	2.203656	0.001907	-0.001305	0.003989	-0.221509	0.082642	0.971650	-0.607445	-0.791165	-0.071190	0.762853	-0.605994	0.225450
02280	9.500415	-0.721270	2.227519	0.002149	-0.003378	0.006689	-0.221497	0.082617	0.971655	-0.607453	-0.791158	-0.071204	0.762850	-0.606006	0.225425
02281	9.495867	-0.687671	2.223551	0.005287	-0.001100	0.003811	-0.221482	0.082626	0.971658	-0.607442	-0.791168	-0.071184	0.762863	-0.605992	0.225420
02282	9.564370	-0.664196	2.196675	0.003889	-0.004607	0.003842	-0.221443	0.082617	0.971667	-0.607442	-0.791169	-0.071166	0.762874	-0.605991	0.225384
02283	9.476387	-0.725241	2.229439	0.003572	-0.000536	0.005279	-0.221444	0.082620	0.971667	-0.607441	-0.791171	-0.071164	0.762875	-0.605989	0.225387
02284	9.540983	-0.687145	2.183827	0.000167	-0.000076	0.006837	-0.221458	0.082614	0.971664	-0.607463	-0.791152	-0.071184	0.762853	-0.606015	0.225392
02285	9.492773	-0.693624	2.188805	0.003839	-0.003276	0.006600	-0.221447	0.082593	0.971668	-0.607456	-0.791156	-0.071192	0.762862	-0.606011	0.225371
02286	9.495901	-0.689921	2.222712	0.003706	-0.001906	0.005939	-0.221442	0.082584	0.971670	-0.607454	-0.791158	-0.071196	0.762865	-0.606010	0.225362
02287	9.569626	-0.719888	2.184560	0.003681	-0.001240	0.007318	-0.221452	0.082569	0.971669	-0.607445	-0.791163	-0.071212	0.762869	-0.606006	0.225360
02288	9.495853	-0.691029	2.222571	0.005238	0.000232	0.006569	-0.221467	0.082567	0.971666	-0.607429	-0.791175	-0.071218	0.762878	-0.605991	0.225372
02289	9.488905	-0.680713	2.169375	0.003756	-0.003238	0.003182	-0.221433	0.082575	0.971673	-0.607429	-0.791178	-0.071189	0.762888	-0.605986	0.225351
02290	9.548587	-0.719993	2.221032	0.003523	0.000795	0.008037	-0.221461	0.082566	0.971668	-0.607423	-0.791180	-0.071214	0.762884	-0.605984	0.225368
02291	9.519919	-0.689380	2.219756	0.000242	-0.002073	0.002700	-0.221432	0.082581	0.971673	-0.607456	-0.791156	-0.071193	0.762866	-0.606013	0.225351
02292	9.496504	-0.711757	2.207162	0.006795	0.001703	0.005819	-0.221453	0.082594	0.971667	-0.607430	-0.791177	-0.071188	0.762881	-0.605985	0.225379
02293	9.543957	-0.687125	2.217258	0.003598	-0.001203	0.003900	-0.221440	0.082607	0.971669	-0.607434	-0.791175	-0.071170	0.762881	-0.605985	0.225376
02294	9.492648	-0.697552	2.188098	0.002041	-0.002674	0.004650	-0.221421	0.082603	0.971674	-0.607447	-0.791166	-0.071165	0.762877	-0.605998	0.225357
02295	9.519858	-0.690875	2.219555	0.003548	0.000130	0.006658	-0.221433	0.082600	0.971671	-0.607446	-0.791166	-0.071175	0.762874	-0.605998	0.225365
02296	9.500264	-0.728240	2.225894	0.003598	-0.001203	0.003900	-0.221420	0.082611	0.971673	-0.607449	-0.791165	-0.071159	0.762876	-0.605998	0.225362
02297	9.540108	-0.673748	2.197922	0.005288	-0.001101	0.003811	-0.221406	0.082621	0.971675	-0.607442	-0.791172	-0.071139	0.762885	-0.605987	0.225358
02298	9.500273	-0.728828	2.225664	0.002041	-0.002674	0.004650	-0.221387	0.082617	0.971680	-0.607454	-0.791163	-0.071134	0.762881	-0.605999	0.225339
02299	9.543243	-0.670207	2.231777	0.006954	-0.000333	0.005100	-0.221388	0.082623	0.971679	-0.607432	-0.791181	-0.071123	0.762898	-0.605975	0.225346
02300	9.520522	-0.711704	2.204031	0.000084	-0.000037	0.003418	-0.221382	0.082645	0.971679	-0.607462	-0.791159	-0.071110	0.762876	-0.606001	0.225352
02301	9.520523	-0.712064	2.203909	0.002041	-0.002674	0.004650	-0.221363	0.082640	0.971684	-0.607475	-0.791150	-0.071105	0.762871	-0.606013	0.225333
02302	9.515272	-0.659347	2.215237	0.005107	0.001601	0.005907	-0.221384	0.082652	0.971678	-0.607462	-0.791160	-0.071105	0.762876	-0.605998	0.225359
02303	9.496355	-0.715776	2.206502	0.003598	-0.001203	0.003900	-0.221373	0.082665	0.971679	-0.607468	-0.791157	-0.071089	0.762874	-0.606001	0.225357
02304	9.564827	-0.692494	2.179774	0.003574	-0.000537	0.005279	-0.221374	0.082670	0.971679	-0.607467	-0.791158	-0.071086	0.762874	-0.606000	0.225361
02305	9.495632	-0.697650	2.221446	0.003925	-0.003312	0.010018	-0.221378	0.082617	0.971682	-0.607457	-0.791162	-0.071128	0.762881	-0.606001	0.225332
02306	9.540653	-0.696704	2.182243	0.001460	0.004136	0.004764	-0.221411	0.082654	0.971671	-0.607474	-0.791149	-0.071125	0.762858	-0.606013	0.225379
02307	9.516499	-0.699908	2.184937	0.003623	-0.001869	0.002521	-0.221389	0.082673	0.971675	-0.607477	-0.791150	-0.071096	0.762862	-0.606010	0.225374
02308	9.515123	-0.662047	2.215071	0.005507	-0.002508	0.007889	-0.221391	0.082644	0.971677	-0.607456	-0.791164	-0.071114	0.762878	-0.605995	0.225360
02309	9.521009	-0.734752	2.188495	0.003466	0.000166	0.003239	-0.221383	0.082668	0.971677	-0.607459	-0.791164	-0.071091	0.762878	-0.605992	0.225368
02310	9.515792	-0.681941	2.199788	0.005398	-0.001805	0.005850	-0.221378	0.082660	0.971678	-0.607443	-0.791176	-0.071090	0.762892	-0.605977	0.225360
02311	9.522737	-0.692950	2.252766	0.003599	-0.001203	0.003900	-0.221369	0.082673	0.971679	-0.607442	-0.791178	-0.071073	0.762895	-0.605973	0.225361
02312	9.515779	-0.682641	2.199627	0.005265	-0.000435	0.005189	-0.221370	0.082678	0.971679	-0.607429	-0.791188	-0.071066	0.762905	-0.605958	0.225367
02313	9.515742	-0.683130	2.199632	0.001861	0.000029	0.006747	-0.221383	0.082675	0.971676	-0.607437	-0.791181	-0.071079	0.762896	-0.605968	0.225374
02314	9.491603	-0.686617	2.202176	0.005375	-0.001138	0.007228	-0.221391	0.082660	0.971675	-0.607419	-0.791194	-0.071091	0.762908	-0.605953	0.225373
02315	9.515658	-0.684271	2.199641	0.001728	0.001398	0.006086	-0.221413	0.082671	0.971670	-0.607428	-0.791186	-0.071099	0.762894	-0.605962	0.225396
02316	9.544895	-0.734842	2.185869	0.008538	0.000469	0.002970	-0.221408	0.082699	0.971668	-0.607395	-0.791215	-0.071063	0.762922	-0.605920	0.225412
02317	9.514909	-0.665766	2.214876	0.002018	-0.002007	0.006029	-0.221400	0.082687	0.971671	-0.607403	-0.791208	-0.071070	0.762918	-0.605931	0.225398
02318	9.520115	-0.719317	2.203314	0.002065	-0.003340	0.003272	-0.221368	0.082690	0.971678	-0.607419	-0.791198	-0.071051	0.762915	-0.605944	0.225373
02319	9.494673	-0.684316	2.235951	0.003709	-0.001906	0.005939	-0.221364	0.082684	0.971680	-0.607416	-0.791200	-0.071053	0.762918	-0.605942	0.225366
02320	9.518741	-0.681814	2.233416	0.003310	0.002202	0.003956	-0.221378	0.082715	0.971674	-0.607421	-0.791198	-0.071038	0.762910	-0.605941	0.225396
02321	9.536545	-0.687896	2.162618	0.005508	-0.002507	0.007889	-0.221379	0.082686	0.971676	-0.607402	-0.791211	-0.071057	0.762925	-0.605928	0.225382
02322	9.490803	-0.670800	2.216810	0.002042	-0.002673	0.004651	-0.221360	0.082682	0.971681	-0.607414	-0.791201	-0.071051	0.762920	-0.605941	0.225363
02323	9.544179	-0.718587	2.200215	0.003576	-0.000537	0.005278	-0.221366	0.082689	0.971679	-0.607414	-0.791202	-0.071050	0.762919	-0.605939	0.225372
02324	9.511741	-0.673089	2.179976	0.001862	0.000030	0.006746	-0.221380	0.082684	0.971676	-0.607423	-0.791193	-0.071065	0.762907	-0.605951	0.225379
02325	9.519323	-0.703340	2.217934	0.005267	-0.000436	0.005188	-0.221382	0.082687	0.971675	-0.607411	-0.791203	-0.071060	0.762917	-0.605937	0.225383
02326	9.515513	-0.688802	2.198856	0.005423	-0.002472	0.004471	-0.221363	0.082686	0.971680	-0.607398	-0.791214	-0.071045	0.762932	-0.605923	0.225369
02327	9.539621	-0.686425	2.196113	0.000304	-0.001440	0.007497	-0.221371	0.082667	0.971680	-0.607421	-0.791195	-0.071072	0.762912	-0.605951	0.225361
02328	9.519325	-0.704812	2.217457	0.003842	-0.003275	0.006601	-0.221359	0.082644	0.971684	-0.607415	-0.791198	-0.071082	0.762920	-0.605950	0.225338
02329	9.486901	-0.659306	2.197213	0.001598	0.002768	0.005423	-0.221389	0.082668	0.971675	-0.607428	-0.791188	-0.071085	0.762901	-0.605960	0.225376
02330	9.547830	-0.736785	2.218776	0.003623	-0.001871	0.002521	-0.221363	0.082686	0.971680	-0.607434	-0.791186	-0.071056	0.762904	-0.605960	0.225366
02331	9.487507	-0.679144	2.182127	0.006912	0.000998	0.007855	-0.221391	0.082678	0.971674	-0.607401	-0.791210	-0.071070	0.762922	-0.605930	0.225386
02332	9.563595	-0.685881	2.193381	0.000219	-0.001404	0.004079	-0.221378	0.082687	0.971676	-0.607429	-0.791189	-0.071063	0.762904	-0.605956	0.225378
02333	9.516034	-0.711157	2.183329	0.005268	-0.000437	0.005188	-0.221381	0.082693	0.971675	-0.607416	-0.791200	-0.071056	0.762913	-0.605942	0.225386
02334	9.535673	-0.674629	2.176795	0.003733	-0.002573	0.004561	-0.221362	0.082690	0.971680	-0.607416	-0.791200	-0.071046	0.762918	-0.605941	0.225369
02335	9.519833	-0.726764	2.202088	0.005268	-0.000437	0.005188	-0.221365	0.082697	0.971678	-0.607402	-0.791212	-0.071039	0.762929	-0.605924	0.225377
02336	9.514708	-0.673986	2.213255	0.002042	-0.002673	0.004651	-0.221346	0.082693	0.971683	-0.607414	-0.791203	-0.071033	0.762925	-0.605937	0.225358
02337	9.568034	-0.721912	2.196697	0.001864	0.000030	0.006746	-0.221360	0.082690	0.971680	-0.607423	-0.791195	-0.071047	0.762914	-0.605948	0.225366
02338	9.494331	-0.692753	2.234806	0.005113	0.001600	0.005905	-0.221381	0.082702	0.971674	-0.607409	-0.791206	-0.071047	0.762918	-0.605933	0.225392
02339	9.510838	-0.660573	2.194124	0.005689	-0.005211	0.005794	-0.221346	0.082671	0.971685	-0.607392	-0.791219	-0.071044	0.762942	-0.605919	0.225347
02340	9.519789	-0.728997	2.201543	0.001910	-0.001304	0.003990	-0.221333	0.082681	0.971687	-0.607407	-0.791208	-0.071033	0.762934	-0.605932	0.225341
02341	9.489905	-0.660020	2.230435	0.003688	-0.001239	0.007317	-0.221343	0.082665	0.971686	-0.607399	-0.791213	-0.071050	0.762937	-0.605928	0.225340
02342	9.539419	-0.693162	2.194874	0.002020	-0.002006	0.006029	-0.221338	0.082654	0.971688	-0.607409	-0.791205	-0.071058	0.762931	-0.605940	0.225328
02343	9.515287	-0.696567	2.197386	0.003556	0.000130	0.006656	-0.221354	0.082653	0.971685	-0.607403	-0.791208	-0.071068	0.762931	-0.605936	0.225341
02344	9.542504	-0.689824	2.228958	0.003469	0.000165	0.003238	-0.221348	0.082677	0.971684	-0.607408	-0.791206	-0.071046	0.762929	-0.605935	0.225351
02345	9.519009	-0.712321	2.216416	0.003666	-0.000571	0.008695	-0.221371	0.082654	0.971681	-0.607398	-0.791211	-0.071077	0.762930	-0.605931	0.225355
02346	9.514554	-0.678944	2.212402	0.003843	-0.003275	0.006601	-0.221359	0.082631	0.971685	-0.607393	-0.791215	-0.071086	0.762938	-0.605930	0.225332
02347	9.546876	-0.725524	2.232594	0.001733	0.001400	0.006084	-0.221380	0.082639	0.971680	-0.607400	-0.791208	-0.071095	0.762926	-0.605938	0.225353
02348	9.491044	-0.701986	2.199738	0.007226	-0.003076	0.006421	-0.221369	0.082619	0.971684	-0.607370	-0.791232	-0.071095	0.762953	-0.605910	0.225334
02349	9.538630	-0.677621	2.209488	0.002020	-0.002005	0.006029	-0.221362	0.082604	0.971687	-0.607381	-0.791222	-0.071106	0.762946	-0.605924	0.225319
02350	9.515140	-0.700144	2.196886	0.005248	0.000230	0.006565	-0.221377	0.082603	0.971684	-0.607365	-0.791234	-0.071112	0.762955	-0.605909	0.225331
02351	9.513833	-0.662333	2.227088	0.003712	-0.001906	0.005939	-0.221374	0.082596	0.971685	-0.607363	-0.791235	-0.071116	0.762957	-0.605909	0.225325
02352	9.519532	-0.735093	2.200624	0.005271	-0.000438	0.005187	-0.221376	0.082601	0.971684	-0.607350	-0.791246	-0.071108	0.762967	-0.605894	0.225330
02353	9.490342	-0.685165	2.214388	-0.001471	-0.001502	0.004170	-0.221363	0.082607	0.971687	-0.607390	-0.791215	-0.071107	0.762939	-0.605933	0.225320
02354	9.586795	-0.674155	2.203869	0.005425	-0.002475	0.004471	-0.221344	0.082605	0.971691	-0.607377	-0.791226	-0.071092	0.762955	-0.605919	0.225306
02355	9.470038	-0.703649	2.235657	0.000198	-0.000735	0.005458	-0.221346	0.082607	0.971690	-0.607405	-0.791204	-0.071100	0.762932	-0.605947	0.225306
02356	9.563909	-0.716209	2.176135	0.005117	0.001599	0.005903	-0.221367	0.082619	0.971684	-0.607391	-0.791215	-0.071100	0.762937	-0.605932	0.225331
02357	9.487130	-0.691109	2.180010	0.003734	-0.002574	0.004561	-0.221350	0.082616	0.971689	-0.607389	-0.791217	-0.071091	0.762943	-0.605929	0.225316
02358	9.538494	-0.681616	2.208848	0.001867	0.000032	0.006745	-0.221365	0.082612	0.971686	-0.607399	-0.791208	-0.071107	0.762932	-0.605941	0.225324
02359	9.539077	-0.701257	2.193787	0.003448	0.000832	0.004615	-0.221373	0.082630	0.971682	-0.607398	-0.791210	-0.071098	0.762929	-0.605937	0.225342
02360	9.489570	-0.669060	2.229164	0.002021	-0.002005	0.006029	-0.221368	0.082619	0.971684	-0.607408	-0.791201	-0.071106	0.762923	-0.605949	0.225330
02361	9.539682	-0.721179	2.178530	0.003492	-0.000504	0.001859	-0.221347	0.082648	0.971687	-0.607418	-0.791197	-0.071071	0.762921	-0.605952	0.225331
02362	9.486403	-0.674000	2.194902	0.005382	-0.001140	0.007227	-0.221355	0.082633	0.971686	-0.607400	-0.791210	-0.071084	0.762933	-0.605936	0.225330
02363	9.538387	-0.683814	2.208628	0.002000	-0.001337	0.007407	-0.221361	0.082612	0.971687	-0.607406	-0.791203	-0.071106	0.762927	-0.605949	0.225320
02364	9.490756	-0.709147	2.198682	0.003449	0.000832	0.004615	-0.221368	0.082630	0.971683	-0.607408	-0.791202	-0.071097	0.762923	-0.605947	0.225337
02365	9.513579	-0.668461	2.226343	0.005382	-0.001140	0.007227	-0.221374	0.082613	0.971683	-0.607392	-0.791213	-0.071110	0.762934	-0.605935	0.225333
02366	9.514789	-0.707227	2.196137	0.005141	0.000930	0.004525	-0.221382	0.082632	0.971680	-0.607382	-0.791222	-0.071096	0.762940	-0.605920	0.225352
02367	9.561741	-0.663675	2.221163	0.002022	-0.002005	0.006029	-0.221375	0.082620	0.971682	-0.607391	-0.791215	-0.071105	0.762935	-0.605932	0.225338
02368	9.518533	-0.723107	2.214964	0.002000	-0.001337	0.007407	-0.221383	0.082602	0.971682	-0.607397	-0.791208	-0.071126	0.762927	-0.605943	0.225332
02369	9.534426	-0.671939	2.189487	0.008634	0.000426	0.006384	-0.221396	0.082602	0.971679	-0.607356	-0.791240	-0.071123	0.762956	-0.605901	0.225346
02370	9.490564	-0.711999	2.198590	-0.001603	-0.000131	0.003508	-0.221390	0.082622	0.971679	-0.607399	-0.791208	-0.071114	0.762924	-0.605941	0.225350
02371	9.510254	-0.675504	2.192110	0.006964	-0.000341	0.005096	-0.221392	0.082627	0.971678	-0.607372	-0.791229	-0.071104	0.762945	-0.605912	0.225357
02372	9.534983	-0.692290	2.174273	0.003845	-0.003275	0.006601	-0.221380	0.082604	0.971683	-0.607367	-0.791232	-0.071113	0.762952	-0.605911	0.225334
02373	9.541923	-0.703326	2.227228	0.003582	-0.000537	0.005277	-0.221377	0.082604	0.971684	-0.607367	-0.791232	-0.071112	0.762953	-0.605911	0.225331
02374	9.514623	-0.710970	2.195649	0.003692	-0.001238	0.007317	-0.221385	0.082588	0.971683	-0.607362	-0.791235	-0.071128	0.762955	-0.605910	0.225328
02375	9.489873	-0.695135	2.213292	0.003582	-0.000537	0.005277	-0.221385	0.082591	0.971683	-0.607360	-0.791237	-0.071125	0.762957	-0.605907	0.225331
02376	9.538059	-0.689879	2.208157	0.005142	0.000930	0.004524	-0.221393	0.082610	0.971679	-0.607349	-0.791246	-0.071112	0.762963	-0.605892	0.225350
02377	9.534260	-0.675424	2.189139	0.003714	-0.001906	0.005939	-0.221388	0.082600	0.971681	-0.607347	-0.791247	-0.071116	0.762966	-0.605892	0.225339
02378	9.514519	-0.712713	2.195535	0.003582	-0.000537	0.005277	-0.221389	0.082604	0.971681	-0.607346	-0.791248	-0.071113	0.762966	-0.605890	0.225343
02379	9.509480	-0.660000	2.206805	0.001738	0.001402	0.006082	-0.221408	0.082612	0.971676	-0.607358	-0.791238	-0.071123	0.762951	-0.605902	0.225362
02380	9.514419	-0.713773	2.195623	0.003693	-0.001238	0.007317	-0.221416	0.082596	0.971675	-0.607352	-0.791241	-0.071140	0.762954	-0.605900	0.225358
02381	9.585561	-0.667532	2.217834	0.003867	-0.003943	0.005224	-0.221387	0.082577	0.971684	-0.607349	-0.791244	-0.071135	0.762965	-0.605899	0.225324
02382	9.490342	-0.717538	2.197746	0.003714	-0.001906	0.005939	-0.221381	0.082567	0.971686	-0.607346	-0.791246	-0.071138	0.762969	-0.605898	0.225314
02383	9.512609	-0.657708	2.240469	0.003431	0.001500	0.005992	-0.221402	0.082578	0.971680	-0.607340	-0.791251	-0.071141	0.762968	-0.605891	0.225337
02384	9.514956	-0.734921	2.180158	0.003562	0.000131	0.006654	-0.221416	0.082575	0.971677	-0.607336	-0.791252	-0.071151	0.762966	-0.605889	0.225347
02385	9.512528	-0.658748	2.240509	0.003715	-0.001906	0.005939	-0.221414	0.082567	0.971678	-0.607335	-0.791253	-0.071156	0.762968	-0.605889	0.225340
02386	9.514912	-0.735923	2.180010	0.008769	-0.000945	0.007045	-0.221423	0.082555	0.971677	-0.607291	-0.791287	-0.071159	0.763001	-0.605847	0.225343
02387	9.509349	-0.663985	2.206170	0.002044	-0.002672	0.004652	-0.221405	0.082553	0.971681	-0.607301	-0.791279	-0.071152	0.762997	-0.605857	0.225328
02388	9.518064	-0.732490	2.213896	0.005255	0.000228	0.006564	-0.221420	0.082552	0.971678	-0.607285	-0.791291	-0.071158	0.763006	-0.605841	0.225340
02389	9.533418	-0.662134	2.203487	0.001892	-0.000635	0.005367	-0.221422	0.082552	0.971678	-0.607298	-0.791281	-0.071163	0.762995	-0.605855	0.225340
02390	9.517973	-0.733438	2.213975	0.005124	0.001597	0.005901	-0.221443	0.082564	0.971672	-0.607284	-0.791291	-0.071162	0.763000	-0.605840	0.225366
02391	9.509800	-0.684998	2.191134	0.003584	-0.000537	0.005277	-0.221445	0.082567	0.971671	-0.607284	-0.791292	-0.071161	0.763000	-0.605838	0.225369
02392	9.541415	-0.712188	2.226587	0.006857	0.000357	0.003055	-0.221439	0.082594	0.971670	-0.607263	-0.791310	-0.071129	0.763018	-0.605810	0.225384
02393	9.516669	-0.696239	2.244306	0.003674	-0.000569	0.008694	-0.221462	0.082572	0.971667	-0.607251	-0.791317	-0.071159	0.763021	-0.605805	0.225388
02394	9.489373	-0.703973	2.212641	-0.001339	-0.002866	0.004834	-0.221442	0.082565	0.971672	-0.607290	-0.791287	-0.071163	0.762996	-0.605845	0.225366
02395	9.537606	-0.698933	2.207270	0.005387	-0.001141	0.007226	-0.221451	0.082549	0.971671	-0.607269	-0.791302	-0.071175	0.763010	-0.605828	0.225364
02396	9.509691	-0.687313	2.190882	0.005145	0.000928	0.004523	-0.221459	0.082568	0.971668	-0.607258	-0.791311	-0.071162	0.763016	-0.605813	0.225383
02397	9.538141	-0.718939	2.192135	0.000352	-0.002769	0.004743	-0.221503	0.082609	0.971654	-0.607320	-0.791262	-0.071176	0.762954	-0.605871	0.225437
02398	9.537555	-0.700074	2.207128	0.005166	0.000259	0.003146	-0.221498	0.082635	0.971653	-0.607313	-0.791271	-0.071149	0.762962	-0.605857	0.225450
02399	9.512855	-0.684059	2.224696	0.002155	-0.003372	0.006693	-0.221485	0.082612	0.971658	-0.607314	-0.791268	-0.071160	0.762964	-0.605863	0.225426
02400	9.537582	-0.700980	2.206721	0.000353	-0.002769	0.004743	-0.221466	0.082606	0.971663	-0.607340	-0.791249	-0.071160	0.762949	-0.605889	0.225405
02401	9.509695	-0.689342	2.190226	0.008640	0.000422	0.006382	-0.221484	0.082609	0.971659	-0.607298	-0.791281	-0.071157	0.762977	-0.605847	0.225424
02402	9.536953	-0.682814	2.221704	-0.001380	-0.001528	0.007588	-0.221492	0.082589	0.971659	-0.607331	-0.791253	-0.071187	0.762949	-0.605886	0.225415
02403	9.513392	-0.705240	2.209167	0.005166	0.000259	0.003145	-0.221485	0.082613	0.971658	-0.607325	-0.791260	-0.071162	0.762955	-0.605873	0.225425
02404	9.533149	-0.668745	2.202657	0.003585	-0.000538	0.005276	-0.221486	0.082617	0.971657	-0.607324	-0.791261	-0.071159	0.762955	-0.605872	0.225429
02405	9.513353	-0.705924	2.209116	0.001914	-0.001303	0.003990	-0.221474	0.082627	0.971659	-0.607338	-0.791251	-0.071147	0.762948	-0.605883	0.225424
02406	9.533140	-0.669537	2.202453	0.003716	-0.001906	0.005939	-0.221469	0.082617	0.971661	-0.607335	-0.791253	-0.071151	0.762952	-0.605882	0.225414
02407	9.493540	-0.743648	2.215456	0.003566	0.000131	0.006653	-0.221480	0.082613	0.971659	-0.607332	-0.791255	-0.071161	0.762951	-0.605880	0.225421
02408	9.508964	-0.673290	2.205009	0.005278	-0.000441	0.005185	-0.221482	0.082618	0.971658	-0.607319	-0.791265	-0.071154	0.762961	-0.605866	0.225426
02409	9.561487	-0.702278	2.203744	0.001874	0.000035	0.006744	-0.221494	0.082612	0.971656	-0.607332	-0.791254	-0.071171	0.762947	-0.605881	0.225431
02410	9.484776	-0.677124	2.207588	0.005389	-0.001141	0.007226	-0.221503	0.082597	0.971655	-0.607313	-0.791267	-0.071183	0.762960	-0.605866	0.225430
02411	9.533534	-0.691463	2.187293	0.000162	0.000608	0.008212	-0.221534	0.082587	0.971649	-0.607330	-0.791251	-0.071216	0.762937	-0.605888	0.225446
02412	9.513118	-0.709568	2.208964	0.003475	0.000162	0.003236	-0.221528	0.082612	0.971649	-0.607335	-0.791249	-0.071193	0.762935	-0.605887	0.225456
02413	9.512524	-0.690683	2.224065	0.005278	-0.000442	0.005185	-0.221532	0.082618	0.971647	-0.607321	-0.791261	-0.071187	0.762945	-0.605872	0.225465
02414	9.513039	-0.710284	2.209074	0.005128	0.001596	0.005899	-0.221553	0.082630	0.971641	-0.607307	-0.791271	-0.071187	0.762950	-0.605857	0.225490
02415	9.536566	-0.688738	2.221537	0.003737	-0.002575	0.004562	-0.221534	0.082628	0.971646	-0.607303	-0.791276	-0.071175	0.762959	-0.605851	0.225475
02416	9.509253	-0.696299	2.189946	0.003567	0.000131	0.006653	-0.221549	0.082625	0.971642	-0.607299	-0.791278	-0.071186	0.762957	-0.605849	0.225485
02417	9.533321	-0.694079	2.187391	0.005259	0.000227	0.006562	-0.221563	0.082623	0.971639	-0.607282	-0.791291	-0.071192	0.762967	-0.605832	0.225497
02418	9.509727	-0.716607	2.174887	0.002006	-0.001333	0.007407	-0.221571	0.082605	0.971639	-0.607289	-0.791283	-0.071213	0.762959	-0.605844	0.225491
02419	9.512301	-0.693685	2.224084	0.006932	0.000992	0.007848	-0.221600	0.082599	0.971633	-0.607260	-0.791303	-0.071229	0.762973	-0.605819	0.225512
02420	9.533757	-0.714979	2.172306	0.000222	-0.001399	0.004081	-0.221587	0.082607	0.971635	-0.607288	-0.791283	-0.071222	0.762955	-0.605845	0.225505
02421	9.504769	-0.664905	2.185961	0.003587	-0.000538	0.005276	-0.221588	0.082612	0.971635	-0.607287	-0.791284	-0.071218	0.762956	-0.605842	0.225508
02422	9.512216	-0.695064	2.224016	0.003568	0.000131	0.006653	-0.221603	0.082609	0.971632	-0.607283	-0.791286	-0.071229	0.762954	-0.605840	0.225518
02423	9.536854	-0.712004	2.206342	0.003587	-0.000538	0.005276	-0.221605	0.082614	0.971631	-0.607283	-0.791286	-0.071226	0.762954	-0.605839	0.225523
02424	9.512192	-0.695872	2.223867	0.003756	-0.003245	0.003185	-0.221572	0.082619	0.971638	-0.607286	-0.791286	-0.071202	0.762961	-0.605838	0.225500
02425	9.536337	-0.693483	2.221043	0.003718	-0.001906	0.005939	-0.221568	0.082608	0.971640	-0.607283	-0.791288	-0.071207	0.762964	-0.605838	0.225491
02426	9.532586	-0.679177	2.201901	0.005391	-0.001142	0.007225	-0.221576	0.082593	0.971639	-0.607265	-0.791301	-0.071219	0.762977	-0.605822	0.225490
02427	9.488087	-0.699894	2.226008	0.000242	-0.002068	0.002704	-0.221550	0.082608	0.971644	-0.607295	-0.791280	-0.071199	0.762960	-0.605848	0.225476
02428	9.512756	-0.716742	2.208207	0.007084	-0.001046	0.007134	-0.221559	0.082595	0.971643	-0.607264	-0.791303	-0.071206	0.762983	-0.605820	0.225477
02429	9.507896	-0.663985	2.219283	0.003588	-0.000538	0.005276	-0.221560	0.082598	0.971642	-0.607263	-0.791304	-0.071204	0.762983	-0.605818	0.225480
02430	9.536848	-0.714869	2.205440	0.003738	-0.002576	0.004562	-0.221541	0.082596	0.971647	-0.607263	-0.791305	-0.071194	0.762988	-0.605818	0.225464
02431	9.504708	-0.669128	2.184936	0.003588	-0.000538	0.005276	-0.221543	0.082599	0.971646	-0.607265	-0.791304	-0.071193	0.762987	-0.605818	0.225467
02432	9.533616	-0.720214	2.171192	0.003681	-0.000567	0.008693	-0.221565	0.082576	0.971643	-0.607256	-0.791308	-0.071223	0.762987	-0.605816	0.225471
02433	9.504650	-0.670208	2.184858	0.005300	-0.001112	0.003808	-0.221548	0.082585	0.971646	-0.607248	-0.791315	-0.071203	0.762998	-0.605805	0.225464
02434	9.512698	-0.719331	2.207613	0.003887	-0.004614	0.003849	-0.221509	0.082576	0.971656	-0.607249	-0.791316	-0.071185	0.763009	-0.605805	0.225428
02435	9.536841	-0.716911	2.204806	0.006974	-0.000348	0.005093	-0.221509	0.082583	0.971655	-0.607222	-0.791338	-0.071172	0.763030	-0.605776	0.225435
02436	9.504674	-0.671171	2.184455	0.000074	0.000641	0.004794	-0.221517	0.082598	0.971652	-0.607250	-0.791317	-0.071172	0.763006	-0.605801	0.225447
02437	9.533032	-0.702940	2.185819	0.001897	-0.000633	0.005366	-0.221519	0.082603	0.971651	-0.607262	-0.791308	-0.071173	0.762996	-0.605813	0.225451
02438	9.508873	-0.706056	2.188468	0.005151	0.000925	0.004521	-0.221527	0.082622	0.971648	-0.607251	-0.791317	-0.071159	0.763002	-0.605798	0.225470
02439	9.536166	-0.699403	2.219920	0.000334	-0.002096	0.006121	-0.221523	0.082613	0.971650	-0.607272	-0.791300	-0.071171	0.762986	-0.605822	0.225459
02440	9.512543	-0.721767	2.207484	0.003329	0.002199	0.003948	-0.221537	0.082644	0.971644	-0.607277	-0.791298	-0.071156	0.762979	-0.605820	0.225489
02441	9.503975	-0.654097	2.199581	0.003719	-0.001906	0.005939	-0.221530	0.082634	0.971646	-0.607274	-0.791299	-0.071159	0.762983	-0.605819	0.225478
02442	9.544048	-0.749605	2.242979	0.001748	0.001405	0.006079	-0.221551	0.082643	0.971641	-0.607286	-0.791289	-0.071168	0.762967	-0.605831	0.225499
02443	9.483501	-0.672655	2.221278	0.008779	-0.000953	0.007043	-0.221558	0.082631	0.971640	-0.607241	-0.791323	-0.071170	0.763001	-0.605788	0.225501
02444	9.529078	-0.691277	2.166750	0.000353	-0.002765	0.004745	-0.221539	0.082626	0.971645	-0.607267	-0.791304	-0.071169	0.762986	-0.605814	0.225481
02445	9.511871	-0.704906	2.222395	0.005264	0.000226	0.006561	-0.221554	0.082624	0.971642	-0.607254	-0.791313	-0.071176	0.762992	-0.605803	0.225492
02446	9.528000	-0.653889	2.196644	0.002157	-0.003369	0.006694	-0.221542	0.082600	0.971646	-0.607262	-0.791306	-0.071191	0.762989	-0.605815	0.225467
02447	9.512900	-0.744466	2.192009	0.001879	0.000037	0.006743	-0.221555	0.082597	0.971644	-0.607268	-0.791300	-0.071203	0.762980	-0.605823	0.225475
02448	9.531670	-0.669671	2.215639	0.005041	0.001623	0.002480	-0.221555	0.082637	0.971640	-0.607263	-0.791307	-0.071170	0.762984	-0.605809	0.225501
02449	9.536445	-0.723324	2.204427	0.000595	-0.004832	0.007449	-0.221535	0.082596	0.971648	-0.607280	-0.791291	-0.071195	0.762976	-0.605835	0.225458
02450	9.487715	-0.709952	2.224408	0.003627	-0.001878	0.002522	-0.221509	0.082614	0.971653	-0.607286	-0.791290	-0.071165	0.762979	-0.605835	0.225448
02451	9.532211	-0.690144	2.200115	0.003554	0.000802	0.008028	-0.221536	0.082603	0.971647	-0.607282	-0.791290	-0.071191	0.762974	-0.605835	0.225463
02452	9.512308	-0.727421	2.206643	0.002046	-0.002671	0.004654	-0.221517	0.082599	0.971652	-0.607295	-0.791281	-0.071185	0.762970	-0.605848	0.225445
02453	9.507560	-0.674617	2.217518	0.003721	-0.001907	0.005939	-0.221514	0.082588	0.971654	-0.607292	-0.791283	-0.071191	0.762973	-0.605847	0.225436
02454	9.535912	-0.706403	2.218796	0.003591	-0.000538	0.005275	-0.221515	0.082593	0.971653	-0.607292	-0.791283	-0.071188	0.762973	-0.605846	0.225439
02455	9.532152	-0.691976	2.199794	0.003461	0.000830	0.004611	-0.221521	0.082613	0.971650	-0.607293	-0.791283	-0.071176	0.762970	-0.605843	0.225457
02456	9.504798	-0.699417	2.168310	0.001916	-0.001302	0.003990	-0.221509	0.082623	0.971652	-0.607308	-0.791272	-0.071165	0.762962	-0.605856	0.225451
02457	9.532103	-0.692751	2.199764	0.005266	0.000226	0.006560	-0.221525	0.082622	0.971648	-0.607291	-0.791286	-0.071170	0.762971	-0.605839	0.225465
02458	9.507944	-0.696148	2.202309	0.000429	-0.002122	0.009538	-0.221540	0.082583	0.971648	-0.607305	-0.791270	-0.071216	0.762955	-0.605864	0.225451
02459	9.532045	-0.694190	2.199558	0.005396	-0.001143	0.007224	-0.221548	0.082569	0.971648	-0.607283	-0.791286	-0.071226	0.762970	-0.605845	0.225451
02460	9.507924	-0.697506	2.201965	-0.001227	-0.003556	0.006877	-0.221536	0.082542	0.971653	-0.607316	-0.791259	-0.071250	0.762948	-0.605885	0.225421
02461	9.532064	-0.695400	2.199096	0.003721	-0.001907	0.005939	-0.221531	0.082532	0.971654	-0.607312	-0.791261	-0.071254	0.762952	-0.605883	0.225412
02462	9.508420	-0.717703	2.186648	0.005155	0.000923	0.004519	-0.221539	0.082551	0.971651	-0.607302	-0.791271	-0.071240	0.762958	-0.605868	0.225431
02463	9.507383	-0.679670	2.216733	0.003722	-0.001907	0.005939	-0.221532	0.082540	0.971654	-0.607299	-0.791273	-0.071244	0.762962	-0.605867	0.225419
02464	9.580754	-0.710625	2.178643	0.002011	-0.001330	0.007407	-0.221540	0.082523	0.971653	-0.607306	-0.791265	-0.071265	0.762955	-0.605879	0.225414
02465	9.486927	-0.698058	2.238323	0.003239	0.002226	0.000529	-0.221533	0.082581	0.971650	-0.607319	-0.791260	-0.071217	0.762946	-0.605878	0.225443
02466	9.507852	-0.700026	2.201478	0.002306	-0.005407	0.005982	-0.221501	0.082550	0.971660	-0.607326	-0.791253	-0.071224	0.762949	-0.605891	0.225398
02467	9.535716	-0.712586	2.217663	0.006978	-0.000352	0.005092	-0.221504	0.082559	0.971658	-0.607297	-0.791278	-0.071210	0.762973	-0.605858	0.225408
02468	9.528262	-0.683356	2.179554	0.001900	-0.000632	0.005366	-0.221504	0.082562	0.971658	-0.607309	-0.791268	-0.071212	0.762963	-0.605870	0.225410
02469	9.511540	-0.716132	2.220221	0.001900	-0.000632	0.005366	-0.221504	0.082565	0.971658	-0.607318	-0.791261	-0.071211	0.762955	-0.605879	0.225411
02470	9.507318	-0.682573	2.216119	0.003722	-0.001907	0.005939	-0.221499	0.082556	0.971660	-0.607315	-0.791263	-0.071215	0.762959	-0.605878	0.225401
02471	9.531916	-0.699637	2.198393	0.003576	0.000132	0.006651	-0.221513	0.082550	0.971657	-0.607311	-0.791265	-0.071227	0.762958	-0.605876	0.225408
02472	9.511972	-0.736888	2.204949	0.002029	-0.002000	0.006030	-0.221507	0.082539	0.971659	-0.607321	-0.791256	-0.071235	0.762952	-0.605888	0.225397
02473	9.527688	-0.666533	2.194196	0.005303	-0.001116	0.003807	-0.221493	0.082551	0.971662	-0.607311	-0.791266	-0.071213	0.762964	-0.605874	0.225394
02474	9.535096	-0.696420	2.232268	0.001788	0.000066	0.003325	-0.221486	0.082574	0.971661	-0.607329	-0.791254	-0.071195	0.762952	-0.605887	0.225402
02475	9.507236	-0.684627	2.215837	0.003593	-0.000539	0.005274	-0.221491	0.082581	0.971660	-0.607326	-0.791257	-0.071192	0.762953	-0.605882	0.225410
02476	9.503502	-0.670215	2.196771	0.005286	-0.000446	0.005183	-0.221492	0.082586	0.971659	-0.607313	-0.791267	-0.071185	0.762963	-0.605867	0.225415
02477	9.555928	-0.699412	2.195485	0.003706	-0.001236	0.007315	-0.221498	0.082567	0.971659	-0.607310	-0.791268	-0.071203	0.762963	-0.605870	0.225408
02478	9.483075	-0.688602	2.218208	0.003757	-0.003248	0.003187	-0.221465	0.082572	0.971666	-0.607313	-0.791267	-0.071179	0.762970	-0.605869	0.225385
02479	9.531852	-0.702807	2.197659	0.002047	-0.002670	0.004654	-0.221446	0.082568	0.971671	-0.607325	-0.791259	-0.071174	0.762966	-0.605881	0.225367
02480	9.483576	-0.708674	2.202839	0.003560	0.000802	0.008027	-0.221474	0.082558	0.971665	-0.607319	-0.791261	-0.071198	0.762963	-0.605879	0.225383
02481	9.555408	-0.681988	2.210106	0.003465	0.000829	0.004610	-0.221483	0.082578	0.971661	-0.607320	-0.791261	-0.071188	0.762960	-0.605877	0.225402
02482	9.511815	-0.741024	2.204241	0.003853	-0.003275	0.006603	-0.221472	0.082555	0.971666	-0.607315	-0.791265	-0.071198	0.762967	-0.605875	0.225379
02483	9.506664	-0.669088	2.230123	0.005400	-0.001143	0.007223	-0.221483	0.082541	0.971665	-0.607296	-0.791278	-0.071211	0.762979	-0.605860	0.225382
02484	9.511809	-0.742039	2.203923	0.003740	-0.002578	0.004563	-0.221465	0.082538	0.971669	-0.607296	-0.791279	-0.071201	0.762984	-0.605859	0.225365
02485	9.502962	-0.655007	2.210841	0.005175	0.000251	0.003142	-0.221460	0.082564	0.971668	-0.607287	-0.791288	-0.071175	0.762993	-0.605844	0.225378
02486	9.555360	-0.684104	2.209655	0.003578	0.000132	0.006650	-0.221474	0.082561	0.971665	-0.607284	-0.791289	-0.071185	0.762991	-0.605842	0.225388
02487	9.508036	-0.728293	2.184815	0.003611	-0.001209	0.003898	-0.221461	0.082572	0.971667	-0.607284	-0.791291	-0.071168	0.762995	-0.605839	0.225385
02488	9.531212	-0.687710	2.212079	0.000450	-0.002789	0.008163	-0.221463	0.082540	0.971669	-0.607301	-0.791275	-0.071200	0.762981	-0.605864	0.225364
02489	9.483434	-0.712674	2.202158	0.003499	-0.000512	0.001857	-0.221442	0.082570	0.971672	-0.607312	-0.791270	-0.071165	0.762978	-0.605866	0.225366
02490	9.527025	-0.654396	2.207882	0.008787	-0.000959	0.007040	-0.221450	0.082558	0.971671	-0.607268	-0.791303	-0.071168	0.763011	-0.605824	0.225369
02491	9.535346	-0.722846	2.215929	0.001789	0.000066	0.003325	-0.221444	0.082578	0.971670	-0.607289	-0.791289	-0.071153	0.762996	-0.605841	0.225375
02492	9.530665	-0.669969	2.226969	0.005272	0.000225	0.006558	-0.221459	0.082577	0.971667	-0.607273	-0.791300	-0.071159	0.763004	-0.605826	0.225387
02493	9.531570	-0.708829	2.196948	0.001789	0.000066	0.003325	-0.221451	0.082598	0.971667	-0.607291	-0.791288	-0.071142	0.762992	-0.605839	0.225393
02494	9.527376	-0.675120	2.192924	0.005289	-0.000446	0.005182	-0.221452	0.082603	0.971666	-0.607278	-0.791299	-0.071135	0.763002	-0.605824	0.225398
02495	9.507390	-0.712199	2.199569	0.003596	-0.000539	0.005274	-0.221455	0.082608	0.971666	-0.607278	-0.791299	-0.071133	0.763002	-0.605823	0.225403
02496	9.527351	-0.675863	2.192804	0.007128	-0.002393	0.004380	-0.221436	0.082608	0.971670	-0.607252	-0.791320	-0.071113	0.763028	-0.605795	0.225390
02497	9.531503	-0.710450	2.196715	0.000306	-0.000749	0.008874	-0.221458	0.082581	0.971667	-0.607271	-0.791302	-0.071154	0.763006	-0.605823	0.225389
02498	9.502764	-0.660374	2.210094	0.003886	-0.004617	0.003852	-0.221419	0.082572	0.971677	-0.607272	-0.791303	-0.071137	0.763017	-0.605823	0.225353
02499	9.534749	-0.707056	2.230406	0.003564	0.000803	0.008025	-0.221449	0.082565	0.971670	-0.607263	-0.791308	-0.071159	0.763015	-0.605818	0.225373
02500	9.527797	-0.697142	2.177220	0.001935	-0.001973	0.002614	-0.221423	0.082581	0.971675	-0.607281	-0.791296	-0.071135	0.763008	-0.605831	0.225361
02501	9.531004	-0.693030	2.211313	0.005145	0.001592	0.005893	-0.221444	0.082595	0.971669	-0.607265	-0.791309	-0.071132	0.763015	-0.605812	0.225388
02502	9.485931	-0.694383	2.250711	0.003709	-0.001236	0.007315	-0.221453	0.082579	0.971668	-0.607259	-0.791312	-0.071149	0.763017	-0.605810	0.225385
02503	9.530931	-0.694081	2.211302	0.003597	-0.000539	0.005274	-0.221453	0.082584	0.971668	-0.607257	-0.791314	-0.071145	0.763019	-0.605807	0.225389
02504	9.483091	-0.718925	2.201604	0.006855	0.001013	0.004425	-0.221461	0.082604	0.971664	-0.607233	-0.791333	-0.071127	0.763035	-0.605779	0.225410
02505	9.531324	-0.714019	2.196336	-0.001468	-0.001485	0.004174	-0.221448	0.082611	0.971667	-0.607277	-0.791300	-0.071126	0.763004	-0.605822	0.225399
02506	9.510467	-0.712582	2.232772	0.009080	-0.005039	0.005618	-0.221417	0.082585	0.971676	-0.607234	-0.791334	-0.071114	0.763047	-0.605781	0.225363
02507	9.523979	-0.685369	2.157742	0.000178	0.000621	0.008209	-0.221445	0.082573	0.971671	-0.607255	-0.791315	-0.071148	0.763023	-0.605807	0.225376
02508	9.503039	-0.684049	2.194511	0.003484	0.000158	0.003233	-0.221439	0.082597	0.971670	-0.607259	-0.791314	-0.071126	0.763021	-0.605806	0.225386
02509	9.527583	-0.700990	2.176919	0.001775	0.000738	0.004700	-0.221448	0.082616	0.971666	-0.607273	-0.791304	-0.071120	0.763008	-0.605816	0.225403
02510	9.531222	-0.716289	2.196037	0.001888	0.000041	0.006741	-0.221462	0.082612	0.971663	-0.607282	-0.791295	-0.071136	0.762996	-0.605828	0.225411
02511	9.527036	-0.682830	2.192014	0.003582	0.000132	0.006649	-0.221476	0.082609	0.971660	-0.607281	-0.791295	-0.071147	0.762993	-0.605829	0.225420
02512	9.509796	-0.696494	2.247731	0.002130	-0.002023	0.009447	-0.221491	0.082571	0.971660	-0.607283	-0.791290	-0.071188	0.762987	-0.605840	0.225408
02513	9.481944	-0.684947	2.231257	0.008663	0.000406	0.006373	-0.221502	0.082568	0.971658	-0.607246	-0.791318	-0.071186	0.763013	-0.605803	0.225418
02514	9.534765	-0.733289	2.215001	0.003629	-0.001882	0.002522	-0.221476	0.082586	0.971662	-0.607252	-0.791317	-0.071156	0.763016	-0.605803	0.225408
02515	9.502376	-0.668044	2.209456	0.001791	0.000066	0.003325	-0.221472	0.082612	0.971661	-0.607271	-0.791303	-0.071139	0.763002	-0.605817	0.225419
02516	9.534280	-0.714653	2.229987	0.005276	0.000224	0.006557	-0.221487	0.082610	0.971658	-0.607255	-0.791315	-0.071145	0.763010	-0.605802	0.225431
02517	9.503177	-0.707483	2.179505	0.001889	0.000042	0.006741	-0.221502	0.082606	0.971655	-0.607261	-0.791309	-0.071160	0.763001	-0.605810	0.225440
02518	9.530940	-0.720146	2.196002	0.003470	0.000829	0.004608	-0.221509	0.082624	0.971652	-0.607263	-0.791308	-0.071151	0.762997	-0.605809	0.225457
02519	9.506342	-0.703928	2.213623	0.003727	-0.001907	0.005939	-0.221508	0.082614	0.971653	-0.607261	-0.791310	-0.071157	0.763000	-0.605808	0.225450
02520	9.526793	-0.686896	2.191802	0.005307	-0.001120	0.003806	-0.221495	0.082626	0.971655	-0.607250	-0.791320	-0.071136	0.763012	-0.605794	0.225449
02521	9.530885	-0.721431	2.195817	0.003696	-0.000563	0.008690	-0.221518	0.082603	0.971652	-0.607240	-0.791325	-0.071166	0.763013	-0.605790	0.225452
02522	9.530411	-0.702693	2.210822	0.001792	0.000066	0.003324	-0.221511	0.082627	0.971651	-0.607258	-0.791313	-0.071148	0.763001	-0.605803	0.225460
02523	9.505409	-0.667203	2.243344	0.003855	-0.003275	0.006604	-0.221502	0.082605	0.971655	-0.607255	-0.791314	-0.071159	0.763006	-0.605804	0.225440
02524	9.534089	-0.718352	2.229619	0.005293	-0.000448	0.005181	-0.221503	0.082611	0.971654	-0.607242	-0.791325	-0.071151	0.763016	-0.605789	0.225446
02525	9.526734	-0.689165	2.191346	0.002049	-0.002669	0.004655	-0.221483	0.082605	0.971659	-0.607254	-0.791316	-0.071146	0.763012	-0.605801	0.225425
02526	9.482135	-0.709622	2.215597	0.003584	0.000133	0.006649	-0.221497	0.082603	0.971656	-0.607250	-0.791318	-0.071156	0.763011	-0.605800	0.225435
02527	9.505812	-0.688194	2.227939	0.003614	-0.001211	0.003898	-0.221487	0.082613	0.971658	-0.607256	-0.791315	-0.071143	0.763010	-0.605802	0.225433
02528	9.554507	-0.702787	2.207480	0.000453	-0.002784	0.008164	-0.221489	0.082581	0.971660	-0.607273	-0.791299	-0.071175	0.762996	-0.605827	0.225413
02529	9.502997	-0.712876	2.178532	0.003501	-0.000515	0.001857	-0.221468	0.082612	0.971662	-0.607281	-0.791296	-0.071139	0.762995	-0.605826	0.225416
02530	9.501677	-0.655387	2.223627	0.005150	0.001591	0.005891	-0.221489	0.082624	0.971656	-0.607267	-0.791307	-0.071139	0.763000	-0.605811	0.225441
02531	9.530287	-0.706643	2.210095	0.002019	-0.001325	0.007406	-0.221499	0.082606	0.971656	-0.607274	-0.791299	-0.071162	0.762992	-0.605823	0.225436
02532	9.481586	-0.693041	2.230276	0.003614	-0.001211	0.003898	-0.221486	0.082617	0.971657	-0.607276	-0.791299	-0.071145	0.762994	-0.605822	0.225433
02533	9.526166	-0.673414	2.205870	0.005294	-0.000449	0.005181	-0.221489	0.082622	0.971657	-0.607263	-0.791309	-0.071138	0.763003	-0.605808	0.225439
02534	9.533907	-0.722733	2.228978	0.003713	-0.001235	0.007314	-0.221497	0.082606	0.971656	-0.607257	-0.791312	-0.071155	0.763006	-0.605806	0.225436
02535	9.523290	-0.698161	2.156678	0.003600	-0.000539	0.005273	-0.221498	0.082611	0.971655	-0.607257	-0.791313	-0.071152	0.763006	-0.605805	0.225440
02536	9.506473	-0.730755	2.197444	0.001906	-0.000629	0.005365	-0.221499	0.082614	0.971655	-0.607269	-0.791303	-0.071154	0.762996	-0.605817	0.225442
02537	9.501951	-0.677767	2.208325	0.008697	-0.000941	0.003621	-0.221488	0.082629	0.971656	-0.607234	-0.791333	-0.071124	0.763027	-0.605776	0.225446
02538	9.526512	-0.694602	2.190593	0.003629	-0.001883	0.002523	-0.221462	0.082646	0.971661	-0.607239	-0.791332	-0.071094	0.763030	-0.605775	0.225436
02539	9.526463	-0.695084	2.190653	0.001735	0.002755	0.008825	-0.221509	0.082641	0.971650	-0.607246	-0.791323	-0.071131	0.763011	-0.605787	0.225468
02540	9.502269	-0.698305	2.193354	0.003728	-0.001907	0.005939	-0.221503	0.082631	0.971652	-0.607243	-0.791325	-0.071135	0.763015	-0.605786	0.225459
02541	9.529656	-0.691729	2.224636	0.003729	-0.001907	0.005939	-0.221495	0.082621	0.971655	-0.607240	-0.791327	-0.071137	0.763020	-0.605785	0.225446
02542	9.505524	-0.694810	2.227113	0.002035	-0.001997	0.006031	-0.221489	0.082610	0.971657	-0.607250	-0.791319	-0.071145	0.763014	-0.605797	0.225434
02543	9.526405	-0.697225	2.190225	0.003729	-0.001907	0.005939	-0.221486	0.082603	0.971659	-0.607244	-0.791323	-0.071147	0.763019	-0.605792	0.225427
02544	9.529686	-0.693190	2.224052	0.003871	-0.003947	0.005230	-0.221461	0.082587	0.971666	-0.607242	-0.791325	-0.071143	0.763028	-0.605792	0.225398
02545	9.498631	-0.685928	2.173387	0.005281	0.000223	0.006556	-0.221475	0.082585	0.971663	-0.607226	-0.791337	-0.071149	0.763037	-0.605776	0.225409
02546	9.505515	-0.696682	2.226567	0.003601	-0.000539	0.005273	-0.221476	0.082589	0.971662	-0.607225	-0.791338	-0.071146	0.763037	-0.605775	0.225412
02547	9.578325	-0.708848	2.203440	0.002277	-0.004059	0.008738	-0.221471	0.082543	0.971667	-0.607231	-0.791330	-0.071182	0.763034	-0.605792	0.225379
02548	9.474438	-0.690100	2.175780	0.003346	0.002196	0.003941	-0.221485	0.082574	0.971661	-0.607236	-0.791328	-0.071167	0.763026	-0.605790	0.225409
02549	9.502613	-0.722022	2.177194	0.002163	-0.003364	0.006697	-0.221472	0.082550	0.971666	-0.607240	-0.791324	-0.071179	0.763027	-0.605799	0.225384
02550	9.501382	-0.664720	2.222117	0.006848	0.001679	0.005797	-0.221493	0.082564	0.971660	-0.607214	-0.791344	-0.071174	0.763042	-0.605770	0.225411
02551	9.525881	-0.681866	2.204506	0.003730	-0.001907	0.005939	-0.221488	0.082554	0.971662	-0.607210	-0.791347	-0.071177	0.763046	-0.605768	0.225402
02552	9.502133	-0.704146	2.192073	0.003602	-0.000539	0.005273	-0.221489	0.082559	0.971662	-0.607210	-0.791347	-0.071175	0.763046	-0.605767	0.225405
02553	9.525832	-0.682712	2.204452	0.003474	0.000828	0.004606	-0.221499	0.082574	0.971658	-0.607215	-0.791344	-0.071170	0.763039	-0.605769	0.225422
02554	9.533958	-0.751236	2.212459	0.002305	-0.005404	0.005989	-0.221467	0.082543	0.971668	-0.607223	-0.791337	-0.071177	0.763042	-0.605782	0.225378
02555	9.477603	-0.688661	2.209310	0.001794	0.000067	0.003324	-0.221461	0.082566	0.971668	-0.607237	-0.791328	-0.071159	0.763032	-0.605792	0.225385
02556	9.525887	-0.683896	2.203849	0.003872	-0.003947	0.005230	-0.221436	0.082549	0.971675	-0.607235	-0.791330	-0.071155	0.763041	-0.605791	0.225356
02557	9.525912	-0.684225	2.203638	0.005311	-0.001123	0.003805	-0.221423	0.082563	0.971677	-0.607222	-0.791342	-0.071132	0.763056	-0.605773	0.225355
02558	9.522647	-0.689112	2.169439	0.002036	-0.001996	0.006031	-0.221417	0.082553	0.971679	-0.607231	-0.791334	-0.071140	0.763049	-0.605785	0.225344
02559	9.457153	-0.707510	2.230456	0.003603	-0.000539	0.005272	-0.221418	0.082557	0.971678	-0.607228	-0.791337	-0.071135	0.763052	-0.605781	0.225347
02560	9.546747	-0.687464	2.166661	0.003603	-0.000539	0.005272	-0.221419	0.082561	0.971678	-0.607227	-0.791338	-0.071132	0.763052	-0.605779	0.225350
02561	9.505361	-0.703222	2.225168	0.003476	0.000828	0.004606	-0.221427	0.082582	0.971674	-0.607230	-0.791337	-0.071122	0.763048	-0.605778	0.225369
02562	9.525829	-0.686358	2.203334	0.003858	-0.003274	0.006605	-0.221415	0.082559	0.971679	-0.607224	-0.791340	-0.071131	0.763056	-0.605776	0.225346
02563	9.501720	-0.689373	2.205723	0.002050	-0.002668	0.004656	-0.221396	0.082552	0.971684	-0.607239	-0.791329	-0.071129	0.763050	-0.605791	0.225326
02564	9.505760	-0.723729	2.209735	0.003489	0.000155	0.003231	-0.221390	0.082576	0.971683	-0.607243	-0.791328	-0.071106	0.763048	-0.605790	0.225336
02565	9.525832	-0.687470	2.202976	0.003604	-0.000539	0.005272	-0.221392	0.082584	0.971682	-0.607241	-0.791330	-0.071100	0.763049	-0.605786	0.225342
02566	9.502054	-0.709781	2.190600	0.005412	-0.001146	0.007221	-0.221400	0.082569	0.971681	-0.607222	-0.791343	-0.071112	0.763062	-0.605771	0.225341
02567	9.521738	-0.654508	2.198783	0.001896	0.000045	0.006740	-0.221414	0.082565	0.971678	-0.607233	-0.791333	-0.071128	0.763049	-0.605784	0.225348
02568	9.529387	-0.703852	2.221981	0.001910	-0.000628	0.005365	-0.221415	0.082567	0.971678	-0.607246	-0.791324	-0.071130	0.763039	-0.605796	0.225349
02569	9.501563	-0.692037	2.205566	0.003477	0.000828	0.004606	-0.221423	0.082586	0.971675	-0.607244	-0.791326	-0.071119	0.763038	-0.605791	0.225368
02570	9.477037	-0.675747	2.223106	0.003859	-0.003274	0.006605	-0.221411	0.082564	0.971679	-0.607238	-0.791329	-0.071129	0.763046	-0.605790	0.225345
02571	9.526065	-0.709788	2.187667	0.005413	-0.001146	0.007221	-0.221420	0.082550	0.971678	-0.607218	-0.791344	-0.071140	0.763059	-0.605773	0.225345
02572	9.529663	-0.724938	2.206858	-0.000154	0.002713	0.002083	-0.221426	0.082599	0.971673	-0.607254	-0.791319	-0.071114	0.763029	-0.605798	0.225377
02573	9.529251	-0.706026	2.221875	0.002037	-0.001995	0.006031	-0.221420	0.082586	0.971675	-0.607263	-0.791311	-0.071123	0.763023	-0.605811	0.225363
02574	9.505102	-0.709008	2.224438	0.005299	-0.000451	0.005179	-0.221421	0.082592	0.971675	-0.607250	-0.791322	-0.071116	0.763033	-0.605796	0.225369
02575	9.528841	-0.687599	2.236742	0.003605	-0.000540	0.005272	-0.221423	0.082596	0.971674	-0.607248	-0.791323	-0.071113	0.763035	-0.605793	0.225373
02576	9.549679	-0.689914	2.200021	0.003490	0.000155	0.003231	-0.221416	0.082621	0.971673	-0.607253	-0.791322	-0.071090	0.763032	-0.605792	0.225383
02577	9.529175	-0.707753	2.221652	0.003961	-0.003296	0.010021	-0.221424	0.082571	0.971675	-0.607236	-0.791331	-0.071131	0.763043	-0.605787	0.225360
02578	9.501356	-0.696170	2.205157	0.005160	0.001589	0.005887	-0.221445	0.082583	0.971670	-0.607223	-0.791341	-0.071130	0.763048	-0.605771	0.225385
02579	9.501305	-0.696676	2.205215	0.005414	-0.001146	0.007221	-0.221449	0.082567	0.971670	-0.607204	-0.791354	-0.071141	0.763062	-0.605756	0.225380
02580	9.525053	-0.675295	2.217503	0.001796	0.000067	0.003323	-0.221443	0.082590	0.971670	-0.607222	-0.791343	-0.071123	0.763050	-0.605769	0.225388
02581	9.529049	-0.709742	2.221557	0.002038	-0.001995	0.006031	-0.221438	0.082581	0.971671	-0.607232	-0.791334	-0.071131	0.763043	-0.605781	0.225378
02582	9.521768	-0.680846	2.183144	0.002152	-0.002689	0.008073	-0.221440	0.082550	0.971674	-0.607236	-0.791328	-0.071158	0.763039	-0.605793	0.225359
02583	9.476412	-0.662673	2.237300	0.003733	-0.001907	0.005939	-0.221433	0.082536	0.971676	-0.607233	-0.791330	-0.071164	0.763043	-0.605792	0.225346
02584	9.528679	-0.692115	2.236038	0.005300	-0.000452	0.005179	-0.221434	0.082542	0.971676	-0.607220	-0.791341	-0.071156	0.763054	-0.605777	0.225351
02585	9.521722	-0.682441	2.182846	0.003708	-0.000561	0.008688	-0.221454	0.082518	0.971673	-0.607216	-0.791341	-0.071186	0.763051	-0.605780	0.225352
02586	9.504849	-0.714995	2.223600	0.005440	-0.002493	0.004471	-0.221435	0.082517	0.971678	-0.607203	-0.791352	-0.071172	0.763067	-0.605766	0.225338
02587	9.525373	-0.698033	2.201637	0.005440	-0.002493	0.004471	-0.221416	0.082515	0.971682	-0.607192	-0.791362	-0.071158	0.763081	-0.605753	0.225323
02588	9.497253	-0.666818	2.200000	0.001924	-0.001301	0.003990	-0.221404	0.082524	0.971684	-0.607207	-0.791352	-0.071147	0.763072	-0.605766	0.225318
02589	9.528658	-0.694227	2.235474	0.001912	-0.000627	0.005364	-0.221404	0.082529	0.971684	-0.607219	-0.791343	-0.071147	0.763063	-0.605777	0.225320
02590	9.545852	-0.682015	2.179578	0.005416	-0.001146	0.007220	-0.221412	0.082514	0.971683	-0.607200	-0.791356	-0.071159	0.763076	-0.605762	0.225318
02591	9.528975	-0.714701	2.220286	0.000459	-0.002776	0.008166	-0.221414	0.082479	0.971686	-0.607218	-0.791339	-0.071194	0.763061	-0.605789	0.225296
02592	9.524992	-0.681282	2.215933	0.003734	-0.001907	0.005938	-0.221409	0.082469	0.971688	-0.607215	-0.791341	-0.071197	0.763065	-0.605787	0.225286
02593	9.501201	-0.703435	2.203519	0.005314	-0.001126	0.003804	-0.221396	0.082483	0.971689	-0.607204	-0.791351	-0.071175	0.763077	-0.605772	0.225286
02594	9.524980	-0.681979	2.215770	0.003607	-0.000540	0.005271	-0.221397	0.082487	0.971689	-0.607204	-0.791352	-0.071172	0.763077	-0.605770	0.225290
02595	9.497850	-0.708783	2.169463	0.001773	0.001413	0.006072	-0.221417	0.082496	0.971683	-0.607216	-0.791342	-0.071181	0.763061	-0.605783	0.225310
02596	9.524933	-0.682942	2.215674	0.005695	-0.005228	0.005805	-0.221386	0.082468	0.971693	-0.607199	-0.791355	-0.071179	0.763085	-0.605769	0.225269
02597	9.550116	-0.738836	2.167913	0.001901	0.000046	0.006739	-0.221420	0.082516	0.971681	-0.607252	-0.791314	-0.071177	0.763032	-0.605816	0.225321
02598	9.497140	-0.671706	2.199001	0.003608	-0.000540	0.005271	-0.221421	0.082520	0.971681	-0.607252	-0.791315	-0.071175	0.763032	-0.605814	0.225324
02599	9.553013	-0.715973	2.216846	0.003734	-0.001907	0.005938	-0.221415	0.082510	0.971683	-0.607248	-0.791317	-0.071178	0.763037	-0.605813	0.225314
02600	9.504393	-0.702144	2.236977	0.003735	-0.001907	0.005938	-0.221410	0.082501	0.971685	-0.607245	-0.791319	-0.071181	0.763040	-0.605811	0.225304
02601	9.525216	-0.704618	2.200218	0.003481	0.000827	0.004604	-0.221419	0.082519	0.971681	-0.607250	-0.791317	-0.071173	0.763034	-0.605812	0.225322
02602	9.525203	-0.704952	2.200170	0.005441	-0.002494	0.004471	-0.221400	0.082517	0.971686	-0.607237	-0.791328	-0.071159	0.763050	-0.605798	0.225308
02603	9.500056	-0.650108	2.247521	0.003838	-0.001927	0.009354	-0.221415	0.082480	0.971685	-0.607225	-0.791334	-0.071195	0.763055	-0.605795	0.225297
02604	9.525525	-0.725399	2.184895	0.000230	-0.001387	0.004083	-0.221402	0.082489	0.971688	-0.607253	-0.791313	-0.071188	0.763037	-0.605821	0.225290
02605	9.549013	-0.684693	2.211961	0.003747	-0.002581	0.004564	-0.221382	0.082486	0.971692	-0.607255	-0.791312	-0.071178	0.763041	-0.605823	0.225272
02606	9.501052	-0.709525	2.202207	0.002017	-0.000647	0.008780	-0.221404	0.082461	0.971690	-0.607259	-0.791306	-0.071213	0.763031	-0.605834	0.225273
02607	9.548981	-0.685906	2.211724	0.003735	-0.001907	0.005938	-0.221400	0.082453	0.971691	-0.607256	-0.791308	-0.071217	0.763034	-0.605833	0.225266
02608	9.504314	-0.706159	2.236050	0.003724	-0.001234	0.007313	-0.221409	0.082437	0.971690	-0.607251	-0.791311	-0.071234	0.763037	-0.605831	0.225263
02609	9.549285	-0.706112	2.196590	0.003505	-0.000521	0.001855	-0.221390	0.082470	0.971692	-0.607258	-0.791308	-0.071198	0.763036	-0.605831	0.225268
02610	9.497087	-0.677280	2.197520	0.005695	-0.005229	0.005806	-0.221359	0.082441	0.971701	-0.607241	-0.791322	-0.071195	0.763059	-0.605816	0.225228
02611	9.504039	-0.687898	2.250460	0.003609	-0.000540	0.005271	-0.221360	0.082446	0.971701	-0.607242	-0.791321	-0.071193	0.763058	-0.605817	0.225232
02612	9.521603	-0.694810	2.179461	0.002075	-0.004015	0.001909	-0.221314	0.082456	0.971710	-0.607261	-0.791309	-0.071161	0.763056	-0.605830	0.225200
02613	9.500790	-0.693103	2.215968	0.003725	-0.001234	0.007312	-0.221322	0.082439	0.971710	-0.607254	-0.791313	-0.071177	0.763059	-0.605828	0.225196
02614	9.528545	-0.705925	2.232291	0.003736	-0.001907	0.005938	-0.221317	0.082430	0.971712	-0.607251	-0.791315	-0.071181	0.763063	-0.605827	0.225187
02615	9.500754	-0.694070	2.215818	0.003483	0.000827	0.004603	-0.221325	0.082450	0.971708	-0.607251	-0.791316	-0.071169	0.763061	-0.605822	0.225206
02616	9.552954	-0.723580	2.214631	0.005432	-0.001821	0.005845	-0.221320	0.082442	0.971710	-0.607235	-0.791328	-0.071168	0.763075	-0.605808	0.225199
02617	9.497083	-0.680313	2.196601	0.003714	-0.000560	0.008686	-0.221339	0.082417	0.971708	-0.607226	-0.791333	-0.071198	0.763076	-0.605805	0.225199
02618	9.528406	-0.707858	2.232271	0.003357	0.002194	0.003936	-0.221353	0.082449	0.971702	-0.607230	-0.791331	-0.071183	0.763069	-0.605804	0.225229
02619	9.500593	-0.695938	2.215926	0.003610	-0.000540	0.005271	-0.221355	0.082453	0.971701	-0.607229	-0.791332	-0.071180	0.763069	-0.605801	0.225233
02620	9.524410	-0.674647	2.228096	0.002041	-0.001993	0.006032	-0.221349	0.082442	0.971704	-0.607239	-0.791324	-0.071188	0.763063	-0.605814	0.225221
02621	9.524713	-0.694451	2.213041	0.001915	-0.000626	0.005364	-0.221353	0.082449	0.971702	-0.607248	-0.791317	-0.071187	0.763055	-0.605822	0.225228
02622	9.500857	-0.716636	2.200746	0.005306	-0.000455	0.005177	-0.221354	0.082455	0.971701	-0.607235	-0.791328	-0.071180	0.763065	-0.605807	0.225233
02623	9.500832	-0.717176	2.200678	0.000336	-0.001405	0.007499	-0.221360	0.082435	0.971702	-0.607256	-0.791309	-0.071206	0.763046	-0.605834	0.225223
02624	9.527949	-0.691294	2.246973	0.005191	0.000238	0.003136	-0.221354	0.082461	0.971701	-0.607248	-0.791317	-0.071178	0.763054	-0.605819	0.225235
02625	9.524603	-0.696324	2.212925	0.003716	-0.000559	0.008686	-0.221376	0.082438	0.971698	-0.607239	-0.791322	-0.071208	0.763056	-0.605816	0.225239
02626	9.528182	-0.711575	2.232045	0.001800	0.000067	0.003322	-0.221369	0.082461	0.971697	-0.607256	-0.791310	-0.071190	0.763043	-0.605829	0.225247
02627	9.541149	-0.645900	2.186954	0.007002	-0.000369	0.005084	-0.221373	0.082469	0.971696	-0.607230	-0.791331	-0.071179	0.763064	-0.605800	0.225257
02628	9.524503	-0.697579	2.212963	0.003601	0.000134	0.006644	-0.221387	0.082466	0.971693	-0.607226	-0.791333	-0.071189	0.763062	-0.605798	0.225267
02629	9.524795	-0.717459	2.197892	0.002168	-0.003360	0.006699	-0.221376	0.082443	0.971697	-0.607231	-0.791329	-0.071201	0.763062	-0.605807	0.225243
02630	9.544735	-0.662097	2.205768	0.003622	-0.001215	0.003897	-0.221363	0.082454	0.971699	-0.607233	-0.791328	-0.071185	0.763064	-0.605806	0.225240
02631	9.528743	-0.752204	2.201699	0.003759	-0.003256	0.003190	-0.221332	0.082458	0.971706	-0.607239	-0.791326	-0.071163	0.763069	-0.605808	0.225217
02632	9.492876	-0.652851	2.191639	0.001916	-0.000626	0.005364	-0.221333	0.082461	0.971706	-0.607251	-0.791317	-0.071165	0.763059	-0.605820	0.225219
02633	9.528118	-0.714343	2.231435	0.003486	0.000826	0.004603	-0.221342	0.082479	0.971702	-0.607251	-0.791317	-0.071157	0.763056	-0.605817	0.225237
02634	9.500027	-0.683128	2.229958	0.003612	-0.000541	0.005270	-0.221343	0.082483	0.971701	-0.607250	-0.791318	-0.071154	0.763056	-0.605815	0.225241
02635	9.524443	-0.700493	2.212298	0.005423	-0.001148	0.007219	-0.221353	0.082469	0.971700	-0.607230	-0.791333	-0.071166	0.763070	-0.605798	0.225241
02636	9.520833	-0.686194	2.193034	0.005444	-0.002497	0.004471	-0.221334	0.082468	0.971705	-0.607217	-0.791344	-0.071151	0.763085	-0.605784	0.225227
02637	9.500299	-0.703753	2.214718	0.001917	-0.000626	0.005364	-0.221337	0.082472	0.971704	-0.607228	-0.791335	-0.071153	0.763076	-0.605794	0.225231
02638	9.548587	-0.699363	2.209206	0.005560	-0.003189	0.006513	-0.221325	0.082450	0.971708	-0.607210	-0.791349	-0.071157	0.763093	-0.605780	0.225210
02639	9.528354	-0.736241	2.215907	0.003623	-0.001215	0.003896	-0.221312	0.082458	0.971711	-0.607215	-0.791346	-0.071144	0.763093	-0.605782	0.225204
02640	9.496668	-0.690523	2.195209	0.000317	-0.000054	0.010247	-0.221347	0.082426	0.971706	-0.607228	-0.791331	-0.071196	0.763072	-0.605806	0.225210
02641	9.524384	-0.703357	2.211646	0.003507	-0.000523	0.001855	-0.221327	0.082457	0.971707	-0.607236	-0.791328	-0.071160	0.763072	-0.605806	0.225213
02642	9.520216	-0.650314	2.222217	0.003865	-0.003274	0.006606	-0.221315	0.082434	0.971712	-0.607231	-0.791331	-0.071170	0.763079	-0.605805	0.225190
02643	9.500251	-0.706662	2.213994	0.005425	-0.001148	0.007218	-0.221323	0.082419	0.971712	-0.607213	-0.791344	-0.071182	0.763092	-0.605790	0.225188
02644	9.520766	-0.689925	2.192155	0.001802	0.000067	0.003322	-0.221316	0.082443	0.971711	-0.607231	-0.791332	-0.071164	0.763079	-0.605802	0.225196
02645	9.544886	-0.687826	2.189480	0.005309	-0.000456	0.005176	-0.221317	0.082448	0.971711	-0.607215	-0.791345	-0.071155	0.763092	-0.605785	0.225201
02646	9.524615	-0.724753	2.196277	0.002044	-0.001992	0.006032	-0.221311	0.082437	0.971713	-0.607225	-0.791337	-0.071163	0.763085	-0.605797	0.225189
02647	9.520743	-0.691146	2.191872	0.003749	-0.002582	0.004564	-0.221291	0.082433	0.971718	-0.607224	-0.791338	-0.071153	0.763092	-0.605796	0.225172
02648	9.496879	-0.713415	2.179454	0.000338	-0.001402	0.007499	-0.221299	0.082414	0.971717	-0.607244	-0.791321	-0.071179	0.763074	-0.605821	0.225164
02649	9.524056	-0.687514	2.225673	0.008710	-0.000962	0.003615	-0.221285	0.082430	0.971719	-0.607208	-0.791351	-0.071147	0.763107	-0.605779	0.225166
02650	9.496598	-0.694872	2.194141	0.003865	-0.003274	0.006606	-0.221273	0.082407	0.971724	-0.607202	-0.791355	-0.071156	0.763114	-0.605778	0.225144
02651	9.500151	-0.710125	2.213317	-0.001860	0.003981	0.004920	-0.221306	0.082440	0.971714	-0.607243	-0.791322	-0.071162	0.763072	-0.605815	0.225186
02652	9.517046	-0.678661	2.172445	0.005445	-0.002498	0.004471	-0.221287	0.082439	0.971718	-0.607231	-0.791334	-0.071148	0.763088	-0.605801	0.225171
02653	9.492627	-0.662118	2.189936	0.003614	-0.000541	0.005270	-0.221289	0.082443	0.971717	-0.607227	-0.791336	-0.071145	0.763090	-0.605797	0.225176
02654	9.527833	-0.723658	2.229650	0.003740	-0.001908	0.005938	-0.221284	0.082434	0.971719	-0.607224	-0.791338	-0.071148	0.763094	-0.605795	0.225167
02655	9.523949	-0.690061	2.225342	0.003614	-0.000541	0.005270	-0.221281	0.082438	0.971719	-0.607223	-0.791340	-0.071142	0.763096	-0.605793	0.225167
02656	9.520597	-0.695081	2.191259	0.003615	-0.000541	0.005270	-0.221282	0.082443	0.971719	-0.607222	-0.791341	-0.071139	0.763096	-0.605791	0.225171
02657	9.492573	-0.663821	2.189656	0.001928	-0.001300	0.003990	-0.221268	0.082450	0.971721	-0.607240	-0.791328	-0.071129	0.763085	-0.605807	0.225163
02658	9.527500	-0.706158	2.244252	0.003847	-0.001925	0.009353	-0.221284	0.082414	0.971721	-0.607229	-0.791333	-0.071166	0.763090	-0.605805	0.225153
02659	9.520041	-0.657820	2.220755	0.007025	-0.001723	0.002335	-0.221258	0.082435	0.971725	-0.607214	-0.791348	-0.071128	0.763109	-0.605783	0.225148
02660	9.520559	-0.696781	2.190883	0.003606	0.000134	0.006643	-0.221273	0.082432	0.971722	-0.607211	-0.791350	-0.071138	0.763108	-0.605781	0.225158
02661	9.499983	-0.714402	2.212662	0.005437	-0.001824	0.005844	-0.221268	0.082423	0.971724	-0.607194	-0.791363	-0.071138	0.763123	-0.605765	0.225150
02662	9.544419	-0.676031	2.202905	0.002045	-0.001991	0.006032	-0.221262	0.082412	0.971726	-0.607203	-0.791355	-0.071146	0.763117	-0.605777	0.225138
02663	9.503578	-0.730133	2.231474	0.002045	-0.001991	0.006032	-0.221259	0.082403	0.971727	-0.607213	-0.791346	-0.071154	0.763110	-0.605789	0.225129
02664	9.520513	-0.698854	2.190424	0.001911	0.000050	0.006737	-0.221274	0.082399	0.971724	-0.607223	-0.791338	-0.071170	0.763098	-0.605801	0.225137
02665	9.523590	-0.675401	2.239237	0.005572	-0.003866	0.005139	-0.221250	0.082384	0.971731	-0.607208	-0.791350	-0.071162	0.763117	-0.605787	0.225111
02666	9.499714	-0.697519	2.226836	0.003616	-0.000541	0.005269	-0.221251	0.082389	0.971730	-0.607207	-0.791351	-0.071159	0.763117	-0.605785	0.225115
02667	9.516653	-0.666032	2.185856	0.001803	0.000067	0.003321	-0.221247	0.082415	0.971729	-0.607222	-0.791341	-0.071139	0.763106	-0.605794	0.225126
02668	9.527391	-0.710702	2.243282	0.003724	-0.000558	0.008685	-0.221269	0.082392	0.971726	-0.607213	-0.791345	-0.071169	0.763107	-0.605792	0.225130
02669	9.540996	-0.684001	2.168191	0.003625	-0.001216	0.003896	-0.221254	0.082402	0.971729	-0.607214	-0.791346	-0.071152	0.763110	-0.605790	0.225124
02670	9.524016	-0.716210	2.209101	0.001920	-0.000625	0.005363	-0.221255	0.082405	0.971728	-0.607227	-0.791336	-0.071154	0.763100	-0.605802	0.225125
02671	9.496004	-0.685090	2.207488	0.003733	-0.001233	0.007311	-0.221265	0.082387	0.971727	-0.607222	-0.791338	-0.071174	0.763101	-0.605803	0.225123
02672	9.544265	-0.681017	2.202037	0.002028	-0.000641	0.008779	-0.221287	0.082363	0.971724	-0.607226	-0.791332	-0.071208	0.763091	-0.605814	0.225124
02673	9.499509	-0.701082	2.226592	0.003491	0.000825	0.004601	-0.221295	0.082381	0.971721	-0.607227	-0.791332	-0.071199	0.763088	-0.605812	0.225142
02674	9.516717	-0.688928	2.170653	0.005447	-0.002500	0.004471	-0.221276	0.082380	0.971726	-0.607214	-0.791343	-0.071184	0.763104	-0.605797	0.225127
02675	9.547791	-0.696938	2.221071	0.001804	0.000067	0.003321	-0.221272	0.082405	0.971724	-0.607234	-0.791330	-0.071167	0.763090	-0.605811	0.225138
02676	9.495861	-0.687488	2.207357	0.001904	0.000726	0.008110	-0.221300	0.082394	0.971719	-0.607240	-0.791322	-0.071195	0.763077	-0.605822	0.225152
02677	9.519961	-0.685660	2.204703	0.005313	-0.000458	0.005175	-0.221301	0.082398	0.971718	-0.607227	-0.791332	-0.071190	0.763086	-0.605808	0.225157
02678	9.520409	-0.724698	2.174942	0.003492	0.000825	0.004600	-0.221309	0.082416	0.971715	-0.607229	-0.791332	-0.071180	0.763083	-0.605807	0.225174
02679	9.519898	-0.686427	2.204734	0.005438	-0.001825	0.005844	-0.221302	0.082409	0.971717	-0.607212	-0.791345	-0.071176	0.763098	-0.605790	0.225166
02680	9.523456	-0.701490	2.223879	-0.000017	0.001351	0.002746	-0.221302	0.082445	0.971714	-0.607245	-0.791322	-0.071157	0.763072	-0.605815	0.225185
02681	9.516534	-0.691831	2.170535	0.003993	-0.004641	0.007276	-0.221285	0.082410	0.971721	-0.607237	-0.791326	-0.071172	0.763083	-0.605814	0.225151
02682	9.544040	-0.685396	2.201654	0.000225	-0.000707	0.005457	-0.221286	0.082412	0.971720	-0.607262	-0.791307	-0.071179	0.763063	-0.605840	0.225151
02683	9.523686	-0.722215	2.208571	0.001805	0.000067	0.003321	-0.221280	0.082438	0.971720	-0.607280	-0.791295	-0.071158	0.763051	-0.605851	0.225161
02684	9.516300	-0.673676	2.185050	0.005455	-0.003176	0.003098	-0.221248	0.082444	0.971726	-0.607270	-0.791305	-0.071130	0.763068	-0.605838	0.225140
02685	9.519881	-0.688872	2.204045	0.002030	-0.000640	0.008778	-0.221273	0.082419	0.971723	-0.607275	-0.791298	-0.071168	0.763057	-0.605850	0.225144
02686	9.516019	-0.655351	2.199840	0.006885	0.000991	0.004412	-0.221280	0.082439	0.971720	-0.607251	-0.791318	-0.071149	0.763074	-0.605822	0.225164
02687	9.499248	-0.706790	2.225900	0.003751	-0.002583	0.004565	-0.221259	0.082438	0.971724	-0.607249	-0.791321	-0.071136	0.763082	-0.605818	0.225147
02688	9.523398	-0.704906	2.223050	0.003735	-0.001232	0.007311	-0.221267	0.082422	0.971724	-0.607243	-0.791324	-0.071153	0.763084	-0.605816	0.225144
02689	9.543958	-0.688307	2.201101	0.001930	-0.001300	0.003990	-0.221257	0.082433	0.971725	-0.607256	-0.791315	-0.071141	0.763076	-0.605826	0.225142
02690	9.499503	-0.727394	2.210487	0.003884	-0.004626	0.003861	-0.221219	0.082424	0.971735	-0.607256	-0.791316	-0.071124	0.763087	-0.605826	0.225106
02691	9.543744	-0.669627	2.215730	0.001540	0.004151	0.004729	-0.221249	0.082457	0.971725	-0.607276	-0.791302	-0.071122	0.763063	-0.605841	0.225149
02692	9.495610	-0.694115	2.206361	0.005440	-0.001826	0.005844	-0.221244	0.082449	0.971727	-0.607260	-0.791314	-0.071120	0.763077	-0.605826	0.225141
02693	9.519773	-0.692246	2.203455	0.003869	-0.003274	0.006607	-0.221234	0.082425	0.971731	-0.607257	-0.791314	-0.071132	0.763082	-0.605828	0.225119
02694	9.471448	-0.697358	2.208832	0.005065	0.002274	0.003836	-0.221248	0.082458	0.971725	-0.607249	-0.791323	-0.071112	0.763085	-0.605813	0.225151
02695	9.543849	-0.690769	2.200801	0.000343	-0.001397	0.007499	-0.221255	0.082440	0.971725	-0.607266	-0.791308	-0.071136	0.763069	-0.605835	0.225144
02696	9.519922	-0.712878	2.188473	0.005331	-0.001811	0.002429	-0.221229	0.082459	0.971729	-0.607258	-0.791317	-0.071102	0.763083	-0.605821	0.225136
02697	9.519517	-0.674476	2.218006	0.002180	-0.004032	0.005328	-0.221204	0.082444	0.971736	-0.607268	-0.791309	-0.071101	0.763082	-0.605832	0.225107
02698	9.499368	-0.730795	2.209945	0.003604	0.000810	0.008015	-0.221232	0.082435	0.971731	-0.607261	-0.791312	-0.071125	0.763079	-0.605830	0.225123
02699	9.543660	-0.673252	2.214993	0.005698	-0.005235	0.005809	-0.221201	0.082409	0.971740	-0.607242	-0.791328	-0.071120	0.763104	-0.605813	0.225085
02700	9.519970	-0.714765	2.187649	0.000227	-0.000706	0.005457	-0.221202	0.082410	0.971740	-0.607267	-0.791308	-0.071127	0.763084	-0.605838	0.225084
02701	9.471429	-0.700485	2.207927	0.003503	0.000149	0.003226	-0.221199	0.082437	0.971738	-0.607269	-0.791308	-0.071104	0.763083	-0.605834	0.225098
02702	9.567993	-0.691418	2.197186	0.001799	0.000743	0.004694	-0.221206	0.082453	0.971735	-0.607283	-0.791298	-0.071100	0.763069	-0.605846	0.225113
02703	9.495503	-0.698822	2.205335	0.007013	-0.000378	0.005080	-0.221206	0.082459	0.971735	-0.607257	-0.791319	-0.071087	0.763090	-0.605818	0.225118
02704	9.519416	-0.677432	2.217539	0.001806	0.000067	0.003321	-0.221200	0.082482	0.971734	-0.607275	-0.791307	-0.071069	0.763078	-0.605830	0.225126
02705	9.523371	-0.731224	2.206963	0.005309	0.000216	0.006547	-0.221214	0.082480	0.971731	-0.607260	-0.791318	-0.071075	0.763086	-0.605816	0.225138
02706	9.519108	-0.659067	2.232541	0.003605	0.000810	0.008014	-0.221242	0.082471	0.971726	-0.607253	-0.791321	-0.071099	0.763083	-0.605814	0.225154
02707	9.519479	-0.698392	2.202785	0.005434	-0.001150	0.007216	-0.221248	0.082455	0.971725	-0.607236	-0.791333	-0.071111	0.763095	-0.605800	0.225151
02708	9.491775	-0.686518	2.186113	0.003877	-0.003950	0.005234	-0.221223	0.082439	0.971733	-0.607233	-0.791335	-0.071107	0.763104	-0.605799	0.225121
02709	9.543863	-0.716339	2.184791	0.001924	-0.000623	0.005363	-0.221225	0.082445	0.971732	-0.607244	-0.791327	-0.071107	0.763095	-0.605809	0.225125
02710	9.526623	-0.729079	2.240645	0.005324	-0.001136	0.003801	-0.221212	0.082457	0.971733	-0.607234	-0.791337	-0.071086	0.763107	-0.605794	0.225124
02711	9.488212	-0.672999	2.166570	0.002049	-0.001989	0.006032	-0.221207	0.082448	0.971736	-0.607241	-0.791330	-0.071092	0.763103	-0.605804	0.225113
02712	9.523045	-0.715337	2.221227	0.003738	-0.001232	0.007311	-0.221215	0.082432	0.971735	-0.607235	-0.791334	-0.071109	0.763105	-0.605802	0.225110
02713	9.543620	-0.698664	2.199301	0.003511	-0.000527	0.001853	-0.221198	0.082464	0.971736	-0.607243	-0.791331	-0.071073	0.763104	-0.605801	0.225116
02714	9.487953	-0.654963	2.181296	0.003607	0.000811	0.008014	-0.221226	0.082454	0.971731	-0.607236	-0.791334	-0.071097	0.763101	-0.605798	0.225133
02715	9.519605	-0.721234	2.187114	0.005449	-0.002503	0.004471	-0.221202	0.082449	0.971736	-0.607226	-0.791343	-0.071083	0.763116	-0.605787	0.225112
02716	9.519208	-0.682911	2.216750	0.001925	-0.000623	0.005363	-0.221203	0.082452	0.971736	-0.607238	-0.791334	-0.071085	0.763106	-0.605799	0.225114
02717	9.519382	-0.702734	2.201825	0.001925	-0.000623	0.005363	-0.221205	0.082456	0.971735	-0.607250	-0.791324	-0.071087	0.763096	-0.605811	0.225117
02718	9.498557	-0.700813	2.238603	0.003497	0.000825	0.004599	-0.221213	0.082474	0.971732	-0.607252	-0.791324	-0.071077	0.763092	-0.605809	0.225133
02719	9.539900	-0.686522	2.180020	0.003622	-0.000542	0.005268	-0.221212	0.082477	0.971732	-0.607253	-0.791323	-0.071074	0.763092	-0.605809	0.225135
02720	9.522672	-0.699289	2.235804	0.002056	-0.002665	0.004660	-0.221193	0.082473	0.971737	-0.607265	-0.791314	-0.071069	0.763087	-0.605822	0.225116
02721	9.512034	-0.655511	2.178037	0.003760	-0.003261	0.003193	-0.221163	0.082478	0.971743	-0.607268	-0.791314	-0.071046	0.763094	-0.605821	0.225096
02722	9.519332	-0.704712	2.201407	0.003609	0.000811	0.008013	-0.221191	0.082469	0.971737	-0.607261	-0.791317	-0.071070	0.763091	-0.605819	0.225112
02723	9.543270	-0.683531	2.213527	0.005450	-0.002503	0.004471	-0.221172	0.082468	0.971742	-0.607246	-0.791330	-0.071054	0.763109	-0.605802	0.225098
02724	9.539903	-0.688704	2.179317	0.000346	-0.001394	0.007500	-0.221180	0.082449	0.971741	-0.607266	-0.791313	-0.071080	0.763091	-0.605827	0.225091
02725	9.498499	-0.703901	2.237877	0.005319	-0.000461	0.005173	-0.221181	0.082454	0.971741	-0.607255	-0.791322	-0.071074	0.763099	-0.605814	0.225096
02726	9.515516	-0.672695	2.196779	0.003740	-0.001232	0.007310	-0.221190	0.082438	0.971740	-0.607249	-0.791325	-0.071091	0.763102	-0.605813	0.225093
02727	9.522774	-0.722000	2.220232	0.005313	0.000215	0.006546	-0.221201	0.082435	0.971738	-0.607233	-0.791337	-0.071096	0.763111	-0.605797	0.225102
02728	9.515470	-0.673756	2.196656	0.005568	-0.003194	0.006513	-0.221189	0.082414	0.971742	-0.607214	-0.791350	-0.071100	0.763129	-0.605783	0.225081
02729	9.522772	-0.722918	2.219943	0.001932	-0.001299	0.003990	-0.221179	0.082425	0.971744	-0.607230	-0.791339	-0.071089	0.763120	-0.605795	0.225079
02730	9.519001	-0.689302	2.215658	0.001796	0.001420	0.006065	-0.221200	0.082435	0.971738	-0.607242	-0.791330	-0.071098	0.763104	-0.605807	0.225100
02731	9.491247	-0.677467	2.199232	0.005438	-0.001151	0.007216	-0.221210	0.082423	0.971737	-0.607222	-0.791344	-0.071108	0.763117	-0.605789	0.225102
02732	9.519094	-0.709727	2.200824	0.000105	0.000663	0.004787	-0.221217	0.082439	0.971734	-0.607249	-0.791323	-0.071108	0.763094	-0.605815	0.225115
02733	9.518868	-0.690843	2.215753	0.005314	0.000215	0.006546	-0.221228	0.082436	0.971732	-0.607231	-0.791336	-0.071112	0.763104	-0.605798	0.225124
02734	9.519032	-0.710659	2.200794	0.002057	-0.002665	0.004660	-0.221209	0.082432	0.971736	-0.607244	-0.791327	-0.071107	0.763100	-0.605810	0.225106
02735	9.522381	-0.706500	2.234778	0.005308	0.000891	0.007918	-0.221238	0.082430	0.971730	-0.607221	-0.791344	-0.071121	0.763110	-0.605789	0.225129
02736	9.518994	-0.711629	2.200646	0.002063	-0.003342	0.003288	-0.221206	0.082433	0.971737	-0.607236	-0.791333	-0.071102	0.763107	-0.605802	0.225104
02737	9.515496	-0.697304	2.181134	0.002181	-0.004031	0.005330	-0.221178	0.082414	0.971745	-0.607247	-0.791325	-0.071102	0.763107	-0.605815	0.225069
02738	9.498255	-0.710179	2.236930	0.003612	0.000811	0.008012	-0.221206	0.082405	0.971739	-0.607240	-0.791328	-0.071126	0.763104	-0.605813	0.225086
02739	9.563744	-0.693919	2.175593	0.005439	-0.001152	0.007215	-0.221215	0.082388	0.971739	-0.607226	-0.791338	-0.071141	0.763112	-0.605802	0.225084
02740	9.470660	-0.718245	2.205518	0.000236	-0.001379	0.004085	-0.221203	0.082397	0.971741	-0.607254	-0.791317	-0.071134	0.763094	-0.605828	0.225077
02741	9.535866	-0.663045	2.173755	0.005445	-0.001828	0.005843	-0.221194	0.082389	0.971743	-0.607235	-0.791332	-0.071130	0.763111	-0.605810	0.225068
02742	9.522463	-0.729313	2.219178	0.001792	0.002097	0.007437	-0.221229	0.082392	0.971735	-0.607243	-0.791324	-0.071152	0.763095	-0.605821	0.225096
02743	9.518717	-0.695672	2.214890	0.003636	-0.001896	0.002523	-0.221203	0.082411	0.971739	-0.607248	-0.791323	-0.071121	0.763098	-0.605819	0.225087
02744	9.490993	-0.683670	2.198407	0.005310	0.000891	0.007917	-0.221231	0.082403	0.971734	-0.607229	-0.791336	-0.071140	0.763106	-0.605803	0.225106
02745	9.494500	-0.699031	2.217528	0.002170	-0.002678	0.008075	-0.221231	0.082368	0.971737	-0.607232	-0.791331	-0.071169	0.763103	-0.605814	0.225083
02746	9.542959	-0.714363	2.197128	0.007019	-0.000383	0.005078	-0.221232	0.082375	0.971736	-0.607206	-0.791352	-0.071157	0.763124	-0.605786	0.225091
02747	9.470333	-0.702267	2.219993	0.003873	-0.003275	0.006608	-0.221221	0.082353	0.971740	-0.607201	-0.791355	-0.071167	0.763130	-0.605785	0.225069
02748	9.542655	-0.676402	2.226542	0.001815	-0.000610	0.001948	-0.221202	0.082383	0.971742	-0.607222	-0.791342	-0.071136	0.763120	-0.605798	0.225071
02749	9.494658	-0.719943	2.202180	0.001934	-0.001299	0.003990	-0.221189	0.082394	0.971744	-0.607235	-0.791333	-0.071122	0.763113	-0.605808	0.225067
02750	9.539286	-0.681679	2.192259	0.003755	-0.002585	0.004565	-0.221170	0.082391	0.971749	-0.607235	-0.791334	-0.071112	0.763119	-0.605807	0.225050
02751	9.522532	-0.752529	2.203420	0.000355	-0.002067	0.006127	-0.221161	0.082380	0.971752	-0.607255	-0.791317	-0.071122	0.763105	-0.605831	0.225034
02752	9.514982	-0.665617	2.209489	0.005441	-0.001152	0.007215	-0.221170	0.082365	0.971751	-0.607236	-0.791331	-0.071134	0.763117	-0.605815	0.225033
02753	9.518813	-0.719425	2.198894	0.000118	-0.000689	0.002042	-0.221154	0.082395	0.971752	-0.607272	-0.791305	-0.071110	0.763094	-0.605844	0.225036
02754	9.490629	-0.649283	2.227029	0.007010	0.000970	0.007822	-0.221182	0.082388	0.971746	-0.607240	-0.791329	-0.071124	0.763111	-0.605815	0.225057
02755	9.542903	-0.718114	2.196145	0.003873	-0.003275	0.006608	-0.221170	0.082364	0.971751	-0.607238	-0.791329	-0.071135	0.763116	-0.605817	0.225033
02756	9.514913	-0.667292	2.209279	0.006902	0.000305	0.003035	-0.221164	0.082391	0.971750	-0.607217	-0.791348	-0.071103	0.763134	-0.605789	0.225047
02757	9.542765	-0.699282	2.210780	0.002063	-0.003342	0.003288	-0.221131	0.082393	0.971757	-0.607231	-0.791339	-0.071084	0.763133	-0.605800	0.225021
02758	9.491076	-0.708954	2.181984	0.003745	-0.001231	0.007310	-0.221139	0.082377	0.971757	-0.607225	-0.791342	-0.071101	0.763135	-0.605798	0.225018
02759	9.514788	-0.649127	2.223683	0.002053	-0.001988	0.006033	-0.221132	0.082366	0.971760	-0.607235	-0.791334	-0.071108	0.763129	-0.605811	0.225004
02760	9.518897	-0.741703	2.183347	0.005329	-0.001141	0.003800	-0.221119	0.082378	0.971761	-0.607225	-0.791344	-0.071087	0.763141	-0.605796	0.225003
02761	9.515076	-0.688560	2.193768	0.001934	-0.001299	0.003990	-0.221106	0.082385	0.971764	-0.607242	-0.791331	-0.071078	0.763131	-0.605811	0.224996
02762	9.518433	-0.684367	2.227800	0.003617	0.000812	0.008011	-0.221134	0.082376	0.971758	-0.607235	-0.791334	-0.071102	0.763128	-0.605809	0.225013
02763	9.470210	-0.708768	2.218450	0.007022	-0.000385	0.005077	-0.221138	0.082383	0.971757	-0.607208	-0.791356	-0.071090	0.763149	-0.605779	0.225022
02764	9.535465	-0.653767	2.186652	0.003869	-0.002597	0.007980	-0.221139	0.082353	0.971759	-0.607199	-0.791361	-0.071113	0.763155	-0.605777	0.225006
02765	9.518511	-0.705331	2.212718	0.003751	-0.001908	0.005938	-0.221133	0.082344	0.971761	-0.607198	-0.791362	-0.071116	0.763159	-0.605777	0.224995
02766	9.539125	-0.688879	2.190706	0.001930	-0.000621	0.005362	-0.221134	0.082347	0.971761	-0.607210	-0.791352	-0.071118	0.763149	-0.605789	0.224997
02767	9.518327	-0.686886	2.227478	0.007018	0.000292	0.006449	-0.221151	0.082347	0.971757	-0.607182	-0.791374	-0.071120	0.763166	-0.605761	0.225012
02768	9.542580	-0.704482	2.209927	0.001930	-0.000621	0.005362	-0.221152	0.082350	0.971756	-0.607194	-0.791364	-0.071122	0.763156	-0.605773	0.225014
02769	9.518279	-0.687849	2.227388	0.008962	-0.002361	0.007695	-0.221155	0.082322	0.971758	-0.607149	-0.791398	-0.071134	0.763191	-0.605733	0.225003
02770	9.518551	-0.726965	2.197547	0.003637	-0.001897	0.002523	-0.221129	0.082339	0.971762	-0.607154	-0.791396	-0.071104	0.763195	-0.605733	0.224993
02771	9.487054	-0.661448	2.191562	0.001803	0.001423	0.006063	-0.221147	0.082349	0.971757	-0.607164	-0.791388	-0.071111	0.763181	-0.605742	0.225013
02772	9.542516	-0.706170	2.209667	0.005449	-0.001830	0.005842	-0.221142	0.082341	0.971759	-0.607148	-0.791400	-0.071109	0.763195	-0.605727	0.225005
02773	9.490661	-0.696440	2.195830	0.001931	-0.000621	0.005362	-0.221143	0.082344	0.971759	-0.607160	-0.791391	-0.071111	0.763186	-0.605739	0.225007
02774	9.514794	-0.694619	2.193080	0.005326	-0.000464	0.005172	-0.221144	0.082350	0.971758	-0.607147	-0.791402	-0.071103	0.763196	-0.605724	0.225013
02775	9.518419	-0.729072	2.197421	0.003628	-0.000542	0.005267	-0.221145	0.082356	0.971757	-0.607142	-0.791406	-0.071098	0.763200	-0.605717	0.225017
02776	9.490611	-0.697642	2.195665	0.003756	-0.002586	0.004566	-0.221127	0.082353	0.971762	-0.607142	-0.791407	-0.071088	0.763205	-0.605717	0.225001
02777	9.542319	-0.688967	2.224127	-0.001468	-0.000099	0.006924	-0.221143	0.082347	0.971759	-0.607176	-0.791379	-0.071113	0.763173	-0.605755	0.225007
02778	9.494088	-0.713385	2.214719	0.003629	-0.000543	0.005267	-0.221144	0.082351	0.971758	-0.607175	-0.791379	-0.071110	0.763173	-0.605753	0.225010
02779	9.559374	-0.658452	2.182935	0.005445	-0.001153	0.007214	-0.221152	0.082335	0.971758	-0.607158	-0.791392	-0.071124	0.763185	-0.605740	0.225008
02780	9.469878	-0.716601	2.217349	0.003629	-0.000543	0.005267	-0.221153	0.082339	0.971757	-0.607157	-0.791392	-0.071121	0.763185	-0.605738	0.225011
02781	9.542211	-0.690912	2.223988	0.005327	-0.000465	0.005171	-0.221154	0.082347	0.971756	-0.607142	-0.791405	-0.071110	0.763197	-0.605720	0.225019
02782	9.518168	-0.712897	2.211768	0.003756	-0.002586	0.004566	-0.221135	0.082345	0.971761	-0.607142	-0.791406	-0.071100	0.763203	-0.605719	0.225002
02783	9.514623	-0.698749	2.192510	0.003621	0.000813	0.008010	-0.221163	0.082336	0.971755	-0.607137	-0.791408	-0.071124	0.763199	-0.605718	0.225019
02784	9.517991	-0.694484	2.226557	0.005331	-0.001143	0.003800	-0.221150	0.082348	0.971757	-0.607126	-0.791418	-0.071103	0.763211	-0.605703	0.225018
02785	9.514473	-0.680184	2.207243	0.003753	-0.001908	0.005938	-0.221147	0.082340	0.971758	-0.607123	-0.791420	-0.071106	0.763214	-0.605701	0.225010
02786	9.466146	-0.685248	2.212546	-0.001344	-0.001464	0.007595	-0.221155	0.082320	0.971758	-0.607155	-0.791393	-0.071137	0.763187	-0.605740	0.225001
02787	9.542252	-0.713164	2.208558	0.005454	-0.002509	0.004471	-0.221140	0.082323	0.971761	-0.607140	-0.791405	-0.071121	0.763202	-0.605723	0.224993
02788	9.517984	-0.696331	2.226013	0.005328	-0.000465	0.005171	-0.221141	0.082328	0.971761	-0.607127	-0.791416	-0.071113	0.763213	-0.605708	0.224998
02789	9.510951	-0.667394	2.187485	0.002059	-0.002664	0.004661	-0.221118	0.082321	0.971766	-0.607137	-0.791409	-0.071107	0.763211	-0.605718	0.224975
02790	9.490297	-0.684653	2.209348	0.003507	0.000823	0.004595	-0.221126	0.082339	0.971763	-0.607139	-0.791409	-0.071098	0.763208	-0.605717	0.224992
02791	9.514420	-0.682825	2.206656	0.003630	-0.000543	0.005266	-0.221126	0.082345	0.971763	-0.607137	-0.791411	-0.071093	0.763209	-0.605713	0.224996
02792	9.538685	-0.700511	2.188934	0.002178	-0.003352	0.006704	-0.221115	0.082321	0.971767	-0.607144	-0.791404	-0.071107	0.763207	-0.605725	0.224972
02793	9.517949	-0.698359	2.225526	0.008728	-0.000989	0.003608	-0.221101	0.082336	0.971769	-0.607106	-0.791436	-0.071075	0.763241	-0.605681	0.224974
02794	9.510910	-0.669493	2.187025	-0.001343	-0.001462	0.007595	-0.221110	0.082316	0.971769	-0.607138	-0.791408	-0.071106	0.763213	-0.605720	0.224966
02795	9.524865	-0.709138	2.278536	0.007034	-0.001744	0.002332	-0.221088	0.082339	0.971772	-0.607117	-0.791428	-0.071067	0.763236	-0.605691	0.224965
02796	9.538671	-0.702202	2.188450	0.000351	-0.000707	0.008871	-0.221110	0.082314	0.971769	-0.607133	-0.791412	-0.071107	0.763217	-0.605716	0.224965
02797	9.518000	-0.719633	2.210311	0.003635	-0.001221	0.003895	-0.221098	0.082325	0.971771	-0.607137	-0.791410	-0.071091	0.763217	-0.605716	0.224962
02798	9.514475	-0.705332	2.191047	0.003631	-0.000543	0.005266	-0.221099	0.082329	0.971770	-0.607137	-0.791411	-0.071088	0.763217	-0.605715	0.224966
02799	9.542026	-0.698803	2.222316	0.003631	-0.000543	0.005266	-0.221100	0.082331	0.971770	-0.607134	-0.791413	-0.071086	0.763219	-0.605711	0.224967
02800	9.490157	-0.688924	2.208622	0.005207	0.000900	0.004499	-0.221107	0.082350	0.971766	-0.607123	-0.791423	-0.071072	0.763226	-0.605696	0.224986
02801	9.535036	-0.689588	2.169134	0.001937	-0.001298	0.003990	-0.221095	0.082359	0.971768	-0.607139	-0.791411	-0.071062	0.763216	-0.605710	0.224981
02802	9.517790	-0.702079	2.225035	0.003632	-0.000543	0.005266	-0.221096	0.082363	0.971768	-0.607139	-0.791412	-0.071059	0.763216	-0.605709	0.224984
02803	9.517765	-0.702572	2.224986	0.005449	-0.001153	0.007213	-0.221105	0.082350	0.971767	-0.607119	-0.791426	-0.071069	0.763229	-0.605692	0.224985
02804	9.514232	-0.688388	2.205737	0.005330	-0.000466	0.005170	-0.221106	0.082356	0.971766	-0.607106	-0.791437	-0.071062	0.763240	-0.605677	0.224990
02805	9.541799	-0.681771	2.236980	0.003635	-0.001221	0.003895	-0.221093	0.082365	0.971768	-0.607110	-0.791436	-0.071046	0.763240	-0.605678	0.224986
02806	9.514320	-0.708469	2.190707	0.002060	-0.002664	0.004662	-0.221074	0.082362	0.971773	-0.607122	-0.791426	-0.071041	0.763236	-0.605690	0.224967
02807	9.517654	-0.684697	2.239426	0.005330	-0.000466	0.005170	-0.221072	0.082366	0.971773	-0.607110	-0.791437	-0.071032	0.763246	-0.605677	0.224969
02808	9.517799	-0.723882	2.209790	0.005330	-0.000466	0.005170	-0.221073	0.082371	0.971773	-0.607097	-0.791448	-0.071025	0.763257	-0.605661	0.224975
02809	9.517644	-0.685533	2.239211	-0.001214	-0.004182	0.005525	-0.221046	0.082350	0.971780	-0.607134	-0.791417	-0.071036	0.763234	-0.605704	0.224937
02810	9.517692	-0.705495	2.224374	0.003382	0.003545	0.006665	-0.221087	0.082368	0.971770	-0.607133	-0.791418	-0.071047	0.763224	-0.605701	0.224980
02811	9.514113	-0.691334	2.205329	0.003633	-0.000543	0.005266	-0.221089	0.082373	0.971769	-0.607133	-0.791418	-0.071045	0.763223	-0.605700	0.224985
02812	9.514113	-0.691697	2.205215	0.005456	-0.002510	0.004471	-0.221070	0.082371	0.971773	-0.607120	-0.791429	-0.071030	0.763239	-0.605686	0.224971
02813	9.514192	-0.711468	2.190290	0.003633	-0.000543	0.005266	-0.221072	0.082374	0.971773	-0.607119	-0.791430	-0.071028	0.763239	-0.605684	0.224974
02814	9.489914	-0.694613	2.207886	0.005209	0.000899	0.004498	-0.221079	0.082393	0.971769	-0.607108	-0.791440	-0.071014	0.763246	-0.605668	0.224992
02815	9.538277	-0.710139	2.187608	0.002055	-0.001306	0.007404	-0.221089	0.082376	0.971768	-0.607117	-0.791430	-0.071037	0.763235	-0.605683	0.224988
02816	9.462115	-0.663666	2.206186	0.003513	0.000144	0.003223	-0.221083	0.082401	0.971768	-0.607122	-0.791429	-0.071015	0.763233	-0.605682	0.224998
02817	9.541665	-0.706371	2.221474	0.003995	-0.003282	0.010024	-0.221093	0.082351	0.971770	-0.607107	-0.791437	-0.071057	0.763243	-0.605678	0.224977
02818	9.517564	-0.728533	2.209272	0.001815	0.000068	0.003318	-0.221087	0.082374	0.971769	-0.607124	-0.791425	-0.071040	0.763231	-0.605690	0.224985
02819	9.510398	-0.660839	2.200426	0.005452	-0.001154	0.007213	-0.221097	0.082358	0.971768	-0.607106	-0.791437	-0.071054	0.763242	-0.605676	0.224985
02820	9.517512	-0.729494	2.209179	0.000237	-0.000695	0.005457	-0.221098	0.082360	0.971768	-0.607131	-0.791418	-0.071061	0.763222	-0.605702	0.224984
02821	9.486192	-0.663998	2.203059	0.005332	-0.000467	0.005170	-0.221099	0.082364	0.971767	-0.607119	-0.791428	-0.071054	0.763231	-0.605688	0.224988
02822	9.541567	-0.708803	2.221120	0.002058	-0.001985	0.006033	-0.221093	0.082354	0.971769	-0.607129	-0.791420	-0.071062	0.763225	-0.605700	0.224977
02823	9.513883	-0.696753	2.204615	0.005210	0.000898	0.004498	-0.221101	0.082374	0.971766	-0.607116	-0.791430	-0.071047	0.763233	-0.605684	0.224997
02824	9.517246	-0.672812	2.253369	0.005459	-0.003190	0.003100	-0.221069	0.082379	0.971773	-0.607107	-0.791440	-0.071019	0.763250	-0.605670	0.224976
02825	9.589890	-0.705651	2.215266	0.003996	-0.003282	0.010024	-0.221076	0.082329	0.971775	-0.607093	-0.791447	-0.071060	0.763258	-0.605668	0.224951
02826	9.465545	-0.702315	2.209766	0.004968	0.002950	0.001783	-0.221082	0.082382	0.971769	-0.607090	-0.791453	-0.071021	0.763259	-0.605653	0.224989
02827	9.538070	-0.715577	2.186738	0.000482	-0.003425	0.006801	-0.221071	0.082354	0.971774	-0.607111	-0.791435	-0.071042	0.763246	-0.605680	0.224961
02828	9.513907	-0.718322	2.189292	0.007151	-0.001078	0.007117	-0.221079	0.082340	0.971774	-0.607079	-0.791459	-0.071049	0.763269	-0.605651	0.224962
02829	9.486166	-0.686899	2.187572	0.003635	-0.000543	0.005265	-0.221081	0.082342	0.971773	-0.607079	-0.791459	-0.071049	0.763268	-0.605651	0.224965
02830	9.541425	-0.712309	2.220605	0.003511	0.001501	0.005964	-0.221102	0.082353	0.971767	-0.607078	-0.791459	-0.071053	0.763263	-0.605649	0.224988
02831	9.510243	-0.685582	2.184938	0.003637	-0.001222	0.003894	-0.221092	0.082366	0.971768	-0.607082	-0.791458	-0.071037	0.763263	-0.605649	0.224988
02832	9.537829	-0.679095	2.216126	0.003755	-0.001230	0.007309	-0.221101	0.082350	0.971768	-0.607076	-0.791461	-0.071054	0.763265	-0.605647	0.224985
02833	9.513709	-0.701029	2.204013	0.003517	-0.000536	0.001851	-0.221079	0.082380	0.971770	-0.607082	-0.791459	-0.071017	0.763266	-0.605645	0.224986
02834	9.510154	-0.667350	2.199516	0.002057	-0.001305	0.007404	-0.221087	0.082363	0.971770	-0.607089	-0.791452	-0.071039	0.763259	-0.605656	0.224981
02835	9.517135	-0.716669	2.223186	0.007029	0.000966	0.007815	-0.221115	0.082357	0.971764	-0.607054	-0.791478	-0.071051	0.763278	-0.605624	0.225002
02836	9.510109	-0.687827	2.184814	0.001817	0.000068	0.003318	-0.221108	0.082380	0.971764	-0.607072	-0.791466	-0.071033	0.763266	-0.605636	0.225010
02837	9.517058	-0.717520	2.223241	0.005454	-0.001154	0.007213	-0.221118	0.082365	0.971763	-0.607050	-0.791481	-0.071046	0.763280	-0.605619	0.225010
02838	9.489381	-0.705409	2.206751	0.005214	0.000218	0.003126	-0.221111	0.082390	0.971762	-0.607042	-0.791490	-0.071018	0.763288	-0.605604	0.225022
02839	9.516947	-0.679368	2.252664	0.002183	-0.004028	0.005335	-0.221087	0.082375	0.971769	-0.607056	-0.791479	-0.071019	0.763285	-0.605619	0.224992
02840	9.517029	-0.718546	2.223032	0.006789	0.002338	0.003729	-0.221100	0.082409	0.971763	-0.607034	-0.791498	-0.070994	0.763298	-0.605590	0.225025
02841	9.509975	-0.670198	2.199421	0.003758	-0.001908	0.005938	-0.221093	0.082395	0.971766	-0.607033	-0.791498	-0.071000	0.763301	-0.605592	0.225011
02842	9.537657	-0.702561	2.201026	0.003636	-0.000543	0.005265	-0.221094	0.082399	0.971765	-0.607033	-0.791499	-0.070997	0.763301	-0.605590	0.225015
02843	9.482319	-0.658570	2.182711	0.002061	-0.002663	0.004663	-0.221077	0.082393	0.971770	-0.607048	-0.791488	-0.070995	0.763294	-0.605606	0.224996
02844	9.513451	-0.686076	2.218303	0.005335	-0.000468	0.005169	-0.221078	0.082399	0.971769	-0.607034	-0.791499	-0.070987	0.763305	-0.605591	0.225002
02845	9.537603	-0.684339	2.215485	0.005457	-0.001833	0.005842	-0.221073	0.082391	0.971771	-0.607021	-0.791509	-0.070987	0.763316	-0.605579	0.224995
02846	9.513467	-0.706454	2.203321	0.002058	-0.001304	0.007404	-0.221081	0.082374	0.971770	-0.607028	-0.791502	-0.071008	0.763309	-0.605590	0.224990
02847	9.537621	-0.704910	2.200432	0.002060	-0.001983	0.006034	-0.221075	0.082363	0.971773	-0.607039	-0.791493	-0.071016	0.763302	-0.605604	0.224977
02848	9.489193	-0.670797	2.235452	0.001817	0.000747	0.004689	-0.221083	0.082380	0.971770	-0.607053	-0.791482	-0.071011	0.763288	-0.605615	0.224992
02849	9.534093	-0.691195	2.181118	0.003759	-0.001908	0.005938	-0.221077	0.082368	0.971772	-0.607050	-0.791484	-0.071016	0.763293	-0.605614	0.224980
02850	9.516813	-0.703623	2.237132	0.005213	0.001576	0.005867	-0.221098	0.082381	0.971766	-0.607036	-0.791495	-0.071015	0.763298	-0.605598	0.225006
02851	9.537483	-0.706795	2.200425	0.005456	-0.001154	0.007212	-0.221102	0.082362	0.971767	-0.607018	-0.791507	-0.071028	0.763310	-0.605585	0.224999
02852	9.513330	-0.709344	2.202985	0.002062	-0.003342	0.003292	-0.221070	0.082365	0.971774	-0.607034	-0.791497	-0.071010	0.763307	-0.605598	0.224974
02853	9.485682	-0.677767	2.201061	0.005458	-0.001834	0.005841	-0.221066	0.082356	0.971775	-0.607019	-0.791509	-0.071009	0.763321	-0.605584	0.224967
02854	9.540953	-0.703071	2.233994	0.005216	0.000217	0.003125	-0.221060	0.082382	0.971775	-0.607011	-0.791517	-0.070982	0.763329	-0.605569	0.224979
02855	9.509811	-0.676367	2.198244	0.002059	-0.001303	0.007404	-0.221070	0.082368	0.971773	-0.607015	-0.791512	-0.071002	0.763322	-0.605577	0.224978
02856	9.513278	-0.710934	2.202698	0.003516	0.000822	0.004592	-0.221077	0.082386	0.971770	-0.607017	-0.791512	-0.070992	0.763319	-0.605576	0.224995
02857	9.513253	-0.711355	2.202672	0.003759	-0.001908	0.005938	-0.221068	0.082373	0.971773	-0.607014	-0.791514	-0.070996	0.763324	-0.605575	0.224980
02858	9.516664	-0.707056	2.236685	0.001817	0.001427	0.006059	-0.221089	0.082383	0.971768	-0.607025	-0.791504	-0.071005	0.763309	-0.605586	0.225001
02859	9.533909	-0.676010	2.195242	0.000487	-0.006140	0.001321	-0.221025	0.082384	0.971782	-0.607060	-0.791480	-0.070972	0.763299	-0.605617	0.224949
02860	9.537419	-0.710414	2.199538	0.005214	0.002255	0.007237	-0.221059	0.082390	0.971774	-0.607043	-0.791492	-0.070985	0.763303	-0.605601	0.224981
02861	9.537356	-0.710913	2.199651	0.003638	-0.000543	0.005265	-0.221060	0.082396	0.971773	-0.607043	-0.791493	-0.070981	0.763303	-0.605599	0.224985
02862	9.488977	-0.696111	2.219912	0.005337	-0.000469	0.005169	-0.221061	0.082401	0.971773	-0.607029	-0.791504	-0.070973	0.763313	-0.605584	0.224991
02863	9.537278	-0.672965	2.229070	0.003881	-0.002594	0.007981	-0.221065	0.082371	0.971774	-0.607022	-0.791507	-0.070998	0.763318	-0.605584	0.224975
02864	9.509673	-0.719380	2.168168	0.003638	0.000136	0.006635	-0.221079	0.082368	0.971771	-0.607018	-0.791509	-0.071009	0.763317	-0.605581	0.224985
02865	9.509614	-0.681096	2.197634	0.005580	-0.002520	0.007885	-0.221079	0.082338	0.971774	-0.606996	-0.791525	-0.071026	0.763335	-0.605565	0.224968
02866	9.509568	-0.701008	2.182983	0.004974	0.004306	0.004520	-0.221112	0.082378	0.971763	-0.606987	-0.791533	-0.071013	0.763333	-0.605549	0.225020
02867	9.537137	-0.694513	2.214325	0.003882	-0.003274	0.006611	-0.221098	0.082353	0.971768	-0.606980	-0.791537	-0.071022	0.763342	-0.605546	0.224994
02868	9.485374	-0.703950	2.185583	0.007159	-0.002441	0.004375	-0.221079	0.082352	0.971773	-0.606954	-0.791559	-0.071002	0.763368	-0.605518	0.224981
02869	9.537162	-0.695351	2.213953	0.003760	-0.001228	0.007308	-0.221087	0.082335	0.971772	-0.606947	-0.791562	-0.071019	0.763371	-0.605516	0.224977
02870	9.537135	-0.715278	2.199191	0.003518	0.000822	0.004592	-0.221094	0.082353	0.971769	-0.606949	-0.791562	-0.071010	0.763368	-0.605514	0.224994
02871	9.533636	-0.681569	2.194710	0.001941	-0.001297	0.003991	-0.221080	0.082359	0.971772	-0.606968	-0.791548	-0.071001	0.763357	-0.605532	0.224985
02872	9.488751	-0.720300	2.204651	0.001940	0.000063	0.006731	-0.221094	0.082355	0.971769	-0.606977	-0.791540	-0.071016	0.763345	-0.605543	0.224993
02873	9.485253	-0.686542	2.200188	0.006917	-0.000391	0.001658	-0.221072	0.082388	0.971771	-0.606959	-0.791558	-0.070970	0.763366	-0.605515	0.224998
02874	9.561255	-0.695074	2.210946	0.005703	-0.005245	0.005817	-0.221041	0.082359	0.971781	-0.606942	-0.791572	-0.070968	0.763389	-0.605501	0.224957
02875	9.488758	-0.721368	2.204269	0.003640	0.000817	0.008005	-0.221071	0.082353	0.971775	-0.606933	-0.791576	-0.070990	0.763388	-0.605495	0.224977
02876	9.537036	-0.678813	2.228333	0.005339	-0.000470	0.005168	-0.221072	0.082358	0.971774	-0.606919	-0.791587	-0.070982	0.763398	-0.605480	0.224982
02877	9.488693	-0.722321	2.204238	0.003761	-0.001908	0.005938	-0.221068	0.082350	0.971775	-0.606917	-0.791589	-0.070986	0.763401	-0.605480	0.224975
02878	9.533565	-0.684438	2.194125	0.005340	-0.001150	0.003798	-0.221055	0.082363	0.971777	-0.606907	-0.791599	-0.070965	0.763413	-0.605465	0.224973
02879	9.530092	-0.689702	2.160032	0.003762	-0.001228	0.007308	-0.221062	0.082348	0.971777	-0.606898	-0.791604	-0.070979	0.763417	-0.605461	0.224970
02880	9.464500	-0.686660	2.236266	0.003520	-0.000539	0.001851	-0.221042	0.082379	0.971779	-0.606906	-0.791601	-0.070943	0.763417	-0.605460	0.224973
02881	9.533514	-0.705021	2.179220	0.001942	0.000064	0.006731	-0.221058	0.082376	0.971775	-0.606914	-0.791593	-0.070958	0.763406	-0.605470	0.224983
02882	9.509293	-0.668854	2.211557	0.003641	0.000817	0.008005	-0.221086	0.082366	0.971770	-0.606908	-0.791596	-0.070982	0.763403	-0.605468	0.225000
02883	9.512721	-0.703286	2.216042	0.007039	-0.001758	0.002331	-0.221060	0.082386	0.971774	-0.606889	-0.791614	-0.070944	0.763425	-0.605442	0.224993
02884	9.533444	-0.686962	2.193863	0.003883	-0.002593	0.007981	-0.221062	0.082356	0.971776	-0.606881	-0.791618	-0.070967	0.763431	-0.605440	0.224977
02885	9.509259	-0.670113	2.211318	0.003520	0.000822	0.004591	-0.221068	0.082371	0.971774	-0.606881	-0.791619	-0.070958	0.763429	-0.605438	0.224991
02886	9.509190	-0.689987	2.196697	0.003521	0.001502	0.005961	-0.221089	0.082382	0.971768	-0.606880	-0.791619	-0.070962	0.763424	-0.605435	0.225015
02887	9.512604	-0.685575	2.230786	0.005341	-0.000470	0.005168	-0.221095	0.082389	0.971766	-0.606868	-0.791629	-0.070958	0.763432	-0.605422	0.225024
02888	9.484924	-0.712531	2.184755	0.002064	-0.000620	0.008774	-0.221117	0.082365	0.971763	-0.606872	-0.791623	-0.070992	0.763422	-0.605433	0.225026
02889	9.533261	-0.669915	2.208709	0.003520	-0.000539	0.001851	-0.221097	0.082397	0.971765	-0.606880	-0.791620	-0.070956	0.763421	-0.605433	0.225030
02890	9.512508	-0.686987	2.230761	0.003643	0.000818	0.008004	-0.221125	0.082388	0.971759	-0.606874	-0.791623	-0.070979	0.763419	-0.605430	0.225047
02891	9.505541	-0.677542	2.177617	0.006798	0.000971	0.000984	-0.221109	0.082431	0.971759	-0.606858	-0.791639	-0.070929	0.763436	-0.605403	0.225063
02892	9.536587	-0.704979	2.213388	0.002064	-0.001300	0.007404	-0.221118	0.082414	0.971759	-0.606864	-0.791632	-0.070951	0.763428	-0.605414	0.225058
02893	9.481333	-0.699972	2.165443	0.003883	-0.003273	0.006612	-0.221106	0.082392	0.971763	-0.606859	-0.791636	-0.070959	0.763436	-0.605413	0.225036
02894	9.512437	-0.688680	2.230544	0.003642	-0.000543	0.005264	-0.221107	0.082397	0.971763	-0.606858	-0.791636	-0.070956	0.763436	-0.605411	0.225040
02895	9.512363	-0.728099	2.201043	0.001943	0.000065	0.006731	-0.221122	0.082393	0.971759	-0.606868	-0.791628	-0.070972	0.763424	-0.605423	0.225048
02896	9.533111	-0.673088	2.208389	0.003884	-0.003273	0.006612	-0.221111	0.082370	0.971764	-0.606862	-0.791631	-0.070981	0.763432	-0.605422	0.225025
02897	9.512334	-0.729147	2.200819	0.008742	0.000354	0.006344	-0.221126	0.082372	0.971760	-0.606821	-0.791663	-0.070977	0.763460	-0.605380	0.225043
02898	9.512342	-0.709974	2.215536	0.003641	-0.001905	0.002524	-0.221100	0.082390	0.971765	-0.606827	-0.791661	-0.070948	0.763463	-0.605379	0.225033
02899	9.508920	-0.676325	2.210888	0.002065	-0.001300	0.007404	-0.221109	0.082369	0.971765	-0.606836	-0.791652	-0.070973	0.763454	-0.605394	0.225026
02900	9.536449	-0.728290	2.197895	0.003522	0.000822	0.004590	-0.221116	0.082387	0.971761	-0.606837	-0.791652	-0.070963	0.763450	-0.605392	0.225042
02901	9.505364	-0.682148	2.176948	0.003644	0.000137	0.006634	-0.221130	0.082384	0.971758	-0.606834	-0.791653	-0.070974	0.763449	-0.605391	0.225052
02902	9.488087	-0.694437	2.232929	0.005463	-0.001836	0.005841	-0.221125	0.082376	0.971760	-0.606818	-0.791666	-0.070973	0.763463	-0.605375	0.225044
02903	9.539859	-0.705371	2.246577	0.001944	-0.000615	0.005361	-0.221124	0.082376	0.971760	-0.606830	-0.791656	-0.070976	0.763453	-0.605388	0.225042
02904	9.505305	-0.683514	2.176780	0.005343	-0.000471	0.005167	-0.221125	0.082381	0.971760	-0.606817	-0.791667	-0.070968	0.763464	-0.605373	0.225048
02905	9.512179	-0.713111	2.215231	-0.001457	-0.001440	0.004184	-0.221112	0.082386	0.971762	-0.606858	-0.791635	-0.070968	0.763435	-0.605414	0.225037
02906	9.536336	-0.711510	2.212377	0.008864	-0.001012	0.007018	-0.221120	0.082374	0.971762	-0.606814	-0.791669	-0.070970	0.763468	-0.605371	0.225039
02907	9.508723	-0.699401	2.195740	0.002063	-0.002661	0.004665	-0.221099	0.082371	0.971767	-0.606825	-0.791661	-0.070962	0.763465	-0.605382	0.225020
02908	9.508711	-0.699852	2.195649	0.005345	0.000209	0.006537	-0.221114	0.082370	0.971763	-0.606808	-0.791674	-0.070968	0.763474	-0.605366	0.225032
02909	9.508673	-0.700314	2.195665	0.003644	-0.000543	0.005264	-0.221115	0.082375	0.971762	-0.606809	-0.791673	-0.070965	0.763473	-0.605366	0.225037
02910	9.532832	-0.698742	2.192800	0.002065	-0.001980	0.006035	-0.221110	0.082364	0.971765	-0.606819	-0.791665	-0.070973	0.763466	-0.605378	0.225025
02911	9.484492	-0.703339	2.198165	0.003765	-0.001908	0.005938	-0.221106	0.082355	0.971766	-0.606815	-0.791668	-0.070977	0.763470	-0.605376	0.225017
02912	9.536340	-0.675461	2.241252	0.003766	-0.001227	0.007308	-0.221115	0.082339	0.971766	-0.606809	-0.791671	-0.070993	0.763473	-0.605374	0.225014
02913	9.512034	-0.736255	2.199752	0.003521	-0.000541	0.001850	-0.221096	0.082369	0.971767	-0.606818	-0.791667	-0.070960	0.763471	-0.605375	0.225017
02914	9.508666	-0.683015	2.209923	0.008866	-0.001013	0.007017	-0.221104	0.082356	0.971767	-0.606774	-0.791701	-0.070962	0.763504	-0.605333	0.225020
02915	9.512034	-0.717520	2.214429	0.003645	-0.000543	0.005264	-0.221106	0.082360	0.971766	-0.606773	-0.791702	-0.070960	0.763505	-0.605330	0.225024
02916	9.529275	-0.706123	2.158331	0.003643	-0.001224	0.003894	-0.221093	0.082371	0.971768	-0.606775	-0.791702	-0.070943	0.763506	-0.605329	0.225021
02917	9.487908	-0.700883	2.231673	0.002186	-0.003344	0.006709	-0.221081	0.082343	0.971773	-0.606786	-0.791692	-0.070961	0.763502	-0.605346	0.224992
02918	9.532782	-0.702248	2.191897	0.002065	-0.001979	0.006035	-0.221075	0.082333	0.971775	-0.606795	-0.791684	-0.070969	0.763495	-0.605358	0.224981
02919	9.508648	-0.685384	2.209264	0.003767	-0.001227	0.007307	-0.221083	0.082316	0.971775	-0.606790	-0.791686	-0.070986	0.763498	-0.605357	0.224977
02920	9.532734	-0.703427	2.191730	0.001947	0.000067	0.006730	-0.221097	0.082312	0.971772	-0.606799	-0.791678	-0.071001	0.763486	-0.605368	0.224985
02921	9.529250	-0.689344	2.172515	0.008747	0.000351	0.006342	-0.221112	0.082311	0.971769	-0.606757	-0.791710	-0.070999	0.763515	-0.605326	0.224999
02922	9.484379	-0.688805	2.212023	0.003642	-0.001906	0.002524	-0.221086	0.082329	0.971773	-0.606762	-0.791709	-0.070969	0.763518	-0.605326	0.224990
02923	9.536075	-0.719228	2.211005	0.003650	0.000819	0.008003	-0.221115	0.082319	0.971767	-0.606755	-0.791712	-0.070994	0.763516	-0.605323	0.225006
02924	9.508490	-0.687682	2.209233	0.003644	-0.001225	0.003894	-0.221102	0.082330	0.971769	-0.606758	-0.791712	-0.070978	0.763518	-0.605322	0.225003
02925	9.532594	-0.705508	2.191669	0.001946	-0.000614	0.005360	-0.221107	0.082333	0.971768	-0.606772	-0.791701	-0.070982	0.763505	-0.605336	0.225008
02926	9.480853	-0.676013	2.192601	0.005468	-0.001156	0.007210	-0.221115	0.082318	0.971767	-0.606753	-0.791714	-0.070994	0.763518	-0.605320	0.225007
02927	9.556740	-0.704392	2.188717	0.001942	-0.001977	0.002621	-0.221092	0.082335	0.971771	-0.606773	-0.791700	-0.070971	0.763508	-0.605336	0.224997
02928	9.508396	-0.708725	2.194168	0.005346	-0.000473	0.005166	-0.221093	0.082341	0.971771	-0.606760	-0.791711	-0.070963	0.763519	-0.605320	0.225003
02929	9.511960	-0.684824	2.242685	-0.001216	-0.004166	0.005534	-0.221067	0.082320	0.971778	-0.606798	-0.791681	-0.070975	0.763495	-0.605364	0.224966
02930	9.535959	-0.741790	2.195505	0.005469	-0.001156	0.007210	-0.221075	0.082305	0.971777	-0.606779	-0.791694	-0.070987	0.763508	-0.605348	0.224965
02931	9.505097	-0.656634	2.203865	0.001824	0.000069	0.003316	-0.221068	0.082327	0.971777	-0.606796	-0.791683	-0.070970	0.763497	-0.605360	0.224972
02932	9.556691	-0.706617	2.188215	0.003651	0.000819	0.008002	-0.221097	0.082318	0.971772	-0.606789	-0.791686	-0.070993	0.763494	-0.605357	0.224989
02933	9.484255	-0.674210	2.226031	0.007047	-0.000403	0.005069	-0.221101	0.082325	0.971770	-0.606763	-0.791707	-0.070982	0.763514	-0.605328	0.224999
02934	9.556695	-0.688078	2.202911	0.002067	-0.001979	0.006035	-0.221096	0.082315	0.971772	-0.606773	-0.791699	-0.070990	0.763507	-0.605340	0.224987
02935	9.484165	-0.694562	2.211139	0.005347	-0.000473	0.005166	-0.221097	0.082319	0.971771	-0.606761	-0.791709	-0.070984	0.763517	-0.605327	0.224993
02936	9.508454	-0.654111	2.237744	0.002069	-0.001297	0.007404	-0.221105	0.082302	0.971771	-0.606767	-0.791702	-0.071005	0.763509	-0.605339	0.224988
02937	9.535777	-0.725686	2.210181	0.001710	0.002797	0.005380	-0.221133	0.082326	0.971763	-0.606783	-0.791689	-0.071009	0.763488	-0.605351	0.225023
02938	9.528895	-0.696843	2.171681	0.003642	-0.001907	0.002525	-0.221107	0.082343	0.971767	-0.606788	-0.791688	-0.070979	0.763492	-0.605351	0.225013
02939	9.484117	-0.676812	2.225833	0.000247	-0.000684	0.005457	-0.221105	0.082346	0.971767	-0.606810	-0.791671	-0.070982	0.763475	-0.605373	0.225011
02940	9.535712	-0.726859	2.210076	0.007170	-0.001086	0.007113	-0.221113	0.082332	0.971767	-0.606779	-0.791695	-0.070989	0.763498	-0.605344	0.225012
02941	9.504748	-0.680716	2.188953	0.001948	-0.000614	0.005360	-0.221115	0.082337	0.971766	-0.606787	-0.791688	-0.070989	0.763490	-0.605351	0.225015
02942	9.511410	-0.749302	2.198043	0.001948	-0.000614	0.005360	-0.221116	0.082340	0.971765	-0.606799	-0.791679	-0.070991	0.763481	-0.605363	0.225017
02943	9.528886	-0.679539	2.186074	0.005345	-0.001156	0.003797	-0.221101	0.082350	0.971768	-0.606789	-0.791688	-0.070970	0.763493	-0.605349	0.225012
02944	9.487364	-0.713047	2.230131	0.001948	-0.000614	0.005360	-0.221102	0.082353	0.971767	-0.606801	-0.791679	-0.070972	0.763483	-0.605361	0.225014
02945	9.504666	-0.682425	2.188777	0.001951	0.000068	0.006729	-0.221118	0.082349	0.971764	-0.606811	-0.791670	-0.070988	0.763470	-0.605374	0.225023
02946	9.483954	-0.680023	2.225545	0.003648	-0.000544	0.005263	-0.221120	0.082354	0.971763	-0.606810	-0.791671	-0.070985	0.763471	-0.605372	0.225027
02947	9.535530	-0.729997	2.209828	0.003648	-0.000544	0.005263	-0.221122	0.082356	0.971763	-0.606812	-0.791669	-0.070985	0.763469	-0.605374	0.225030
02948	9.504557	-0.683737	2.188839	0.001709	0.002115	0.004010	-0.221136	0.082386	0.971757	-0.606829	-0.791657	-0.070975	0.763451	-0.605385	0.225058
02949	9.508008	-0.679330	2.222888	0.002071	-0.001296	0.007404	-0.221142	0.082366	0.971757	-0.606835	-0.791650	-0.070997	0.763444	-0.605397	0.225050
02950	9.535547	-0.692466	2.239436	0.005232	0.001572	0.005860	-0.221163	0.082379	0.971751	-0.606821	-0.791661	-0.070996	0.763450	-0.605381	0.225075
02951	9.504424	-0.685250	2.188944	0.003768	-0.001909	0.005938	-0.221158	0.082369	0.971753	-0.606818	-0.791663	-0.070999	0.763453	-0.605380	0.225066
02952	9.535386	-0.712826	2.224771	0.001710	0.002115	0.004010	-0.221171	0.082399	0.971748	-0.606835	-0.791651	-0.070989	0.763436	-0.605391	0.225093
02953	9.483701	-0.683163	2.225662	0.007408	-0.004498	0.007094	-0.221156	0.082365	0.971754	-0.606803	-0.791675	-0.070997	0.763466	-0.605365	0.225063
02954	9.556124	-0.697221	2.202513	0.001832	0.001433	0.006054	-0.221177	0.082375	0.971749	-0.606815	-0.791665	-0.071006	0.763451	-0.605376	0.225084
02955	9.483484	-0.723004	2.196131	0.003643	-0.001908	0.002525	-0.221149	0.082390	0.971753	-0.606821	-0.791663	-0.070978	0.763453	-0.605377	0.225072
02956	9.552862	-0.644381	2.212573	0.003652	0.000138	0.006632	-0.221164	0.082388	0.971750	-0.606817	-0.791665	-0.070988	0.763452	-0.605375	0.225082
02957	9.514411	-0.750976	2.231948	0.003530	0.000820	0.004588	-0.221170	0.082403	0.971748	-0.606820	-0.791663	-0.070980	0.763448	-0.605375	0.225096
02958	9.504455	-0.649150	2.218134	0.003765	-0.002591	0.004569	-0.221151	0.082401	0.971752	-0.606820	-0.791664	-0.070970	0.763454	-0.605374	0.225080
02959	9.535245	-0.715743	2.224438	0.003653	0.000138	0.006632	-0.221165	0.082394	0.971750	-0.606818	-0.791665	-0.070984	0.763451	-0.605375	0.225087
02960	9.480140	-0.671526	2.206129	0.005350	-0.000475	0.005166	-0.221166	0.082400	0.971749	-0.606805	-0.791676	-0.070976	0.763462	-0.605359	0.225092
02961	9.552557	-0.685568	2.182994	0.000368	-0.002047	0.006132	-0.221159	0.082386	0.971752	-0.606827	-0.791657	-0.070989	0.763446	-0.605385	0.225077
02962	9.486905	-0.701644	2.244609	0.005235	0.001571	0.005859	-0.221180	0.082398	0.971746	-0.606813	-0.791668	-0.070989	0.763451	-0.605369	0.225102
02963	9.552572	-0.667095	2.197747	0.005473	-0.001157	0.007210	-0.221187	0.082381	0.971746	-0.606794	-0.791681	-0.071002	0.763464	-0.605354	0.225098
02964	9.486754	-0.722114	2.229812	0.002065	-0.002660	0.004666	-0.221168	0.082377	0.971750	-0.606807	-0.791672	-0.070997	0.763459	-0.605367	0.225080
02965	9.528297	-0.689428	2.185545	0.005351	-0.000475	0.005166	-0.221171	0.082383	0.971749	-0.606795	-0.791682	-0.070990	0.763468	-0.605353	0.225086
02966	9.507604	-0.686889	2.222290	0.001950	-0.000613	0.005360	-0.221172	0.082386	0.971749	-0.606807	-0.791673	-0.070992	0.763458	-0.605365	0.225088
02967	9.507476	-0.706849	2.207547	0.001950	-0.000613	0.005360	-0.221174	0.082389	0.971748	-0.606819	-0.791663	-0.070994	0.763448	-0.605378	0.225091
02968	9.507570	-0.687733	2.222177	0.003647	-0.001227	0.003894	-0.221162	0.082400	0.971750	-0.606822	-0.791663	-0.070978	0.763449	-0.605376	0.225088
02969	9.535123	-0.700852	2.238634	0.003777	-0.000544	0.008676	-0.221185	0.082378	0.971746	-0.606814	-0.791666	-0.071009	0.763449	-0.605375	0.225093
02970	9.531602	-0.706233	2.204551	0.003643	-0.001909	0.002525	-0.221159	0.082395	0.971751	-0.606819	-0.791664	-0.070979	0.763452	-0.605375	0.225083
02971	9.476535	-0.661901	2.186206	0.007060	0.000958	0.007806	-0.221190	0.082389	0.971744	-0.606789	-0.791686	-0.070995	0.763467	-0.605347	0.225105
02972	9.555825	-0.685616	2.216473	0.001946	-0.001295	0.003991	-0.221177	0.082399	0.971746	-0.606804	-0.791675	-0.070984	0.763459	-0.605360	0.225100
02973	9.486558	-0.725895	2.229415	0.003532	0.000820	0.004587	-0.221185	0.082416	0.971743	-0.606806	-0.791675	-0.070975	0.763455	-0.605358	0.225117
02974	9.528328	-0.654217	2.214585	0.003766	-0.002591	0.004569	-0.221166	0.082413	0.971748	-0.606806	-0.791676	-0.070965	0.763461	-0.605357	0.225100
02975	9.483147	-0.712046	2.209946	0.005352	-0.000476	0.005165	-0.221170	0.082422	0.971746	-0.606791	-0.791688	-0.070957	0.763471	-0.605340	0.225111
02976	9.555983	-0.648056	2.245724	0.003532	0.000820	0.004587	-0.221178	0.082440	0.971743	-0.606792	-0.791688	-0.070947	0.763468	-0.605338	0.225127
02977	9.486337	-0.747019	2.214643	0.003778	-0.000543	0.008676	-0.221201	0.082417	0.971739	-0.606784	-0.791691	-0.070978	0.763468	-0.605337	0.225132
02978	9.507431	-0.672469	2.236647	0.005229	0.000206	0.003121	-0.221195	0.082443	0.971739	-0.606776	-0.791700	-0.070951	0.763476	-0.605322	0.225144
02979	9.531516	-0.690299	2.218978	0.000479	-0.004774	0.004071	-0.221157	0.082434	0.971748	-0.606802	-0.791681	-0.070942	0.763466	-0.605348	0.225107
02980	9.507233	-0.712068	2.206916	0.006935	0.000956	0.004392	-0.221165	0.082454	0.971745	-0.606778	-0.791701	-0.070923	0.763483	-0.605319	0.225127
02981	9.524705	-0.661965	2.180232	0.002074	-0.001294	0.007404	-0.221174	0.082435	0.971744	-0.606788	-0.791691	-0.070947	0.763472	-0.605335	0.225121
02982	9.510562	-0.727507	2.226209	0.005230	0.000205	0.003121	-0.221167	0.082460	0.971743	-0.606780	-0.791699	-0.070920	0.763481	-0.605320	0.225133
02983	9.524659	-0.662785	2.180186	0.003775	-0.001226	0.007307	-0.221178	0.082444	0.971742	-0.606776	-0.791701	-0.070939	0.763481	-0.605320	0.225132
02984	9.555347	-0.729578	2.186548	0.003775	-0.001226	0.007307	-0.221186	0.082428	0.971742	-0.606770	-0.791704	-0.070956	0.763484	-0.605318	0.225129
02985	9.527891	-0.697815	2.184654	0.003525	-0.000546	0.001849	-0.221165	0.082457	0.971744	-0.606779	-0.791700	-0.070921	0.763482	-0.605320	0.225129
02986	9.528030	-0.678560	2.199204	0.002066	-0.002659	0.004667	-0.221146	0.082453	0.971749	-0.606792	-0.791691	-0.070916	0.763477	-0.605332	0.225111
02987	9.507117	-0.714896	2.206500	0.001829	0.000069	0.003315	-0.221140	0.082477	0.971748	-0.606810	-0.791679	-0.070897	0.763465	-0.605345	0.225119
02988	9.531526	-0.674297	2.233079	0.003653	-0.000544	0.005262	-0.221141	0.082481	0.971748	-0.606809	-0.791680	-0.070894	0.763465	-0.605343	0.225123
02989	9.507054	-0.715728	2.206504	0.003657	0.000138	0.006631	-0.221156	0.082480	0.971744	-0.606806	-0.791681	-0.070905	0.763463	-0.605341	0.225134
02990	9.500357	-0.667544	2.182653	0.005235	0.000887	0.004489	-0.221164	0.082499	0.971741	-0.606795	-0.791691	-0.070891	0.763470	-0.605326	0.225153
02991	9.555344	-0.712648	2.200956	0.002066	-0.002659	0.004667	-0.221146	0.082497	0.971745	-0.606808	-0.791681	-0.070885	0.763464	-0.605339	0.225137
02992	9.531311	-0.695395	2.218266	0.005349	-0.001160	0.003796	-0.221134	0.082509	0.971747	-0.606798	-0.791691	-0.070864	0.763476	-0.605324	0.225136
02993	9.503723	-0.683266	2.201695	0.003781	-0.000543	0.008675	-0.221154	0.082485	0.971744	-0.606790	-0.791694	-0.070894	0.763477	-0.605323	0.225138
02994	9.558704	-0.728664	2.219906	0.003890	-0.003273	0.006614	-0.221142	0.082462	0.971749	-0.606784	-0.791698	-0.070904	0.763485	-0.605322	0.225115
02995	9.451923	-0.673712	2.187859	0.006828	0.003684	0.006452	-0.221183	0.082484	0.971738	-0.606757	-0.791719	-0.070904	0.763495	-0.605291	0.225163
02996	9.579369	-0.713088	2.198070	0.000128	0.000002	0.003413	-0.221177	0.082506	0.971737	-0.606787	-0.791697	-0.070891	0.763472	-0.605317	0.225169
02997	9.482644	-0.721093	2.209170	0.003649	-0.001227	0.003894	-0.221165	0.082518	0.971739	-0.606791	-0.791695	-0.070875	0.763473	-0.605317	0.225167
02998	9.524489	-0.649545	2.194301	0.003659	0.000139	0.006631	-0.221180	0.082515	0.971736	-0.606787	-0.791697	-0.070885	0.763472	-0.605315	0.225177
02999	9.506783	-0.720039	2.206268	0.003767	-0.002591	0.004570	-0.221165	0.082513	0.971740	-0.606790	-0.791696	-0.070879	0.763474	-0.605318	0.225163
03000	9.503673	-0.666941	2.216206	0.001958	0.000071	0.006728	-0.221179	0.082509	0.971737	-0.606799	-0.791688	-0.070894	0.763462	-0.605329	0.225171
03001	9.503363	-0.706384	2.186831	0.005350	-0.001160	0.003796	-0.221168	0.082521	0.971738	-0.606787	-0.791698	-0.070873	0.763475	-0.605313	0.225171
03002	9.503520	-0.687193	2.201349	0.002066	-0.002659	0.004667	-0.221149	0.082517	0.971743	-0.606800	-0.791689	-0.070868	0.763470	-0.605326	0.225153
03003	9.506901	-0.702149	2.220529	0.003654	-0.000544	0.005262	-0.221152	0.082523	0.971742	-0.606799	-0.791690	-0.070865	0.763470	-0.605324	0.225158
03004	9.503472	-0.688151	2.201255	0.003665	0.000822	0.007999	-0.221180	0.082513	0.971736	-0.606792	-0.791693	-0.070888	0.763468	-0.605321	0.225175
03005	9.530993	-0.701365	2.217754	0.003773	-0.001909	0.005938	-0.221172	0.082500	0.971739	-0.606791	-0.791694	-0.070894	0.763471	-0.605322	0.225161
03006	9.527766	-0.667764	2.212963	0.005474	-0.001842	0.005841	-0.221167	0.082492	0.971741	-0.606775	-0.791706	-0.070893	0.763485	-0.605307	0.225153
03007	9.503437	-0.689647	2.200936	0.003773	-0.001908	0.005938	-0.221158	0.082478	0.971744	-0.606772	-0.791708	-0.070897	0.763490	-0.605306	0.225138
03008	9.506801	-0.704500	2.220211	0.006934	0.000270	0.003022	-0.221151	0.082505	0.971743	-0.606751	-0.791727	-0.070865	0.763509	-0.605278	0.225152
03009	9.527541	-0.688425	2.198258	0.003548	0.002186	0.007322	-0.221186	0.082509	0.971735	-0.606746	-0.791729	-0.070882	0.763502	-0.605275	0.225181
03010	9.506856	-0.685913	2.235011	-0.001336	-0.002792	0.004863	-0.221167	0.082503	0.971740	-0.606784	-0.791699	-0.070887	0.763477	-0.605314	0.225159
03011	9.527507	-0.689391	2.198104	0.007058	-0.000411	0.005067	-0.221171	0.082510	0.971738	-0.606760	-0.791719	-0.070876	0.763495	-0.605288	0.225169
03012	9.503316	-0.691746	2.200803	0.000371	-0.002042	0.006134	-0.221166	0.082498	0.971740	-0.606783	-0.791700	-0.070889	0.763479	-0.605314	0.225156
03013	9.530832	-0.704894	2.217328	0.005244	0.001569	0.005856	-0.221185	0.082512	0.971735	-0.606767	-0.791713	-0.070886	0.763486	-0.605296	0.225180
03014	9.503377	-0.673230	2.215577	0.003661	0.000139	0.006630	-0.221200	0.082509	0.971732	-0.606763	-0.791715	-0.070896	0.763485	-0.605293	0.225190
03015	9.506404	-0.727205	2.205551	0.005351	-0.001162	0.003796	-0.221186	0.082520	0.971734	-0.606752	-0.791725	-0.070875	0.763498	-0.605278	0.225188
03016	9.551700	-0.670139	2.209934	0.005357	-0.000478	0.005164	-0.221187	0.082526	0.971733	-0.606738	-0.791737	-0.070867	0.763509	-0.605263	0.225193
03017	9.506487	-0.708415	2.220310	0.001724	0.002800	0.005375	-0.221214	0.082548	0.971725	-0.606751	-0.791726	-0.070870	0.763490	-0.605273	0.225227
03018	9.499710	-0.679679	2.181724	0.008872	-0.002393	0.004277	-0.221195	0.082549	0.971730	-0.606713	-0.791758	-0.070846	0.763526	-0.605232	0.225217
03019	9.558127	-0.720131	2.234123	0.000276	0.002057	0.010930	-0.221250	0.082524	0.971719	-0.606725	-0.791743	-0.070905	0.763500	-0.605254	0.225242
03020	9.485689	-0.706944	2.257210	0.003650	-0.001228	0.003894	-0.221237	0.082535	0.971721	-0.606728	-0.791743	-0.070889	0.763502	-0.605253	0.225239
03021	9.502945	-0.695920	2.201088	0.003662	0.000139	0.006630	-0.221254	0.082532	0.971718	-0.606725	-0.791743	-0.070902	0.763499	-0.605253	0.225250
03022	9.530466	-0.709061	2.217571	0.005476	-0.001842	0.005841	-0.221248	0.082524	0.971720	-0.606709	-0.791756	-0.070900	0.763513	-0.605238	0.225243
03023	9.499725	-0.662810	2.196225	0.003774	-0.001908	0.005938	-0.221242	0.082511	0.971722	-0.606709	-0.791756	-0.070906	0.763516	-0.605240	0.225230
03024	9.530270	-0.729442	2.202752	0.005240	0.000885	0.004487	-0.221249	0.082530	0.971719	-0.606697	-0.791765	-0.070892	0.763523	-0.605224	0.225249
03025	9.503042	-0.678137	2.215513	0.003775	-0.001908	0.005939	-0.221245	0.082522	0.971721	-0.606694	-0.791768	-0.070895	0.763527	-0.605222	0.225240
03026	9.530403	-0.710740	2.217305	-0.001572	-0.000062	0.003510	-0.221239	0.082543	0.971720	-0.606737	-0.791735	-0.070886	0.763494	-0.605262	0.225244
03027	9.503009	-0.679027	2.215382	0.005482	-0.001159	0.007209	-0.221249	0.082528	0.971719	-0.606720	-0.791748	-0.070900	0.763505	-0.605248	0.225245
03028	9.530378	-0.711666	2.217115	0.003769	-0.002592	0.004571	-0.221230	0.082525	0.971724	-0.606719	-0.791749	-0.070890	0.763511	-0.605247	0.225228
03029	9.499498	-0.684830	2.181035	0.003769	-0.002592	0.004570	-0.221209	0.082521	0.971729	-0.606720	-0.791749	-0.070880	0.763517	-0.605246	0.225209
03030	9.503063	-0.680163	2.214803	0.005470	-0.002527	0.004473	-0.221190	0.082519	0.971733	-0.606707	-0.791761	-0.070865	0.763532	-0.605232	0.225195
03031	9.527065	-0.698154	2.197251	0.005359	-0.000479	0.005164	-0.221190	0.082525	0.971733	-0.606692	-0.791773	-0.070856	0.763544	-0.605215	0.225199
03032	9.502847	-0.700418	2.200084	0.001838	0.000753	0.004683	-0.221197	0.082541	0.971730	-0.606706	-0.791762	-0.070852	0.763531	-0.605227	0.225214
03033	9.526978	-0.698927	2.197383	0.003540	0.000819	0.004585	-0.221204	0.082556	0.971727	-0.606711	-0.791759	-0.070846	0.763525	-0.605229	0.225228
03034	9.482301	-0.678529	2.251639	0.003658	-0.000545	0.005262	-0.221205	0.082560	0.971726	-0.606710	-0.791760	-0.070843	0.763525	-0.605227	0.225231
03035	9.554456	-0.712517	2.213888	0.002080	-0.001290	0.007404	-0.221216	0.082541	0.971726	-0.606720	-0.791750	-0.070868	0.763514	-0.605243	0.225227
03036	9.506043	-0.716805	2.219519	0.005249	0.001568	0.005855	-0.221237	0.082554	0.971720	-0.606706	-0.791761	-0.070867	0.763520	-0.605227	0.225252
03037	9.502822	-0.683270	2.214883	0.003782	-0.001224	0.007306	-0.221245	0.082536	0.971719	-0.606701	-0.791763	-0.070885	0.763521	-0.605226	0.225248
03038	9.505767	-0.737347	2.204929	0.003541	0.000819	0.004585	-0.221252	0.082554	0.971716	-0.606703	-0.791763	-0.070876	0.763518	-0.605224	0.225265
03039	9.526943	-0.682310	2.212066	0.003776	-0.001908	0.005939	-0.221250	0.082546	0.971717	-0.606701	-0.791764	-0.070881	0.763520	-0.605224	0.225259
03040	9.502574	-0.704138	2.200076	0.000248	-0.001359	0.004090	-0.221238	0.082555	0.971719	-0.606729	-0.791743	-0.070874	0.763501	-0.605250	0.225252
03041	9.502740	-0.684975	2.214708	0.003541	0.000819	0.004584	-0.221245	0.082570	0.971717	-0.606731	-0.791742	-0.070866	0.763497	-0.605250	0.225266
03042	9.550876	-0.701251	2.194485	0.005484	-0.001159	0.007208	-0.221253	0.082555	0.971716	-0.606712	-0.791755	-0.070878	0.763510	-0.605234	0.225265
03043	9.502679	-0.685927	2.214673	0.003659	-0.000545	0.005261	-0.221256	0.082559	0.971715	-0.606714	-0.791754	-0.070877	0.763507	-0.605236	0.225270
03044	9.502630	-0.686308	2.214766	0.001722	0.002117	0.004005	-0.221269	0.082589	0.971709	-0.606731	-0.791742	-0.070867	0.763490	-0.605247	0.225298
03045	9.505555	-0.740315	2.204847	0.003776	-0.001909	0.005939	-0.221267	0.082581	0.971710	-0.606729	-0.791743	-0.070871	0.763492	-0.605247	0.225291
03046	9.526961	-0.665803	2.226538	0.001957	-0.000610	0.005359	-0.221268	0.082584	0.971710	-0.606741	-0.791734	-0.070873	0.763483	-0.605258	0.225293
03047	9.502177	-0.726692	2.185333	0.007180	-0.001779	0.005743	-0.221260	0.082573	0.971713	-0.606715	-0.791754	-0.070869	0.763506	-0.605233	0.225282
03048	9.526926	-0.666555	2.226463	0.006946	0.000948	0.004388	-0.221267	0.082593	0.971709	-0.606691	-0.791774	-0.070850	0.763523	-0.605204	0.225302
03049	9.502098	-0.727569	2.185384	0.000387	-0.000670	0.008870	-0.221291	0.082566	0.971706	-0.606710	-0.791755	-0.070893	0.763500	-0.605232	0.225302
03050	9.526669	-0.687261	2.211712	0.002068	-0.002658	0.004669	-0.221272	0.082562	0.971711	-0.606723	-0.791746	-0.070888	0.763496	-0.605245	0.225284
03051	9.498939	-0.694607	2.180380	0.005486	-0.001160	0.007208	-0.221281	0.082546	0.971710	-0.606705	-0.791759	-0.070901	0.763507	-0.605231	0.225283
03052	9.526671	-0.688082	2.211450	0.005347	-0.001849	0.002428	-0.221255	0.082565	0.971715	-0.606698	-0.791767	-0.070867	0.763521	-0.605217	0.225275
03053	9.502283	-0.709710	2.199541	0.005362	-0.000480	0.005163	-0.221255	0.082567	0.971714	-0.606687	-0.791776	-0.070863	0.763529	-0.605206	0.225277
03054	9.529967	-0.703299	2.230787	0.001848	0.001438	0.006050	-0.221276	0.082577	0.971709	-0.606699	-0.791766	-0.070871	0.763514	-0.605216	0.225298
03055	9.523022	-0.694280	2.177534	0.003660	-0.000545	0.005261	-0.221278	0.082579	0.971708	-0.606699	-0.791766	-0.070871	0.763513	-0.605217	0.225301
03056	9.502377	-0.691429	2.214258	0.005355	-0.001165	0.003796	-0.221266	0.082591	0.971710	-0.606689	-0.791776	-0.070850	0.763525	-0.605202	0.225300
03057	9.526511	-0.690020	2.211537	0.003558	0.002187	0.007319	-0.221299	0.082593	0.971702	-0.606686	-0.791776	-0.070870	0.763517	-0.605202	0.225327
03058	9.502031	-0.711977	2.199897	0.001848	0.001439	0.006049	-0.221320	0.082603	0.971697	-0.606697	-0.791767	-0.070879	0.763502	-0.605213	0.225349
03059	9.547032	-0.694209	2.174929	0.005472	-0.002529	0.004473	-0.221303	0.082600	0.971701	-0.606686	-0.791777	-0.070866	0.763516	-0.605200	0.225335
03060	9.478046	-0.694911	2.217178	0.001827	-0.000615	0.001947	-0.221283	0.082630	0.971703	-0.606706	-0.791764	-0.070834	0.763506	-0.605213	0.225336
03061	9.530166	-0.666976	2.260135	0.001958	-0.000609	0.005359	-0.221282	0.082629	0.971703	-0.606720	-0.791753	-0.070839	0.763495	-0.605227	0.225333
03062	9.501967	-0.713315	2.199742	0.005246	0.000883	0.004486	-0.221289	0.082648	0.971700	-0.606709	-0.791763	-0.070825	0.763502	-0.605211	0.225352
03063	9.502370	-0.674644	2.228972	0.002075	-0.001973	0.006037	-0.221285	0.082639	0.971701	-0.606718	-0.791755	-0.070833	0.763496	-0.605223	0.225342
03064	9.529451	-0.726893	2.216161	0.003661	-0.000545	0.005261	-0.221286	0.082643	0.971701	-0.606717	-0.791756	-0.070830	0.763496	-0.605221	0.225345
03065	9.499229	-0.641506	2.224062	0.003778	-0.001909	0.005939	-0.221282	0.082633	0.971703	-0.606715	-0.791757	-0.070835	0.763499	-0.605221	0.225336
03066	9.505432	-0.710013	2.233538	0.003427	0.002182	0.003906	-0.221296	0.082664	0.971697	-0.606719	-0.791755	-0.070819	0.763492	-0.605219	0.225366
03067	9.550194	-0.711707	2.194085	0.007065	-0.000417	0.005065	-0.221296	0.082667	0.971697	-0.606696	-0.791774	-0.070810	0.763511	-0.605194	0.225370
03068	9.525984	-0.713953	2.196860	0.000257	-0.000673	0.005457	-0.221298	0.082669	0.971696	-0.606720	-0.791755	-0.070816	0.763491	-0.605219	0.225370
03069	9.505331	-0.711206	2.233589	0.003661	-0.000545	0.005261	-0.221301	0.082674	0.971695	-0.606721	-0.791754	-0.070815	0.763489	-0.605219	0.225376
03070	9.522822	-0.680877	2.192034	0.003786	-0.001224	0.007306	-0.221309	0.082658	0.971694	-0.606714	-0.791758	-0.070832	0.763492	-0.605217	0.225373
03071	9.481084	-0.714023	2.236341	0.003545	0.000818	0.004583	-0.221316	0.082674	0.971691	-0.606716	-0.791757	-0.070823	0.763488	-0.605215	0.225388
03072	9.550266	-0.694422	2.208633	0.005364	-0.000481	0.005163	-0.221317	0.082679	0.971691	-0.606703	-0.791768	-0.070815	0.763499	-0.605200	0.225393
03073	9.477900	-0.680688	2.231707	0.003545	0.000818	0.004583	-0.221323	0.082694	0.971688	-0.606706	-0.791766	-0.070809	0.763494	-0.605201	0.225407
03074	9.504953	-0.733051	2.218883	0.002318	-0.004014	0.008760	-0.221319	0.082649	0.971693	-0.606708	-0.791762	-0.070843	0.763494	-0.605213	0.225376
