// General information: 
//  MT Manager version: 2019.2.0 
//  XDA version: 2019.2.0 build 3853 rev 94535 built on 2019-09-09
// Device information: 
//  DeviceId: 00B43FA9
//  ProductCode: MTW2-3A7G6
//  Firmware Version: 4.3.5
//  Hardware Version: 1.1.0
// Device settings: 
//  Filter Profile: human(46.1)
//  Option Flags: Orientation Smoother Disabled, AHS Disabled, ICC Disabled
// Coordinate system: ENU
PacketCounter	Acc_X	Acc_Y	Acc_Z	Gyr_X	Gyr_Y	Gyr_Z	Mat[1][1]	Mat[2][1]	Mat[3][1]	Mat[1][2]	Mat[2][2]	Mat[3][2]	Mat[1][3]	Mat[2][3]	Mat[3][3]
02267	9.442910	0.080197	-2.406390	0.000761	0.002498	-0.002439	0.217194	0.114996	0.969331	0.443353	-0.896320	0.006994	0.869635	0.428236	-0.245659
02268	9.459498	0.062216	-2.407039	0.001734	0.003279	0.002390	0.217210	0.114977	0.969330	0.443360	-0.896317	0.006967	0.869628	0.428248	-0.245665
02269	9.404900	0.075817	-2.360007	-0.000897	0.002011	-0.000382	0.217222	0.114987	0.969326	0.443351	-0.896321	0.006973	0.869629	0.428237	-0.245680
02270	9.433892	0.072675	-2.426929	-0.001470	0.004282	0.000845	0.217223	0.114974	0.969327	0.443335	-0.896329	0.006966	0.869637	0.428223	-0.245675
02271	9.444306	0.047258	-2.394325	-0.000030	0.003650	0.000813	0.217226	0.114967	0.969327	0.443331	-0.896331	0.006959	0.869638	0.428221	-0.245675
02272	9.426794	0.097905	-2.403901	-0.001469	0.004282	0.000845	0.217227	0.114955	0.969328	0.443315	-0.896339	0.006952	0.869646	0.428207	-0.245670
02273	9.470257	0.036767	-2.373063	-0.001576	0.005140	-0.002789	0.217202	0.114973	0.969332	0.443305	-0.896343	0.006983	0.869657	0.428193	-0.245656
02274	9.443522	0.080176	-2.403989	0.001410	0.003019	0.000781	0.217210	0.114969	0.969331	0.443315	-0.896339	0.006973	0.869651	0.428204	-0.245661
02275	9.434363	0.072832	-2.425090	0.000761	0.002498	-0.002439	0.217209	0.114996	0.969328	0.443325	-0.896334	0.006995	0.869645	0.428208	-0.245672
02276	9.405524	0.075981	-2.357511	0.000837	0.005289	0.002009	0.217204	0.114970	0.969332	0.443326	-0.896333	0.006973	0.869646	0.428216	-0.245657
02277	9.460308	0.062132	-2.403856	-0.000030	0.003650	0.000813	0.217208	0.114963	0.969332	0.443323	-0.896335	0.006966	0.869647	0.428214	-0.245656
02278	9.428435	0.065276	-2.390852	0.001086	0.002758	-0.000829	0.217212	0.114973	0.969330	0.443332	-0.896330	0.006971	0.869641	0.428221	-0.245665
02279	9.419299	0.057865	-2.411878	0.001953	0.004398	0.000366	0.217207	0.114966	0.969332	0.443347	-0.896323	0.006963	0.869635	0.428238	-0.245657
02280	9.469795	0.069658	-2.381441	0.002962	0.004365	-0.004910	0.217176	0.115007	0.969334	0.443384	-0.896305	0.007004	0.869624	0.428266	-0.245648
02281	9.390571	0.061279	-2.343812	-0.002585	0.005173	0.002487	0.217174	0.114978	0.969338	0.443354	-0.896319	0.006986	0.869639	0.428243	-0.245633
02282	9.486520	0.051596	-2.381536	-0.000248	0.002531	0.002838	0.217197	0.114956	0.969335	0.443344	-0.896324	0.006958	0.869639	0.428238	-0.245644
02283	9.413479	0.050357	-2.377186	-0.001469	0.004281	0.000845	0.217195	0.114945	0.969337	0.443328	-0.896332	0.006954	0.869647	0.428224	-0.245637
02284	9.444459	0.079907	-2.400312	0.000513	0.005029	0.000399	0.217181	0.114937	0.969341	0.443332	-0.896331	0.006951	0.869649	0.428230	-0.245621
02285	9.429116	0.065128	-2.388168	-0.002336	0.002642	-0.000350	0.217188	0.114944	0.969339	0.443310	-0.896341	0.006961	0.869658	0.428206	-0.245630
02286	9.444620	0.079917	-2.399681	0.001410	0.003018	0.000781	0.217198	0.114939	0.969337	0.443319	-0.896337	0.006950	0.869651	0.428216	-0.245637
02287	9.438487	0.072421	-2.366188	0.001953	0.004398	0.000367	0.217193	0.114933	0.969339	0.443333	-0.896330	0.006941	0.869645	0.428233	-0.245630
02288	9.429383	0.065020	-2.387116	0.003611	0.004885	-0.001689	0.217176	0.114942	0.969342	0.443367	-0.896313	0.006948	0.869632	0.428265	-0.245619
02289	9.412977	0.083084	-2.385760	-0.003233	0.004653	-0.000733	0.217164	0.114944	0.969344	0.443339	-0.896327	0.006964	0.869650	0.428236	-0.245609
02290	9.458559	0.061999	-2.453499	0.001410	0.003018	0.000782	0.217173	0.114940	0.969342	0.443347	-0.896323	0.006954	0.869643	0.428245	-0.245616
02291	9.397696	0.068358	-2.373361	0.000762	0.002498	-0.002439	0.217172	0.114967	0.969339	0.443358	-0.896318	0.006976	0.869638	0.428249	-0.245627
02292	9.413174	0.083198	-2.384980	-0.001116	0.000892	0.001642	0.217202	0.114963	0.969333	0.443345	-0.896324	0.006962	0.869637	0.428236	-0.245651
02293	9.437054	0.039871	-2.407954	-0.000354	0.003390	-0.000797	0.217200	0.114971	0.969333	0.443342	-0.896326	0.006971	0.869639	0.428232	-0.245653
02294	9.428764	0.097990	-2.396158	0.000513	0.005029	0.000399	0.217190	0.114962	0.969336	0.443343	-0.896325	0.006968	0.869641	0.428235	-0.245640
02295	9.446460	0.047205	-2.385811	0.001410	0.003018	0.000782	0.217198	0.114958	0.969335	0.443352	-0.896321	0.006957	0.869634	0.428245	-0.245646
02296	9.430033	0.065179	-2.384545	-0.003233	0.004653	-0.000733	0.217182	0.114960	0.969338	0.443326	-0.896333	0.006974	0.869652	0.428218	-0.245632
02297	9.445581	0.080010	-2.395893	0.001953	0.004397	0.000368	0.217177	0.114954	0.969340	0.443340	-0.896326	0.006966	0.869646	0.428235	-0.245625
02298	9.430212	0.065122	-2.383838	-0.002555	0.001523	0.001674	0.217204	0.114946	0.969335	0.443313	-0.896340	0.006955	0.869653	0.428208	-0.245646
02299	9.445733	0.080004	-2.395293	0.001848	0.005256	-0.003267	0.217175	0.114969	0.969339	0.443334	-0.896329	0.006983	0.869649	0.428225	-0.245630
02300	9.421173	0.057970	-2.404545	-0.000897	0.002011	-0.000382	0.217188	0.114978	0.969335	0.443326	-0.896333	0.006988	0.869650	0.428214	-0.245645
02301	9.437794	0.040033	-2.405048	0.001056	0.006408	-0.000014	0.217163	0.114966	0.969341	0.443334	-0.896329	0.006986	0.869652	0.428225	-0.245618
02302	9.414078	0.083287	-2.381406	-0.000030	0.003650	0.000814	0.217154	0.114731	0.969371	0.443210	-0.896392	0.006808	0.869718	0.428156	-0.245506
02303	9.438040	0.040029	-2.404082	-0.000707	0.006779	-0.001593	0.217120	0.114732	0.969379	0.443205	-0.896394	0.006825	0.869729	0.428152	-0.245475
02304	9.456538	0.054919	-2.360956	0.000543	0.001379	-0.000414	0.217137	0.114744	0.969374	0.443210	-0.896392	0.006827	0.869722	0.428153	-0.245496
02305	9.427946	0.065485	-2.435608	-0.000926	0.005660	0.000431	0.217122	0.114731	0.969379	0.443199	-0.896397	0.006826	0.869731	0.428146	-0.245476
02306	9.430973	0.065390	-2.380817	0.000324	0.000260	0.001610	0.217156	0.114731	0.969371	0.443198	-0.896398	0.006810	0.869723	0.428145	-0.245507
02307	9.431033	0.065365	-2.380580	0.000190	0.004769	-0.001210	0.217141	0.114737	0.969374	0.443201	-0.896396	0.006821	0.869726	0.428146	-0.245496
02308	9.446569	0.080183	-2.391986	-0.002013	0.002902	0.001259	0.217151	0.114728	0.969372	0.443181	-0.896406	0.006815	0.869733	0.428127	-0.245501
02309	9.405482	0.075948	-2.400396	-0.000353	0.003390	-0.000796	0.217150	0.114736	0.969372	0.443178	-0.896408	0.006823	0.869735	0.428122	-0.245503
02310	9.447803	0.047441	-2.380483	-0.000030	0.003650	0.000814	0.217153	0.114727	0.969372	0.443175	-0.896409	0.006814	0.869736	0.428122	-0.245502
02311	9.463333	0.062243	-2.391918	-0.000353	0.003390	-0.000796	0.217152	0.114735	0.969371	0.443172	-0.896411	0.006823	0.869738	0.428117	-0.245504
02312	9.422271	0.058038	-2.400237	-0.002909	0.004912	0.000877	0.217144	0.114722	0.969375	0.443143	-0.896425	0.006822	0.869754	0.428090	-0.245492
02313	9.447016	0.080345	-2.390214	0.001306	0.003877	-0.002852	0.217130	0.114746	0.969375	0.443159	-0.896417	0.006847	0.869750	0.428101	-0.245489
02314	9.422473	0.058246	-2.399438	-0.001469	0.004281	0.000846	0.217125	0.114736	0.969377	0.443144	-0.896424	0.006844	0.869759	0.428088	-0.245481
02315	9.431753	0.065566	-2.377720	0.001410	0.003018	0.000783	0.217134	0.114731	0.969376	0.443153	-0.896420	0.006833	0.869752	0.428098	-0.245487
02316	9.422618	0.058050	-2.398875	0.000867	0.001639	0.001197	0.217155	0.114730	0.969371	0.443157	-0.896418	0.006822	0.869745	0.428102	-0.245505
02317	9.422671	0.058009	-2.398668	0.001087	0.002758	-0.000827	0.217158	0.114741	0.969369	0.443167	-0.896413	0.006827	0.869739	0.428110	-0.245513
02318	9.431938	0.065393	-2.376992	-0.000030	0.003650	0.000814	0.217163	0.114734	0.969369	0.443162	-0.896416	0.006820	0.869740	0.428106	-0.245514
02319	9.422819	0.057908	-2.398088	-0.000573	0.002271	0.001228	0.217180	0.114728	0.969366	0.443152	-0.896420	0.006809	0.869741	0.428098	-0.245527
02320	9.485752	0.084421	-2.434009	-0.000676	0.003129	-0.002406	0.217174	0.114750	0.969365	0.443152	-0.896421	0.006832	0.869743	0.428092	-0.245531
02321	9.432164	0.065569	-2.376089	-0.003232	0.004652	-0.000733	0.217162	0.114752	0.969367	0.443124	-0.896434	0.006847	0.869760	0.428062	-0.245520
02322	9.406560	0.076064	-2.396168	0.003716	0.004026	0.001949	0.217162	0.114734	0.969369	0.443152	-0.896420	0.006823	0.869745	0.428096	-0.245513
02323	9.455152	0.054797	-2.409314	-0.001469	0.004281	0.000846	0.217160	0.114724	0.969371	0.443136	-0.896429	0.006819	0.869754	0.428082	-0.245507
02324	9.407821	0.043172	-2.384544	-0.000353	0.003389	-0.000796	0.217160	0.114732	0.969370	0.443132	-0.896430	0.006828	0.869756	0.428076	-0.245510
02325	9.457179	0.087565	-2.364976	-0.000030	0.003650	0.000815	0.217163	0.114724	0.969370	0.443128	-0.896432	0.006820	0.869757	0.428074	-0.245509
02326	9.382284	0.053738	-2.404373	-0.000353	0.003389	-0.000796	0.217160	0.114731	0.969370	0.443127	-0.896433	0.006828	0.869758	0.428072	-0.245509
02327	9.432709	0.065553	-2.373925	-0.002115	0.003761	-0.002375	0.217148	0.114751	0.969370	0.443113	-0.896440	0.006856	0.869769	0.428051	-0.245508
02328	9.413380	0.083627	-2.427138	0.000514	0.005029	0.000401	0.217139	0.114742	0.969373	0.443113	-0.896439	0.006851	0.869771	0.428055	-0.245496
02329	9.432913	0.065682	-2.373113	-0.000353	0.003389	-0.000796	0.217138	0.114749	0.969373	0.443110	-0.896441	0.006860	0.869773	0.428050	-0.245498
02330	9.439262	0.073074	-2.405946	0.001410	0.003018	0.000784	0.217147	0.114746	0.969371	0.443118	-0.896437	0.006850	0.869766	0.428058	-0.245505
02331	9.407387	0.076069	-2.392916	0.000837	0.005289	0.002012	0.217142	0.114720	0.969375	0.443119	-0.896437	0.006829	0.869767	0.428066	-0.245489
02332	9.456001	0.054991	-2.405975	-0.000132	0.004508	-0.002820	0.217123	0.114742	0.969377	0.443122	-0.896435	0.006857	0.869771	0.428063	-0.245481
02333	9.408656	0.043506	-2.381242	0.001087	0.002758	-0.000827	0.217127	0.114753	0.969375	0.443131	-0.896430	0.006863	0.869765	0.428070	-0.245490
02334	9.439632	0.073157	-2.404490	0.001087	0.002758	-0.000827	0.217129	0.114765	0.969373	0.443142	-0.896425	0.006869	0.869759	0.428078	-0.245497
02335	9.439714	0.073222	-2.404166	0.001631	0.004137	-0.001240	0.217119	0.114773	0.969374	0.443157	-0.896418	0.006878	0.869754	0.428092	-0.245492
02336	9.442715	0.073310	-2.349231	0.000191	0.004768	-0.001209	0.217102	0.114780	0.969377	0.443161	-0.896416	0.006890	0.869756	0.428094	-0.245479
02337	9.430743	0.066015	-2.424742	-0.000352	0.003389	-0.000796	0.217100	0.114787	0.969377	0.443158	-0.896417	0.006899	0.869758	0.428089	-0.245481
02338	9.423472	0.091353	-2.402181	0.001410	0.003018	0.000784	0.217109	0.114782	0.969375	0.443167	-0.896413	0.006888	0.869751	0.428100	-0.245487
02339	9.440075	0.073484	-2.402739	-0.002115	0.003760	-0.002375	0.217097	0.114803	0.969376	0.443152	-0.896420	0.006916	0.869761	0.428079	-0.245485
02340	9.433871	0.066164	-2.369286	0.001410	0.003018	0.000784	0.217108	0.114798	0.969374	0.443160	-0.896416	0.006905	0.869755	0.428088	-0.245493
02341	9.424752	0.058726	-2.390461	0.000544	0.001379	-0.000413	0.217125	0.114811	0.969368	0.443164	-0.896414	0.006908	0.869748	0.428089	-0.245514
02342	9.455748	0.088410	-2.413641	-0.001248	0.005400	-0.001178	0.217103	0.114816	0.969373	0.443154	-0.896419	0.006925	0.869759	0.428079	-0.245496
02343	9.411308	0.076786	-2.334290	0.001953	0.004397	0.000371	0.217098	0.114809	0.969375	0.443169	-0.896411	0.006917	0.869753	0.428095	-0.245488
02344	9.441548	0.040875	-2.390253	-0.000896	0.002010	-0.000382	0.217111	0.114818	0.969371	0.443161	-0.896415	0.006921	0.869754	0.428084	-0.245505
02345	9.408599	0.076876	-2.388120	0.000735	0.006147	-0.001622	0.217082	0.114821	0.969377	0.443169	-0.896411	0.006935	0.869757	0.428092	-0.245480
02346	9.434387	0.066418	-2.367225	-0.000896	0.002010	-0.000382	0.217096	0.114830	0.969373	0.443160	-0.896416	0.006940	0.869758	0.428081	-0.245496
02347	9.449913	0.081033	-2.378711	0.002054	0.003538	0.004005	0.217115	0.114794	0.969373	0.443168	-0.896412	0.006896	0.869749	0.428098	-0.245497
02348	9.425385	0.058695	-2.387962	-0.003231	0.004652	-0.000734	0.217104	0.114795	0.969375	0.443140	-0.896426	0.006909	0.869766	0.428069	-0.245487
02349	9.442000	0.040938	-2.388466	-0.000674	0.003129	-0.002406	0.217097	0.114818	0.969374	0.443138	-0.896427	0.006934	0.869769	0.428061	-0.245492
02350	9.415335	0.084249	-2.419522	0.000292	0.003909	0.002426	0.217103	0.114797	0.969375	0.443134	-0.896429	0.006913	0.869769	0.428062	-0.245488
02351	9.442155	0.040852	-2.387854	-0.000896	0.002010	-0.000382	0.217115	0.114807	0.969371	0.443126	-0.896433	0.006919	0.869770	0.428051	-0.245503
02352	9.418325	0.084131	-2.364524	-0.000574	0.002270	0.001228	0.217133	0.114799	0.969368	0.443117	-0.896437	0.006906	0.869770	0.428044	-0.245515
02353	9.425772	0.058881	-2.386431	-0.001570	0.005139	-0.002788	0.217107	0.114817	0.969372	0.443108	-0.896441	0.006937	0.869781	0.428030	-0.245501
02354	9.441331	0.073778	-2.397789	0.001410	0.003018	0.000785	0.217117	0.114812	0.969370	0.443117	-0.896437	0.006926	0.869774	0.428041	-0.245507
02355	9.435110	0.066457	-2.364340	-0.002114	0.003760	-0.002375	0.217105	0.114833	0.969370	0.443102	-0.896444	0.006954	0.869785	0.428020	-0.245505
02356	9.448873	0.048610	-2.419340	0.001953	0.004397	0.000372	0.217102	0.114826	0.969372	0.443116	-0.896438	0.006946	0.869779	0.428036	-0.245499
02357	9.426118	0.059050	-2.385059	0.000866	0.001639	0.001198	0.217124	0.114823	0.969367	0.443119	-0.896436	0.006932	0.869772	0.428040	-0.245518
02358	9.433559	0.033688	-2.407012	0.000192	0.004768	-0.001208	0.217108	0.114827	0.969370	0.443124	-0.896434	0.006942	0.869773	0.428044	-0.245506
02359	9.441752	0.073839	-2.396131	0.001410	0.003018	0.000785	0.217117	0.114822	0.969369	0.443133	-0.896429	0.006931	0.869767	0.428054	-0.245511
02360	9.441841	0.073744	-2.395782	0.001953	0.004397	0.000372	0.217114	0.114815	0.969370	0.443146	-0.896423	0.006922	0.869761	0.428069	-0.245506
02361	9.432778	0.066347	-2.416804	-0.000352	0.003389	-0.000795	0.217112	0.114823	0.969370	0.443143	-0.896424	0.006931	0.869762	0.428064	-0.245508
02362	9.426545	0.058932	-2.383374	0.001410	0.003018	0.000785	0.217121	0.114819	0.969368	0.443152	-0.896420	0.006920	0.869756	0.428075	-0.245514
02363	9.442071	0.073707	-2.394876	-0.000896	0.002010	-0.000382	0.217133	0.114829	0.969364	0.443143	-0.896424	0.006926	0.869757	0.428063	-0.245529
02364	9.417519	0.051675	-2.404254	-0.002113	0.003760	-0.002375	0.217124	0.114848	0.969364	0.443128	-0.896431	0.006953	0.869767	0.428043	-0.245529
02365	9.435930	0.066583	-2.361059	0.000514	0.005028	0.000403	0.217113	0.114838	0.969368	0.443130	-0.896430	0.006948	0.869769	0.428047	-0.245515
02366	9.442345	0.074002	-2.393790	-0.000352	0.003389	-0.000795	0.217113	0.114846	0.969367	0.443126	-0.896433	0.006956	0.869771	0.428041	-0.245519
02367	9.442434	0.074083	-2.393435	0.001632	0.004137	-0.001238	0.217103	0.114855	0.969368	0.443141	-0.896425	0.006965	0.869766	0.428055	-0.245514
02368	9.392230	0.062518	-2.423266	-0.000352	0.003389	-0.000795	0.217101	0.114864	0.969367	0.443138	-0.896426	0.006975	0.869768	0.428049	-0.245516
02369	9.442609	0.074324	-2.392737	0.001310	0.003877	-0.002849	0.217087	0.114888	0.969368	0.443154	-0.896418	0.006999	0.869763	0.428060	-0.245513
02370	9.436371	0.066987	-2.359286	0.001410	0.003018	0.000785	0.217098	0.114883	0.969366	0.443161	-0.896415	0.006987	0.869757	0.428069	-0.245521
02371	9.443802	0.041535	-2.381322	-0.002557	0.001523	0.001671	0.217124	0.114876	0.969361	0.443134	-0.896428	0.006977	0.869764	0.428042	-0.245541
02372	9.407963	0.077327	-2.433974	0.000866	0.001639	0.001198	0.217146	0.114872	0.969356	0.443138	-0.896426	0.006962	0.869756	0.428047	-0.245560
02373	9.433710	0.066665	-2.413156	0.001954	0.004397	0.000373	0.217141	0.114865	0.969358	0.443153	-0.896419	0.006954	0.869750	0.428064	-0.245552
02374	9.427489	0.059261	-2.379629	0.001632	0.004137	-0.001238	0.217132	0.114874	0.969359	0.443168	-0.896411	0.006962	0.869745	0.428078	-0.245548
02375	9.427582	0.059262	-2.379263	-0.000030	0.003649	0.000816	0.217135	0.114866	0.969360	0.443165	-0.896413	0.006954	0.869746	0.428076	-0.245547
02376	9.427670	0.059343	-2.378908	0.001310	0.003876	-0.002848	0.217120	0.114890	0.969360	0.443181	-0.896405	0.006978	0.869741	0.428087	-0.245545
02377	9.443259	0.074330	-2.390168	0.000736	0.006147	-0.001620	0.217091	0.114893	0.969366	0.443189	-0.896401	0.006992	0.869744	0.428095	-0.245520
02378	9.437003	0.066839	-2.356763	-0.001341	-0.000227	0.003664	0.217142	0.114877	0.969357	0.443167	-0.896412	0.006961	0.869743	0.428075	-0.245559
02379	9.434256	0.066656	-2.411021	0.002498	0.005776	-0.000039	0.217123	0.114868	0.969362	0.443187	-0.896402	0.006955	0.869737	0.428098	-0.245538
02380	9.442467	0.106757	-2.400030	-0.001469	0.004280	0.000846	0.217120	0.114858	0.969364	0.443172	-0.896410	0.006952	0.869746	0.428085	-0.245530
02381	9.434493	0.066478	-2.410095	0.000836	0.005288	0.002014	0.217114	0.114833	0.969368	0.443173	-0.896409	0.006931	0.869747	0.428093	-0.245514
02382	9.411732	0.076951	-2.375742	0.001088	0.002758	-0.000825	0.217116	0.114844	0.969367	0.443184	-0.896404	0.006936	0.869740	0.428102	-0.245521
02383	9.411772	0.076992	-2.375582	-0.001439	0.000631	0.000030	0.217142	0.114856	0.969359	0.443170	-0.896411	0.006940	0.869741	0.428084	-0.245549
02384	9.460370	0.055719	-2.388719	0.001157	0.005548	0.003625	0.217141	0.114814	0.969364	0.443171	-0.896410	0.006902	0.869741	0.428096	-0.245530
02385	9.443959	0.073605	-2.387425	0.001311	0.003876	-0.002848	0.217126	0.114839	0.969365	0.443187	-0.896402	0.006926	0.869736	0.428106	-0.245528
02386	9.402898	0.069346	-2.395944	-0.000253	0.002530	0.002839	0.217150	0.114816	0.969362	0.443177	-0.896408	0.006898	0.869736	0.428101	-0.245539
02387	9.444103	0.073408	-2.386861	0.001410	0.003018	0.000786	0.217159	0.114812	0.969361	0.443186	-0.896403	0.006887	0.869729	0.428111	-0.245545
02388	9.444223	0.073357	-2.386387	-0.000381	0.007038	0.000021	0.217127	0.114797	0.969370	0.443182	-0.896405	0.006889	0.869739	0.428112	-0.245510
02389	9.419723	0.051093	-2.395614	0.002849	0.002387	0.000756	0.217141	0.114795	0.969367	0.443204	-0.896395	0.006875	0.869724	0.428134	-0.245522
02390	9.435267	0.065767	-2.407086	0.001410	0.003018	0.000786	0.217151	0.114790	0.969365	0.443213	-0.896390	0.006863	0.869717	0.428145	-0.245528
02391	9.441717	0.073102	-2.439800	-0.000925	0.005659	0.000433	0.217135	0.114777	0.969370	0.443202	-0.896395	0.006861	0.869727	0.428137	-0.245508
02392	9.429110	0.058310	-2.373223	0.000544	0.001379	-0.000412	0.217151	0.114793	0.969365	0.443205	-0.896394	0.006868	0.869721	0.428136	-0.245530
02393	9.434496	0.098462	-2.416893	-0.000925	0.005659	0.000433	0.217135	0.114780	0.969370	0.443195	-0.896399	0.006866	0.869730	0.428129	-0.245510
02394	9.435618	0.065699	-2.405711	0.001984	0.000748	-0.000442	0.217155	0.114797	0.969363	0.443213	-0.896390	0.006867	0.869716	0.428143	-0.245536
02395	9.444822	0.072991	-2.384028	0.000836	0.005288	0.002015	0.217150	0.114772	0.969368	0.443214	-0.896390	0.006846	0.869717	0.428151	-0.245519
02396	9.403807	0.068695	-2.392390	0.000194	0.004768	-0.001207	0.217134	0.114777	0.969370	0.443218	-0.896388	0.006858	0.869719	0.428153	-0.245507
02397	9.467902	0.062388	-2.417183	-0.000574	0.002270	0.001228	0.217151	0.114772	0.969367	0.443209	-0.896392	0.006847	0.869719	0.428145	-0.245520
02398	9.446144	0.040181	-2.372038	0.001633	0.004136	-0.001236	0.217142	0.114781	0.969368	0.443223	-0.896385	0.006855	0.869714	0.428158	-0.245516
02399	9.419564	0.083593	-2.403030	-0.001246	0.005399	-0.001177	0.217122	0.114783	0.969372	0.443213	-0.896390	0.006870	0.869724	0.428147	-0.245499
02400	9.451679	0.080471	-2.415162	-0.000030	0.003649	0.000816	0.217125	0.114777	0.969372	0.443208	-0.896392	0.006864	0.869726	0.428144	-0.245499
02401	9.429918	0.058202	-2.370012	-0.002014	0.002901	0.001258	0.217137	0.114768	0.969371	0.443187	-0.896403	0.006857	0.869734	0.428123	-0.245506
02402	9.460948	0.087868	-2.393194	0.000768	0.002497	-0.002435	0.217134	0.114795	0.969368	0.443198	-0.896397	0.006880	0.869729	0.428128	-0.245515
02403	9.420997	0.050930	-2.390602	-0.000955	0.009308	0.001250	0.217090	0.114760	0.969382	0.443186	-0.896404	0.006870	0.869746	0.428125	-0.245460
02404	9.445733	0.073094	-2.380413	0.000544	0.001379	-0.000412	0.217105	0.114774	0.969377	0.443190	-0.896401	0.006876	0.869740	0.428125	-0.245480
02405	9.430311	0.058366	-2.368441	-0.001790	0.004020	-0.000765	0.217099	0.114779	0.969378	0.443174	-0.896409	0.006888	0.869750	0.428108	-0.245476
02406	9.421287	0.051062	-2.389460	0.001633	0.004136	-0.001236	0.217089	0.114787	0.969379	0.443190	-0.896401	0.006895	0.869744	0.428123	-0.245471
02407	9.436865	0.065861	-2.400809	-0.000030	0.003649	0.000816	0.217092	0.114779	0.969380	0.443187	-0.896403	0.006887	0.869745	0.428121	-0.245470
02408	9.421452	0.051130	-2.388804	0.000768	0.002497	-0.002435	0.217089	0.114805	0.969377	0.443198	-0.896397	0.006909	0.869740	0.428126	-0.245480
02409	9.436995	0.065807	-2.400300	0.001506	0.002159	0.004421	0.217122	0.114772	0.969374	0.443200	-0.896396	0.006863	0.869731	0.428137	-0.245494
02410	9.427994	0.058260	-2.421248	0.001283	0.007525	-0.002030	0.217077	0.114772	0.969384	0.443216	-0.896388	0.006879	0.869734	0.428153	-0.245454
02411	9.421738	0.050972	-2.387681	-0.000895	0.002010	-0.000383	0.217090	0.114782	0.969380	0.443207	-0.896393	0.006885	0.869735	0.428142	-0.245470
02412	9.455546	0.080671	-2.356234	-0.001245	0.005399	-0.001177	0.217069	0.114785	0.969384	0.443197	-0.896398	0.006900	0.869745	0.428131	-0.245453
02413	9.444832	0.040549	-2.420852	-0.000030	0.003649	0.000817	0.217073	0.114777	0.969384	0.443194	-0.896399	0.006892	0.869746	0.428129	-0.245452
02414	9.437519	0.065823	-2.398238	0.001954	0.004396	0.000376	0.217066	0.114769	0.969387	0.443210	-0.896391	0.006883	0.869740	0.428148	-0.245443
02415	9.463254	0.055192	-2.377281	-0.000030	0.003649	0.000817	0.217069	0.114761	0.969387	0.443207	-0.896393	0.006875	0.869741	0.428146	-0.245442
02416	9.414802	0.076223	-2.363570	-0.000030	0.003649	0.000817	0.217075	0.114753	0.969386	0.443202	-0.896396	0.006866	0.869742	0.428143	-0.245444
02417	9.454313	0.047718	-2.398009	-0.000350	0.003389	-0.000794	0.217074	0.114761	0.969386	0.443199	-0.896397	0.006875	0.869743	0.428138	-0.245446
02418	9.437865	0.065658	-2.396880	0.001410	0.003018	0.000788	0.217082	0.114757	0.969384	0.443208	-0.896393	0.006865	0.869737	0.428149	-0.245452
02419	9.436913	0.098140	-2.407455	0.002050	0.003538	0.004010	0.217101	0.114721	0.969385	0.443215	-0.896389	0.006821	0.869728	0.428165	-0.245453
02420	9.421525	0.083280	-2.395338	-0.001565	0.005138	-0.002788	0.217073	0.114739	0.969389	0.443208	-0.896393	0.006852	0.869739	0.428153	-0.245436
02421	9.431771	0.058043	-2.362632	-0.000030	0.003649	0.000817	0.217076	0.114731	0.969389	0.443204	-0.896395	0.006845	0.869740	0.428151	-0.245435
02422	9.447318	0.072738	-2.374125	-0.001119	0.000891	0.001640	0.217107	0.114730	0.969382	0.443188	-0.896403	0.006834	0.869741	0.428135	-0.245462
02423	9.438261	0.065314	-2.395330	-0.000350	0.003389	-0.000794	0.217106	0.114738	0.969381	0.443185	-0.896404	0.006843	0.869743	0.428130	-0.245465
02424	9.413759	0.043193	-2.404643	0.003618	0.004883	-0.001675	0.217088	0.114747	0.969384	0.443218	-0.896388	0.006850	0.869730	0.428162	-0.245453
02425	9.453951	0.080266	-2.406258	-0.000350	0.003389	-0.000794	0.217087	0.114755	0.969384	0.443215	-0.896389	0.006858	0.869732	0.428157	-0.245455
02426	9.422010	0.083410	-2.393429	0.001410	0.003018	0.000788	0.217097	0.114749	0.969382	0.443224	-0.896385	0.006846	0.869725	0.428167	-0.245462
02427	9.422123	0.083518	-2.392980	-0.001020	0.006517	-0.003200	0.217058	0.114765	0.969389	0.443221	-0.896386	0.006880	0.869736	0.428160	-0.245434
02428	9.429645	0.058180	-2.414813	0.001185	0.001899	0.002811	0.217084	0.114746	0.969385	0.443224	-0.896385	0.006850	0.869728	0.428168	-0.245449
02429	9.437783	0.098227	-2.404038	-0.000350	0.003389	-0.000794	0.217082	0.114754	0.969385	0.443221	-0.896386	0.006858	0.869730	0.428163	-0.245451
02430	9.449027	0.040132	-2.360526	-0.000030	0.003649	0.000817	0.217087	0.114746	0.969385	0.443218	-0.896388	0.006850	0.869731	0.428162	-0.245451
02431	9.423484	0.050687	-2.380786	-0.000350	0.003388	-0.000794	0.217085	0.114753	0.969384	0.443215	-0.896389	0.006858	0.869732	0.428157	-0.245453
02432	9.461988	0.055087	-2.426077	0.001315	0.003876	-0.002845	0.217071	0.114779	0.969384	0.443230	-0.896382	0.006884	0.869728	0.428165	-0.245452
02433	9.448239	0.072938	-2.370451	0.001505	0.002159	0.004422	0.217104	0.114745	0.969381	0.443231	-0.896381	0.006838	0.869719	0.428176	-0.245466
02434	9.448322	0.072766	-2.370125	0.000195	0.004767	-0.001206	0.217087	0.114751	0.969384	0.443235	-0.896379	0.006850	0.869722	0.428178	-0.245454
02435	9.430225	0.058153	-2.412545	-0.002109	0.003759	-0.002377	0.217075	0.114771	0.969384	0.443220	-0.896386	0.006878	0.869732	0.428158	-0.245452
02436	9.414784	0.043411	-2.400620	0.002304	0.001008	0.001171	0.217103	0.114772	0.969378	0.443237	-0.896378	0.006861	0.869717	0.428174	-0.245478
02437	9.439429	0.065649	-2.390714	-0.000669	0.003128	-0.002405	0.217097	0.114795	0.969377	0.443234	-0.896379	0.006886	0.869720	0.428166	-0.245482
02438	9.439522	0.065825	-2.390341	0.000195	0.004767	-0.001205	0.217082	0.114804	0.969379	0.443235	-0.896379	0.006901	0.869723	0.428165	-0.245472
02439	9.455102	0.080706	-2.401720	-0.000894	0.002010	-0.000383	0.217094	0.114814	0.969375	0.443226	-0.896383	0.006907	0.869724	0.428153	-0.245488
02440	9.430583	0.058512	-2.411137	-0.001469	0.004280	0.000846	0.217090	0.114803	0.969377	0.443212	-0.896390	0.006903	0.869733	0.428141	-0.245479
02441	9.423256	0.083803	-2.388502	0.001955	0.004396	0.000377	0.217085	0.114796	0.969379	0.443226	-0.896383	0.006895	0.869727	0.428158	-0.245472
02442	9.496491	0.084801	-2.391757	0.001410	0.003017	0.000789	0.217094	0.114790	0.969378	0.443235	-0.896379	0.006883	0.869720	0.428168	-0.245478
02443	9.382294	0.079276	-2.396799	-0.000255	0.002530	0.002840	0.217117	0.114769	0.969375	0.443225	-0.896384	0.006856	0.869719	0.428163	-0.245489
02444	9.464607	0.087777	-2.378688	-0.002108	0.003759	-0.002377	0.217103	0.114791	0.969376	0.443211	-0.896391	0.006886	0.869730	0.428143	-0.245486
02445	9.433711	0.058215	-2.354868	0.000835	0.005287	0.002017	0.217098	0.114765	0.969380	0.443212	-0.896391	0.006864	0.869731	0.428150	-0.245470
02446	9.422050	0.050642	-2.430383	0.003394	0.003765	0.000349	0.217098	0.114763	0.969380	0.443238	-0.896378	0.006855	0.869717	0.428178	-0.245469
02447	9.431235	0.058026	-2.408597	0.001635	0.004136	-0.001234	0.217088	0.114771	0.969381	0.443253	-0.896370	0.006863	0.869712	0.428192	-0.245464
02448	9.446820	0.072730	-2.419977	-0.000255	0.002530	0.002840	0.217112	0.114748	0.969379	0.443245	-0.896375	0.006832	0.869711	0.428189	-0.245475
02449	9.456010	0.080307	-2.398154	0.001767	0.006112	-0.006890	0.217059	0.114798	0.969385	0.443273	-0.896360	0.006895	0.869709	0.428206	-0.245450
02450	9.414996	0.076231	-2.406663	-0.000255	0.002530	0.002840	0.217081	0.114777	0.969382	0.443264	-0.896365	0.006868	0.869709	0.428201	-0.245461
02451	9.424170	0.083559	-2.384903	0.000196	0.004767	-0.001205	0.217066	0.114783	0.969385	0.443267	-0.896363	0.006879	0.869711	0.428203	-0.245449
02452	9.440785	0.065687	-2.385353	0.001090	0.002757	-0.000822	0.217068	0.114793	0.969383	0.443278	-0.896358	0.006885	0.869705	0.428212	-0.245456
02453	9.431757	0.058337	-2.406545	-0.000894	0.002010	-0.000383	0.217080	0.114803	0.969379	0.443269	-0.896362	0.006891	0.869706	0.428200	-0.245471
02454	9.440898	0.065796	-2.384903	0.001090	0.002757	-0.000822	0.217086	0.114814	0.969377	0.443278	-0.896358	0.006896	0.869700	0.428206	-0.245481
02455	9.450065	0.073204	-2.363153	-0.001469	0.004280	0.000846	0.217084	0.114803	0.969378	0.443262	-0.896366	0.006892	0.869709	0.428192	-0.245475
02456	9.421888	0.083759	-2.437933	-0.000349	0.003388	-0.000794	0.217082	0.114812	0.969378	0.443258	-0.896367	0.006902	0.869711	0.428187	-0.245477
02457	9.456697	0.080802	-2.395426	0.002406	0.006632	-0.003666	0.217040	0.114832	0.969385	0.443285	-0.896354	0.006931	0.869708	0.428210	-0.245448
02458	9.425814	0.051329	-2.371532	-0.001469	0.004280	0.000846	0.217040	0.114821	0.969386	0.443268	-0.896363	0.006927	0.869717	0.428194	-0.245444
02459	9.473455	0.062813	-2.395317	0.003713	0.004025	0.001962	0.217046	0.114802	0.969387	0.443294	-0.896350	0.006899	0.869702	0.428226	-0.245440
02460	9.424978	0.083904	-2.381695	-0.000668	0.003128	-0.002405	0.217038	0.114826	0.969386	0.443292	-0.896350	0.006925	0.869705	0.428218	-0.245444
02461	9.432521	0.058723	-2.403540	0.000196	0.004767	-0.001205	0.217023	0.114831	0.969389	0.443295	-0.896349	0.006936	0.869707	0.428220	-0.245432
02462	9.457230	0.080970	-2.393314	-0.000924	0.005658	0.000435	0.217009	0.114820	0.969393	0.443282	-0.896355	0.006935	0.869717	0.428210	-0.245415
02463	9.432755	0.058800	-2.402621	-0.000349	0.003388	-0.000794	0.217008	0.114828	0.969393	0.443279	-0.896357	0.006944	0.869719	0.428205	-0.245417
02464	9.439284	0.066368	-2.435355	-0.000123	0.004506	-0.002816	0.216987	0.114846	0.969395	0.443285	-0.896354	0.006969	0.869721	0.428206	-0.245407
02465	9.426513	0.051600	-2.368746	0.000289	0.003909	0.002429	0.216996	0.114823	0.969396	0.443281	-0.896356	0.006945	0.869721	0.428207	-0.245404
02466	9.425578	0.084176	-2.379310	0.001410	0.003017	0.000790	0.217004	0.114820	0.969394	0.443289	-0.896352	0.006936	0.869715	0.428217	-0.245411
02467	9.457696	0.081106	-2.391467	-0.002107	0.003759	-0.002377	0.216993	0.114840	0.969395	0.443274	-0.896359	0.006964	0.869725	0.428196	-0.245409
02468	9.433207	0.058922	-2.400844	0.000289	0.003909	0.002429	0.217002	0.114817	0.969395	0.443269	-0.896362	0.006939	0.869725	0.428197	-0.245407
02469	9.425820	0.084189	-2.378349	-0.000894	0.002010	-0.000383	0.217015	0.114827	0.969391	0.443261	-0.896366	0.006945	0.869727	0.428186	-0.245423
02470	9.449854	0.040940	-2.401167	-0.000894	0.002010	-0.000383	0.217027	0.114837	0.969387	0.443252	-0.896370	0.006952	0.869728	0.428174	-0.245439
02471	9.425935	0.084237	-2.377891	-0.000030	0.003648	0.000818	0.217031	0.114830	0.969387	0.443248	-0.896372	0.006944	0.869729	0.428172	-0.245438
02472	9.465515	0.055812	-2.412260	-0.000667	0.003128	-0.002405	0.217022	0.114854	0.969386	0.443247	-0.896372	0.006971	0.869732	0.428165	-0.245441
02473	9.407943	0.069406	-2.420171	0.001502	0.002159	0.004424	0.217055	0.114820	0.969383	0.443249	-0.896372	0.006924	0.869723	0.428175	-0.245455
02474	9.442730	0.065958	-2.377634	0.001925	0.008044	0.001198	0.217022	0.114790	0.969394	0.443261	-0.896366	0.006908	0.869725	0.428195	-0.245414
02475	9.427321	0.051079	-2.365540	0.001985	0.000747	-0.000438	0.217046	0.114806	0.969387	0.443278	-0.896358	0.006908	0.869710	0.428208	-0.245442
02476	9.433858	0.058375	-2.398296	0.001380	0.006666	0.001608	0.217026	0.114780	0.969394	0.443284	-0.896355	0.006890	0.869712	0.428221	-0.245412
02477	9.472484	0.062495	-2.443349	-0.001469	0.004280	0.000846	0.217024	0.114769	0.969396	0.443268	-0.896363	0.006886	0.869721	0.428207	-0.245406
02478	9.420178	0.076163	-2.342055	0.001955	0.004396	0.000380	0.217020	0.114762	0.969398	0.443282	-0.896356	0.006877	0.869715	0.428224	-0.245399
02479	9.449717	0.072910	-2.408634	0.001955	0.004396	0.000380	0.217015	0.114755	0.969400	0.443296	-0.896349	0.006868	0.869708	0.428241	-0.245392
02480	9.411289	0.068587	-2.362790	-0.002560	0.001523	0.001667	0.217039	0.114749	0.969395	0.443270	-0.896362	0.006860	0.869716	0.428214	-0.245410
02481	9.449881	0.072840	-2.407991	0.000743	0.006145	-0.001614	0.217010	0.114752	0.969401	0.443278	-0.896358	0.006874	0.869719	0.428222	-0.245386
02482	9.450006	0.072885	-2.407498	-0.001469	0.004279	0.000846	0.217006	0.114742	0.969403	0.443263	-0.896366	0.006871	0.869728	0.428209	-0.245378
02483	9.427108	0.083370	-2.373269	0.001410	0.003017	0.000791	0.217015	0.114738	0.969402	0.443271	-0.896361	0.006860	0.869721	0.428220	-0.245384
02484	9.434657	0.058095	-2.395159	-0.002106	0.003759	-0.002377	0.217003	0.114759	0.969402	0.443256	-0.896369	0.006890	0.869732	0.428198	-0.245383
02485	9.425704	0.050802	-2.416173	0.000516	0.005027	0.000408	0.216993	0.114749	0.969405	0.443258	-0.896368	0.006884	0.869734	0.428203	-0.245369
02486	9.443938	0.065562	-2.372842	0.000516	0.005027	0.000408	0.216981	0.114740	0.969409	0.443260	-0.896367	0.006881	0.869735	0.428207	-0.245355
02487	9.401920	0.094061	-2.392343	0.001091	0.002757	-0.000821	0.216985	0.114751	0.969407	0.443270	-0.896362	0.006886	0.869729	0.428215	-0.245363
02488	9.444112	0.065627	-2.372150	0.001637	0.004135	-0.001231	0.216974	0.114760	0.969408	0.443285	-0.896354	0.006895	0.869724	0.428228	-0.245357
02489	9.444207	0.065547	-2.371771	0.000289	0.003909	0.002430	0.216983	0.114737	0.969409	0.443281	-0.896356	0.006871	0.869724	0.428230	-0.245354
02490	9.435225	0.058052	-2.392921	-0.000894	0.002010	-0.000383	0.216994	0.114747	0.969405	0.443273	-0.896360	0.006877	0.869726	0.428219	-0.245369
02491	9.459880	0.080337	-2.382841	0.000198	0.004766	-0.001203	0.216979	0.114752	0.969408	0.443275	-0.896359	0.006888	0.869728	0.428220	-0.245358
02492	9.418859	0.076151	-2.391500	0.002531	0.002126	-0.000848	0.216988	0.114766	0.969404	0.443298	-0.896348	0.006891	0.869714	0.428240	-0.245372
02493	9.444507	0.065577	-2.370575	-0.000030	0.003648	0.000818	0.216992	0.114758	0.969405	0.443294	-0.896350	0.006883	0.869715	0.428238	-0.245372
02494	9.426507	0.050780	-2.413039	0.000198	0.004766	-0.001203	0.216977	0.114763	0.969407	0.443297	-0.896348	0.006893	0.869717	0.428240	-0.245361
02495	9.435674	0.058216	-2.391146	0.000516	0.005027	0.000408	0.216967	0.114753	0.969411	0.443299	-0.896347	0.006888	0.869719	0.428244	-0.245348
02496	9.453866	0.072968	-2.347909	-0.002015	0.002901	0.001256	0.216977	0.114745	0.969409	0.443278	-0.896358	0.006882	0.869727	0.428225	-0.245353
02497	9.428384	0.083628	-2.368186	-0.001559	0.005137	-0.002788	0.216952	0.114763	0.969413	0.443269	-0.896362	0.006913	0.869738	0.428211	-0.245338
02498	9.435961	0.058366	-2.390007	0.001410	0.003017	0.000791	0.216959	0.114759	0.969412	0.443278	-0.896358	0.006903	0.869732	0.428221	-0.245343
02499	9.436034	0.058258	-2.389723	0.001410	0.003017	0.000792	0.216968	0.114754	0.969410	0.443287	-0.896353	0.006892	0.869725	0.428232	-0.245349
02500	9.459119	0.047683	-2.423291	-0.000348	0.003388	-0.000793	0.216965	0.114764	0.969410	0.443283	-0.896355	0.006904	0.869728	0.428225	-0.245351
02501	9.419650	0.076188	-2.388383	-0.000576	0.002270	0.001229	0.216982	0.114759	0.969407	0.443274	-0.896360	0.006894	0.869728	0.428217	-0.245364
02502	9.451781	0.073019	-2.400516	0.001637	0.004135	-0.001230	0.217093	0.114793	0.969378	0.443256	-0.896369	0.006880	0.869710	0.428189	-0.245478
02503	9.436348	0.058223	-2.388485	-0.000030	0.003648	0.000819	0.217097	0.114785	0.969378	0.443252	-0.896370	0.006872	0.869710	0.428187	-0.245478
02504	9.435423	0.090958	-2.399078	0.001092	0.002757	-0.000820	0.217100	0.114796	0.969376	0.443263	-0.896365	0.006878	0.869704	0.428195	-0.245486
02505	9.443031	0.065724	-2.420801	-0.002134	0.007407	-0.001559	0.217060	0.114794	0.969385	0.443246	-0.896374	0.006898	0.869723	0.428178	-0.245449
02506	9.445657	0.065653	-2.365989	0.001529	-0.001489	0.003606	0.217121	0.114782	0.969373	0.443251	-0.896372	0.006858	0.869705	0.428186	-0.245499
02507	9.429168	0.083471	-2.365067	0.000198	0.004766	-0.001203	0.217106	0.114788	0.969375	0.443253	-0.896370	0.006870	0.869708	0.428187	-0.245488
02508	9.436760	0.058224	-2.386855	-0.001787	0.004019	-0.000766	0.217099	0.114792	0.969377	0.443239	-0.896377	0.006881	0.869717	0.428172	-0.245483
02509	9.452373	0.073023	-2.398184	0.001410	0.003017	0.000792	0.217108	0.114787	0.969375	0.443248	-0.896373	0.006870	0.869710	0.428182	-0.245489
02510	9.437939	0.025400	-2.375250	0.000516	0.005026	0.000409	0.217093	0.114777	0.969380	0.443253	-0.896370	0.006865	0.869711	0.428190	-0.245471
02511	9.452575	0.072879	-2.397394	-0.000030	0.003648	0.000819	0.217097	0.114769	0.969380	0.443249	-0.896372	0.006858	0.869712	0.428188	-0.245471
02512	9.411584	0.068565	-2.405998	0.000516	0.005026	0.000409	0.217086	0.114759	0.969383	0.443252	-0.896371	0.006852	0.869713	0.428193	-0.245457
02513	9.453759	0.040090	-2.385762	-0.004318	0.001893	0.000081	0.217102	0.114765	0.969379	0.443212	-0.896390	0.006862	0.869730	0.428151	-0.245473
02514	9.452837	0.072863	-2.396362	-0.001469	0.004279	0.000846	0.217099	0.114756	0.969381	0.443195	-0.896399	0.006860	0.869739	0.428136	-0.245467
02515	9.437392	0.057991	-2.384361	0.001410	0.003017	0.000792	0.217108	0.114752	0.969379	0.443204	-0.896394	0.006849	0.869732	0.428146	-0.245473
02516	9.420949	0.075928	-2.383262	0.001638	0.004135	-0.001229	0.217100	0.114759	0.969380	0.443219	-0.896387	0.006856	0.869726	0.428160	-0.245469
02517	9.437570	0.057975	-2.383657	-0.000030	0.003648	0.000819	0.217104	0.114752	0.969380	0.443216	-0.896389	0.006848	0.869727	0.428158	-0.245469
02518	9.431168	0.050602	-2.350166	0.000199	0.004766	-0.001202	0.217087	0.114758	0.969383	0.443219	-0.896387	0.006860	0.869730	0.428160	-0.245457
02519	9.462331	0.080289	-2.373091	-0.000347	0.003388	-0.000793	0.217086	0.114766	0.969383	0.443216	-0.896388	0.006869	0.869732	0.428155	-0.245459
02520	9.444348	0.065464	-2.415667	0.001410	0.003017	0.000793	0.217093	0.114763	0.969381	0.443225	-0.896384	0.006860	0.869725	0.428165	-0.245464
02521	9.444404	0.065342	-2.415448	0.000863	0.001639	0.001202	0.217116	0.114760	0.969377	0.443228	-0.896383	0.006847	0.869718	0.428168	-0.245484
02522	9.421419	0.075944	-2.381401	0.000775	0.002496	-0.002431	0.217114	0.114785	0.969374	0.443240	-0.896377	0.006868	0.869713	0.428174	-0.245493
02523	9.429000	0.050668	-2.403280	-0.001469	0.004279	0.000846	0.217112	0.114775	0.969376	0.443224	-0.896385	0.006863	0.869721	0.428160	-0.245487
02524	9.469204	0.087602	-2.404736	0.001956	0.004395	0.000383	0.217106	0.114769	0.969378	0.443238	-0.896378	0.006857	0.869715	0.428177	-0.245479
02525	9.429201	0.050525	-2.402493	-0.000030	0.003648	0.000819	0.217109	0.114761	0.969378	0.443235	-0.896379	0.006849	0.869716	0.428175	-0.245478
02526	9.429286	0.050528	-2.402161	-0.000347	0.003388	-0.000793	0.217111	0.114769	0.969377	0.443230	-0.896382	0.006856	0.869718	0.428168	-0.245483
02527	9.437413	0.090682	-2.391249	0.001956	0.004395	0.000383	0.217106	0.114762	0.969378	0.443245	-0.896375	0.006848	0.869712	0.428185	-0.245476
02528	9.486097	0.069653	-2.404053	-0.000664	0.003127	-0.002404	0.217099	0.114786	0.969377	0.443242	-0.896376	0.006875	0.869715	0.428176	-0.245480
02529	9.428548	0.083326	-2.412065	0.003166	0.002646	0.002378	0.217118	0.114769	0.969375	0.443263	-0.896366	0.006844	0.869700	0.428202	-0.245490
02530	9.429643	0.050515	-2.400760	-0.002679	0.006028	-0.001149	0.217090	0.114768	0.969381	0.443242	-0.896376	0.006862	0.869718	0.428180	-0.245465
02531	9.454284	0.072801	-2.390646	0.001985	0.000747	-0.000436	0.217114	0.114784	0.969374	0.443258	-0.896368	0.006862	0.869703	0.428193	-0.245493
02532	9.437784	0.090858	-2.389776	-0.001210	0.001749	-0.001995	0.217118	0.114810	0.969370	0.443252	-0.896370	0.006885	0.869705	0.428181	-0.245508
02533	9.438843	0.058258	-2.378602	0.001639	0.004135	-0.001228	0.217108	0.114818	0.969371	0.443268	-0.896363	0.006893	0.869700	0.428194	-0.245503
02534	9.446433	0.032806	-2.400482	-0.000259	0.002530	0.002841	0.217132	0.114797	0.969368	0.443257	-0.896368	0.006866	0.869699	0.428188	-0.245515
02535	9.445531	0.065476	-2.411035	0.000200	0.004766	-0.001202	0.217117	0.114803	0.969371	0.443260	-0.896367	0.006877	0.869702	0.428190	-0.245504
02536	9.429101	0.083504	-2.409896	0.003078	0.003504	-0.001255	0.217112	0.114815	0.969371	0.443288	-0.896353	0.006882	0.869689	0.428216	-0.245505
02537	9.439204	0.058262	-2.377170	-0.003225	0.004650	-0.000740	0.217100	0.114816	0.969373	0.443260	-0.896367	0.006897	0.869706	0.428187	-0.245495
02538	9.429263	0.083671	-2.409256	0.001985	0.000747	-0.000436	0.217120	0.114832	0.969367	0.443278	-0.896358	0.006897	0.869691	0.428202	-0.245520
02539	9.413767	0.068818	-2.397434	0.001409	0.003017	0.000793	0.217129	0.114827	0.969366	0.443287	-0.896353	0.006886	0.869685	0.428212	-0.245526
02540	9.439413	0.058291	-2.376341	-0.001240	0.005397	-0.001175	0.217109	0.114830	0.969370	0.443277	-0.896358	0.006900	0.869695	0.428202	-0.245509
02541	9.429499	0.083708	-2.408329	0.002532	0.002125	-0.000845	0.217118	0.114843	0.969366	0.443300	-0.896347	0.006903	0.869681	0.428221	-0.245524
02542	9.455117	0.073214	-2.387336	0.001639	0.004135	-0.001228	0.217111	0.114852	0.969367	0.443313	-0.896340	0.006910	0.869676	0.428233	-0.245521
02543	9.430655	0.051010	-2.396771	-0.000030	0.003648	0.000820	0.217115	0.114844	0.969367	0.443310	-0.896342	0.006902	0.869677	0.428231	-0.245521
02544	9.437279	0.058395	-2.429493	0.001639	0.004135	-0.001228	0.217107	0.114854	0.969367	0.443323	-0.896335	0.006910	0.869672	0.428243	-0.245518
02545	9.414330	0.068913	-2.395222	-0.002591	0.005170	0.002484	0.217105	0.114824	0.969371	0.443294	-0.896350	0.006893	0.869687	0.428220	-0.245503
02546	9.429945	0.083619	-2.406585	0.001986	0.000747	-0.000435	0.217129	0.114840	0.969364	0.443311	-0.896342	0.006891	0.869673	0.428233	-0.245531
02547	9.462118	0.080539	-2.418580	0.001293	0.007522	-0.002020	0.217086	0.114841	0.969374	0.443325	-0.896335	0.006908	0.869676	0.428248	-0.245493
02548	9.423645	0.076272	-2.372570	0.000287	0.003908	0.002432	0.217095	0.114817	0.969374	0.443320	-0.896337	0.006883	0.869677	0.428249	-0.245491
02549	9.463334	0.047597	-2.406782	-0.000030	0.003648	0.000820	0.217098	0.114810	0.969375	0.443316	-0.896339	0.006876	0.869678	0.428247	-0.245490
02550	9.423835	0.076132	-2.371818	0.000200	0.004766	-0.001201	0.217082	0.114816	0.969377	0.443319	-0.896337	0.006888	0.869680	0.428248	-0.245479
02551	9.414925	0.068817	-2.392882	-0.000346	0.003387	-0.000792	0.217081	0.114824	0.969377	0.443316	-0.896339	0.006897	0.869682	0.428243	-0.245481
02552	9.447131	0.065625	-2.404755	-0.000059	0.007296	0.001640	0.217055	0.114793	0.969386	0.443311	-0.896341	0.006882	0.869691	0.428246	-0.245445
02553	9.440735	0.058314	-2.371081	-0.001555	0.005136	-0.002787	0.217030	0.114812	0.969390	0.443302	-0.896346	0.006913	0.869702	0.428232	-0.245430
02554	9.447425	0.065853	-2.403592	-0.000376	0.007035	0.000028	0.217002	0.114796	0.969398	0.443296	-0.896348	0.006913	0.869712	0.428230	-0.245398
02555	9.399918	0.054162	-2.379111	0.001409	0.003017	0.000794	0.217011	0.114791	0.969396	0.443305	-0.896344	0.006902	0.869705	0.428241	-0.245404
02556	9.447579	0.065827	-2.402987	-0.000316	-0.000260	-0.001612	0.217041	0.114823	0.969386	0.443302	-0.896346	0.006918	0.869699	0.428229	-0.245445
02557	9.441087	0.058496	-2.369677	0.000517	0.005026	0.000411	0.217030	0.114813	0.969389	0.443304	-0.896345	0.006913	0.869701	0.428234	-0.245431
02558	9.432183	0.051006	-2.390749	0.001409	0.003017	0.000794	0.217039	0.114810	0.969388	0.443311	-0.896341	0.006905	0.869695	0.428242	-0.245438
02559	9.431295	0.083752	-2.401283	0.000201	0.004765	-0.001201	0.217024	0.114816	0.969390	0.443314	-0.896340	0.006916	0.869697	0.428243	-0.245427
02560	9.425818	0.043561	-2.356923	-0.001699	0.003161	0.002867	0.217042	0.114793	0.969389	0.443289	-0.896352	0.006893	0.869705	0.428224	-0.245433
02561	9.405928	0.094127	-2.421380	0.002532	0.002125	-0.000843	0.217052	0.114807	0.969385	0.443312	-0.896341	0.006895	0.869691	0.428243	-0.245448
02562	9.464614	0.047779	-2.401738	-0.002678	0.006027	-0.001149	0.217026	0.114806	0.969391	0.443289	-0.896352	0.006912	0.869709	0.428221	-0.245424
02563	9.407114	0.061508	-2.409670	0.001409	0.003017	0.000795	0.217035	0.114801	0.969390	0.443298	-0.896348	0.006901	0.869702	0.428231	-0.245430
02564	9.416197	0.068842	-2.387873	-0.001469	0.004279	0.000846	0.217032	0.114790	0.969392	0.443283	-0.896355	0.006897	0.869711	0.428219	-0.245422
02565	9.467354	0.047774	-2.345994	0.003626	0.004882	-0.001661	0.217013	0.114799	0.969395	0.443317	-0.896338	0.006904	0.869698	0.428251	-0.245410
02566	9.441920	0.058375	-2.366359	0.001093	0.002756	-0.000818	0.217017	0.114811	0.969393	0.443326	-0.896334	0.006911	0.869693	0.428257	-0.245418
02567	9.441979	0.058350	-2.366122	-0.000576	0.002270	0.001229	0.217034	0.114806	0.969389	0.443317	-0.896338	0.006901	0.869693	0.428249	-0.245431
02568	9.441065	0.090990	-2.376775	0.001409	0.003017	0.000795	0.217045	0.114799	0.969388	0.443327	-0.896334	0.006887	0.869686	0.428261	-0.245438
02569	9.447725	0.098469	-2.409473	-0.001554	0.005136	-0.002787	0.217019	0.114817	0.969391	0.443318	-0.896338	0.006918	0.869697	0.428247	-0.245423
02570	9.424255	0.043613	-2.408012	0.001409	0.003017	0.000795	0.217031	0.114812	0.969389	0.443324	-0.896335	0.006907	0.869690	0.428255	-0.245432
02571	9.423352	0.076250	-2.418632	0.001409	0.003017	0.000795	0.217040	0.114808	0.969388	0.443333	-0.896330	0.006896	0.869683	0.428265	-0.245438
02572	9.416829	0.068829	-2.385377	-0.001439	0.000631	0.000025	0.217065	0.114822	0.969381	0.443319	-0.896338	0.006902	0.869685	0.428246	-0.245466
02573	9.425854	0.076361	-2.363774	0.000778	0.002496	-0.002430	0.217064	0.114848	0.969378	0.443329	-0.896332	0.006923	0.869680	0.428251	-0.245477
02574	9.440031	0.058433	-2.418777	0.001409	0.003017	0.000795	0.217071	0.114843	0.969377	0.443339	-0.896327	0.006912	0.869673	0.428262	-0.245481
02575	9.423606	0.076300	-2.417641	0.002503	0.005773	-0.000022	0.217053	0.114834	0.969382	0.443359	-0.896317	0.006906	0.869667	0.428285	-0.245461
02576	9.432718	0.083737	-2.395689	0.000201	0.004765	-0.001201	0.217036	0.114840	0.969385	0.443363	-0.896316	0.006919	0.869669	0.428288	-0.245449
02577	9.441322	0.025693	-2.406637	0.002533	0.002125	-0.000843	0.217045	0.114854	0.969381	0.443385	-0.896305	0.006921	0.869656	0.428307	-0.245463
02578	9.449469	0.065812	-2.395546	-0.000952	0.009304	0.001257	0.217004	0.114819	0.969395	0.443371	-0.896312	0.006912	0.869673	0.428301	-0.245410
02579	9.425069	0.043662	-2.404822	0.000778	0.002496	-0.002429	0.217003	0.114845	0.969392	0.443381	-0.896306	0.006933	0.869668	0.428306	-0.245421
02580	9.449670	0.065844	-2.394751	-0.000261	0.002530	0.002841	0.217023	0.114826	0.969390	0.443371	-0.896312	0.006910	0.869669	0.428299	-0.245431
02581	9.442191	0.091118	-2.372296	-0.000345	0.003387	-0.000792	0.217022	0.114834	0.969389	0.443368	-0.896313	0.006918	0.869670	0.428294	-0.245433
02582	9.433299	0.083784	-2.393400	0.001641	0.004134	-0.001226	0.217011	0.114843	0.969390	0.443382	-0.896306	0.006928	0.869666	0.428307	-0.245428
02583	9.424409	0.076451	-2.414504	-0.000345	0.003387	-0.000792	0.217010	0.114851	0.969389	0.443379	-0.896307	0.006937	0.869667	0.428302	-0.245430
02584	9.466536	0.047986	-2.394150	-0.003455	0.003531	0.001279	0.217016	0.114841	0.969389	0.443344	-0.896325	0.006934	0.869684	0.428268	-0.245431
02585	9.425520	0.043802	-2.403051	0.000231	0.001118	-0.002021	0.217029	0.114869	0.969383	0.443349	-0.896322	0.006953	0.869678	0.428266	-0.245455
02586	9.426992	0.076617	-2.359223	0.001409	0.003017	0.000795	0.217037	0.114865	0.969382	0.443358	-0.896318	0.006943	0.869671	0.428277	-0.245460
02587	9.447780	0.066067	-2.447297	0.000778	0.002496	-0.002429	0.217036	0.114891	0.969379	0.443369	-0.896312	0.006965	0.869666	0.428281	-0.245471
02588	9.425729	0.043891	-2.402231	0.000833	0.005286	0.002025	0.217029	0.114865	0.969383	0.443371	-0.896311	0.006943	0.869667	0.428290	-0.245454
02589	9.442833	0.091331	-2.369731	0.000517	0.005026	0.000412	0.217019	0.114855	0.969387	0.443373	-0.896310	0.006938	0.869668	0.428294	-0.245440
02590	9.457092	0.073457	-2.424533	-0.000114	0.004504	-0.002812	0.216999	0.114877	0.969389	0.443377	-0.896308	0.006966	0.869672	0.428293	-0.245432
02591	9.434047	0.084013	-2.390440	0.001178	0.001899	0.002816	0.217026	0.114859	0.969385	0.443379	-0.896307	0.006936	0.869663	0.428300	-0.245448
02592	9.450636	0.065942	-2.390933	0.001094	0.002756	-0.000817	0.217030	0.114871	0.969383	0.443388	-0.896303	0.006943	0.869658	0.428306	-0.245457
02593	9.435193	0.051272	-2.378835	-0.002129	0.007405	-0.001558	0.216990	0.114868	0.969392	0.443371	-0.896311	0.006964	0.869676	0.428290	-0.245420
02594	9.466460	0.080938	-2.401515	-0.001469	0.004278	0.000846	0.216987	0.114858	0.969394	0.443356	-0.896319	0.006960	0.869685	0.428276	-0.245413
02595	9.427829	0.076686	-2.355875	0.001986	0.000747	-0.000433	0.217011	0.114874	0.969387	0.443373	-0.896310	0.006960	0.869671	0.428289	-0.245441
02596	9.458597	0.040741	-2.411531	-0.000922	0.005656	0.000438	0.216993	0.114861	0.969392	0.443364	-0.896315	0.006958	0.869680	0.428284	-0.245419
02597	9.435579	0.051262	-2.377305	-0.000030	0.003648	0.000821	0.216996	0.114853	0.969392	0.443360	-0.896317	0.006950	0.869680	0.428282	-0.245419
02598	9.419142	0.069132	-2.376219	0.001956	0.004395	0.000388	0.216991	0.114847	0.969394	0.443375	-0.896309	0.006942	0.869674	0.428299	-0.245411
02599	9.425830	0.076436	-2.408952	-0.002016	0.002900	0.001254	0.217003	0.114838	0.969393	0.443353	-0.896320	0.006935	0.869683	0.428279	-0.245418
02600	9.435861	0.051140	-2.376190	-0.001237	0.005396	-0.001175	0.216982	0.114841	0.969397	0.443343	-0.896325	0.006950	0.869693	0.428268	-0.245400
02601	9.433608	0.051296	-2.430293	0.001326	0.003874	-0.002837	0.216967	0.114865	0.969397	0.443359	-0.896317	0.006974	0.869688	0.428278	-0.245398
02602	9.428454	0.076807	-2.353366	0.001986	0.000747	-0.000433	0.216993	0.114882	0.969390	0.443374	-0.896310	0.006975	0.869675	0.428288	-0.245428
02603	9.419583	0.069393	-2.374465	-0.000375	0.007034	0.000030	0.216963	0.114867	0.969398	0.443369	-0.896312	0.006975	0.869685	0.428287	-0.245395
02604	9.458414	0.073663	-2.419362	-0.000345	0.003387	-0.000791	0.216962	0.114875	0.969397	0.443365	-0.896314	0.006984	0.869687	0.428282	-0.245398
02605	9.442920	0.058935	-2.407462	0.001094	0.002756	-0.000816	0.216966	0.114886	0.969395	0.443375	-0.896309	0.006990	0.869681	0.428289	-0.245406
02606	9.435431	0.084302	-2.384962	-0.001469	0.004278	0.000846	0.216965	0.114876	0.969397	0.443358	-0.896317	0.006986	0.869689	0.428275	-0.245400
02607	9.443109	0.058874	-2.406721	0.001956	0.004395	0.000389	0.216960	0.114869	0.969399	0.443373	-0.896310	0.006977	0.869683	0.428291	-0.245393
02608	9.443201	0.058717	-2.406364	-0.001701	0.003161	0.002866	0.216978	0.114846	0.969397	0.443349	-0.896322	0.006955	0.869691	0.428272	-0.245399
02609	9.452259	0.066166	-2.384504	-0.001551	0.005135	-0.002787	0.216953	0.114865	0.969401	0.443339	-0.896327	0.006986	0.869702	0.428258	-0.245384
02610	9.435822	0.084212	-2.383420	0.001409	0.003017	0.000797	0.216961	0.114860	0.969399	0.443348	-0.896322	0.006976	0.869695	0.428268	-0.245390
02611	9.426925	0.076772	-2.404651	-0.000892	0.002009	-0.000383	0.216974	0.114871	0.969395	0.443340	-0.896326	0.006982	0.869697	0.428257	-0.245406
02612	9.427968	0.044111	-2.393424	0.000203	0.004765	-0.001199	0.216958	0.114874	0.969398	0.443344	-0.896324	0.006991	0.869698	0.428261	-0.245394
02613	9.436074	0.084377	-2.382414	0.000203	0.004765	-0.001199	0.216943	0.114880	0.969401	0.443347	-0.896323	0.007002	0.869700	0.428262	-0.245383
02614	9.427204	0.076966	-2.403550	-0.000577	0.002269	0.001229	0.216960	0.114873	0.969398	0.443339	-0.896327	0.006990	0.869700	0.428256	-0.245395
02615	9.436226	0.084371	-2.381814	-0.000345	0.003387	-0.000791	0.216959	0.114880	0.969397	0.443336	-0.896328	0.006999	0.869702	0.428251	-0.245397
02616	9.437269	0.051648	-2.370580	-0.003455	0.003531	0.001278	0.216968	0.114869	0.969397	0.443301	-0.896346	0.006994	0.869718	0.428217	-0.245400
02617	9.437336	0.051638	-2.370313	0.002534	0.002125	-0.000840	0.216977	0.114883	0.969393	0.443323	-0.896335	0.006996	0.869704	0.428236	-0.245414
02618	9.427486	0.077276	-2.402436	-0.002727	0.003236	-0.005604	0.216956	0.114936	0.969391	0.443309	-0.896341	0.007060	0.869717	0.428208	-0.245419
02619	9.444089	0.059493	-2.402859	-0.000263	0.002530	0.002842	0.216978	0.114915	0.969389	0.443299	-0.896346	0.007033	0.869716	0.428203	-0.245429
02620	9.412075	0.062410	-2.390194	0.000832	0.005286	0.002027	0.216974	0.114891	0.969393	0.443298	-0.896347	0.007012	0.869718	0.428209	-0.245415
02621	9.468809	0.081481	-2.392221	-0.000659	0.003126	-0.002404	0.216968	0.114914	0.969391	0.443296	-0.896347	0.007037	0.869720	0.428201	-0.245420
02622	9.412264	0.062524	-2.389450	-0.001469	0.004278	0.000846	0.216967	0.114903	0.969393	0.443280	-0.896356	0.007032	0.869729	0.428187	-0.245414
02623	9.436887	0.084749	-2.379180	0.001642	0.004134	-0.001223	0.216957	0.114911	0.969394	0.443295	-0.896348	0.007039	0.869723	0.428201	-0.245409
02624	9.428057	0.077365	-2.400191	-0.000922	0.005656	0.000438	0.216944	0.114897	0.969399	0.443284	-0.896354	0.007036	0.869732	0.428193	-0.245390
02625	9.437103	0.084618	-2.378328	0.003163	0.002646	0.002386	0.216963	0.114880	0.969397	0.443305	-0.896344	0.007005	0.869717	0.428218	-0.245400
02626	9.453734	0.066764	-2.378634	-0.003304	0.005505	-0.004375	0.216927	0.114911	0.969401	0.443284	-0.896353	0.007057	0.869737	0.428189	-0.245382
02627	9.460460	0.074499	-2.411324	0.000781	0.002495	-0.002428	0.216926	0.114937	0.969398	0.443294	-0.896348	0.007078	0.869732	0.428193	-0.245393
02628	9.412836	0.062905	-2.387183	0.001409	0.003016	0.000798	0.216937	0.114931	0.969396	0.443303	-0.896344	0.007065	0.869724	0.428204	-0.245400
02629	9.429448	0.044943	-2.387571	-0.000344	0.003387	-0.000791	0.216936	0.114939	0.969396	0.443301	-0.896345	0.007074	0.869726	0.428199	-0.245402
02630	9.445127	0.059756	-2.398769	0.000517	0.005025	0.000414	0.216926	0.114929	0.969399	0.443302	-0.896345	0.007068	0.869728	0.428203	-0.245389
02631	9.428692	0.077720	-2.397684	-0.000344	0.003387	-0.000791	0.216925	0.114937	0.969398	0.443299	-0.896346	0.007077	0.869730	0.428198	-0.245391
02632	9.429738	0.045054	-2.386424	0.001642	0.004134	-0.001222	0.216914	0.114946	0.969400	0.443314	-0.896338	0.007086	0.869724	0.428212	-0.245386
02633	9.461001	0.074760	-2.409194	-0.003222	0.004648	-0.000742	0.216902	0.114948	0.969402	0.443286	-0.896352	0.007101	0.869742	0.428182	-0.245375
02634	9.454423	0.067447	-2.375871	0.001987	0.000747	-0.000431	0.216927	0.114966	0.969394	0.443301	-0.896345	0.007103	0.869728	0.428192	-0.245406
02635	9.437959	0.085286	-2.374902	0.000832	0.005286	0.002027	0.216921	0.114941	0.969399	0.443302	-0.896344	0.007082	0.869729	0.428200	-0.245390
02636	9.445663	0.059859	-2.396653	-0.000344	0.003387	-0.000791	0.216920	0.114950	0.969398	0.443298	-0.896346	0.007092	0.869732	0.428193	-0.245393
02637	9.420265	0.070460	-2.417156	0.001095	0.002756	-0.000815	0.216924	0.114961	0.969396	0.443307	-0.896342	0.007097	0.869726	0.428201	-0.245401
02638	9.439163	0.052611	-2.363007	-0.000344	0.003387	-0.000791	0.216922	0.114967	0.969395	0.443307	-0.896342	0.007105	0.869726	0.428198	-0.245402
02639	9.454851	0.067439	-2.374169	-0.000922	0.005656	0.000439	0.216906	0.114954	0.969400	0.443296	-0.896347	0.007103	0.869736	0.428191	-0.245382
02640	9.420572	0.070447	-2.415960	-0.001155	0.004538	0.002459	0.216912	0.114928	0.969402	0.443277	-0.896357	0.007081	0.869744	0.428178	-0.245375
02641	9.446121	0.059820	-2.394850	0.002534	0.002125	-0.000838	0.216921	0.114942	0.969399	0.443299	-0.896346	0.007083	0.869730	0.428197	-0.245390
02642	9.455106	0.067349	-2.373154	0.000781	0.002495	-0.002427	0.216921	0.114970	0.969395	0.443308	-0.896341	0.007107	0.869726	0.428199	-0.245402
02643	9.414136	0.063168	-2.382045	-0.001469	0.004278	0.000846	0.216919	0.114959	0.969397	0.443292	-0.896349	0.007102	0.869735	0.428185	-0.245396
02644	9.429831	0.077917	-2.393193	0.000518	0.005025	0.000415	0.216910	0.114949	0.969400	0.443294	-0.896348	0.007097	0.869736	0.428190	-0.245383
02645	9.423279	0.070471	-2.359720	-0.000030	0.003647	0.000822	0.216913	0.114941	0.969400	0.443290	-0.896350	0.007089	0.869737	0.428188	-0.245382
02646	9.462144	0.074624	-2.404704	-0.000030	0.003647	0.000822	0.216917	0.114933	0.969401	0.443287	-0.896352	0.007081	0.869738	0.428186	-0.245382
02647	9.446623	0.059722	-2.392869	0.000861	0.001638	0.001206	0.216940	0.114931	0.969396	0.443290	-0.896350	0.007067	0.869731	0.428190	-0.245401
02648	9.421228	0.070246	-2.413405	-0.001783	0.004017	-0.000767	0.216932	0.114938	0.969397	0.443273	-0.896359	0.007082	0.869741	0.428171	-0.245398
02649	9.437838	0.052365	-2.413792	0.002534	0.002125	-0.000838	0.216942	0.114951	0.969393	0.443295	-0.896348	0.007084	0.869727	0.428191	-0.245412
02650	9.398242	0.080840	-2.378839	-0.000951	0.009303	0.001262	0.216899	0.114916	0.969407	0.443281	-0.896355	0.007075	0.869745	0.428185	-0.245359
02651	9.479145	0.056537	-2.403555	0.001987	0.000747	-0.000431	0.216922	0.114932	0.969399	0.443298	-0.896346	0.007075	0.869731	0.428198	-0.245387
02652	9.414963	0.062891	-2.378782	0.000204	0.004764	-0.001197	0.216905	0.114938	0.969403	0.443302	-0.896344	0.007087	0.869733	0.428201	-0.245374
02653	9.430632	0.077751	-2.390041	0.002535	0.002125	-0.000838	0.216914	0.114952	0.969399	0.443324	-0.896333	0.007089	0.869720	0.428220	-0.245388
02654	9.447245	0.059790	-2.390412	-0.001469	0.004278	0.000846	0.216915	0.114939	0.969400	0.443308	-0.896342	0.007081	0.869728	0.428206	-0.245384
02655	9.433049	0.077696	-2.334851	0.001409	0.003016	0.000799	0.216924	0.114934	0.969399	0.443317	-0.896337	0.007070	0.869721	0.428217	-0.245390
02656	9.438513	0.052137	-2.411158	0.000831	0.005285	0.002028	0.216920	0.114909	0.969403	0.443317	-0.896337	0.007049	0.869722	0.428224	-0.245374
02657	9.431005	0.077513	-2.388574	0.001330	0.003873	-0.002834	0.216905	0.114933	0.969403	0.443333	-0.896329	0.007073	0.869717	0.428234	-0.245372
02658	9.447639	0.059660	-2.388859	-0.001469	0.004278	0.000846	0.216901	0.114923	0.969405	0.443318	-0.896336	0.007070	0.869726	0.428221	-0.245363
02659	9.454372	0.067014	-2.421684	0.001987	0.000747	-0.000430	0.216924	0.114939	0.969398	0.443335	-0.896328	0.007070	0.869712	0.428234	-0.245391
02660	9.415637	0.062837	-2.376115	0.000205	0.004764	-0.001197	0.216907	0.114944	0.969401	0.443338	-0.896326	0.007081	0.869714	0.428237	-0.245379
02661	9.447888	0.059729	-2.387869	-0.000921	0.005656	0.000439	0.216892	0.114931	0.969406	0.443328	-0.896332	0.007079	0.869723	0.428229	-0.245359
02662	9.422540	0.070197	-2.408277	0.001409	0.003016	0.000799	0.216898	0.114926	0.969406	0.443339	-0.896326	0.007068	0.869716	0.428242	-0.245363
02663	9.422617	0.070184	-2.407976	-0.000343	0.003386	-0.000790	0.216897	0.114933	0.969405	0.443336	-0.896328	0.007076	0.869718	0.428237	-0.245365
02664	9.422683	0.070234	-2.407717	0.002535	0.002125	-0.000837	0.216908	0.114947	0.969401	0.443358	-0.896317	0.007078	0.869704	0.428256	-0.245381
02665	9.438349	0.084920	-2.419010	0.000283	0.003908	0.002436	0.216916	0.114924	0.969402	0.443353	-0.896319	0.007054	0.869704	0.428257	-0.245378
02666	9.431761	0.077561	-2.385587	-0.002095	0.003756	-0.002380	0.216904	0.114942	0.969402	0.443340	-0.896326	0.007080	0.869714	0.428239	-0.245376
02667	9.455060	0.067074	-2.418991	0.001409	0.003016	0.000799	0.216913	0.114938	0.969401	0.443348	-0.896321	0.007069	0.869707	0.428249	-0.245382
02668	9.448486	0.059727	-2.385504	-0.002673	0.006026	-0.001150	0.216890	0.114937	0.969406	0.443325	-0.896333	0.007086	0.869725	0.428225	-0.245360
02669	9.448609	0.059791	-2.385016	-0.001469	0.004278	0.000846	0.216888	0.114927	0.969408	0.443309	-0.896341	0.007082	0.869734	0.428211	-0.245353
02670	9.425492	0.070390	-2.350867	0.000205	0.004764	-0.001197	0.216872	0.114932	0.969411	0.443313	-0.896339	0.007093	0.869736	0.428214	-0.245341
02671	9.464407	0.074557	-2.395785	-0.001704	0.003160	0.002866	0.216889	0.114908	0.969410	0.443290	-0.896350	0.007069	0.869743	0.428197	-0.245346
02672	9.407842	0.055408	-2.393189	0.001096	0.002756	-0.000813	0.216893	0.114917	0.969408	0.443301	-0.896345	0.007073	0.869737	0.428205	-0.245354
02673	9.455645	0.067119	-2.416702	-0.000343	0.003386	-0.000790	0.216892	0.114925	0.969407	0.443298	-0.896346	0.007082	0.869739	0.428200	-0.245356
02674	9.416937	0.062743	-2.370958	0.003131	0.006293	0.003213	0.216883	0.114885	0.969414	0.443316	-0.896338	0.007043	0.869731	0.428229	-0.245331
02675	9.440287	0.052123	-2.404201	-0.002095	0.003756	-0.002380	0.216872	0.114905	0.969414	0.443301	-0.896345	0.007071	0.869742	0.428209	-0.245329
02676	9.423815	0.070141	-2.403288	0.000861	0.001638	0.001206	0.216891	0.114904	0.969410	0.443306	-0.896343	0.007060	0.869735	0.428214	-0.245346
02677	9.426092	0.070149	-2.348470	0.001644	0.004133	-0.001220	0.216882	0.114912	0.969411	0.443321	-0.896335	0.007068	0.869729	0.428227	-0.245342
02678	9.440531	0.052176	-2.403243	0.000518	0.005025	0.000417	0.216872	0.114900	0.969414	0.443324	-0.896334	0.007060	0.869730	0.428233	-0.245328
02679	9.432988	0.077540	-2.380731	0.001096	0.002756	-0.000813	0.216876	0.114911	0.969412	0.443334	-0.896329	0.007066	0.869724	0.428241	-0.245336
02680	9.449602	0.059578	-2.381084	-0.000030	0.003647	0.000823	0.216881	0.114905	0.969412	0.443328	-0.896332	0.007060	0.869726	0.428237	-0.245338
02681	9.433171	0.077402	-2.380012	-0.002595	0.005169	0.002482	0.216878	0.114876	0.969416	0.443299	-0.896346	0.007042	0.869741	0.428214	-0.245322
02682	9.439992	0.084749	-2.412599	0.000206	0.004764	-0.001196	0.216863	0.114881	0.969419	0.443302	-0.896344	0.007053	0.869743	0.428216	-0.245310
02683	9.456630	0.066992	-2.412849	-0.002094	0.003756	-0.002380	0.216851	0.114901	0.969419	0.443288	-0.896351	0.007081	0.869754	0.428196	-0.245309
02684	9.433460	0.077647	-2.378855	-0.000578	0.002269	0.001230	0.216871	0.114896	0.969415	0.443277	-0.896357	0.007070	0.869754	0.428186	-0.245324
02685	9.424635	0.070142	-2.400068	-0.000030	0.003647	0.000823	0.216874	0.114888	0.969415	0.443273	-0.896359	0.007062	0.869755	0.428184	-0.245324
02686	9.440314	0.084924	-2.411330	0.001096	0.002756	-0.000813	0.216877	0.114898	0.969414	0.443284	-0.896353	0.007067	0.869749	0.428193	-0.245331
02687	9.433700	0.077544	-2.377908	0.000518	0.005025	0.000417	0.216867	0.114888	0.969417	0.443286	-0.896352	0.007062	0.869751	0.428198	-0.245317
02688	9.441434	0.052022	-2.399695	-0.000266	0.002530	0.002843	0.216885	0.114867	0.969416	0.443278	-0.896356	0.007037	0.869750	0.428195	-0.245324
02689	9.408469	0.087931	-2.397964	0.002429	0.006628	-0.003644	0.216843	0.114887	0.969423	0.443306	-0.896343	0.007066	0.869747	0.428218	-0.245295
02690	9.441646	0.052206	-2.398856	-0.000891	0.002008	-0.000383	0.216856	0.114896	0.969419	0.443297	-0.896347	0.007071	0.869748	0.428207	-0.245311
02691	9.434101	0.077410	-2.376323	0.003131	0.006293	0.003215	0.216847	0.114855	0.969425	0.443316	-0.896338	0.007032	0.869740	0.428237	-0.245286
02692	9.409732	0.055163	-2.385754	-0.003533	0.004387	-0.002357	0.216829	0.114873	0.969427	0.443290	-0.896350	0.007064	0.869758	0.428206	-0.245277
02693	9.457593	0.066933	-2.409074	0.000518	0.005024	0.000417	0.216819	0.114862	0.969431	0.443292	-0.896349	0.007058	0.869759	0.428211	-0.245263
02694	9.393415	0.073251	-2.384235	0.001645	0.004133	-0.001218	0.216812	0.114871	0.969431	0.443306	-0.896342	0.007066	0.869754	0.428223	-0.245261
02695	9.473431	0.081688	-2.419724	-0.000608	0.005916	0.002053	0.216802	0.114843	0.969437	0.443295	-0.896348	0.007048	0.869763	0.428218	-0.245239
02696	9.410180	0.055107	-2.383988	0.001409	0.003016	0.000801	0.216811	0.114839	0.969435	0.443302	-0.896344	0.007038	0.869756	0.428227	-0.245246
02697	9.442402	0.051940	-2.395886	-0.000342	0.003386	-0.000790	0.216810	0.114847	0.969435	0.443300	-0.896346	0.007046	0.869758	0.428222	-0.245248
02698	9.441565	0.084703	-2.406436	-0.001469	0.004277	0.000846	0.216808	0.114835	0.969437	0.443285	-0.896353	0.007040	0.869766	0.428210	-0.245241
02699	9.417168	0.062606	-2.415998	-0.002093	0.003756	-0.002380	0.216796	0.114855	0.969437	0.443270	-0.896360	0.007068	0.869776	0.428190	-0.245240
02700	9.458299	0.066885	-2.406300	0.002270	0.004654	0.002009	0.216794	0.114832	0.969440	0.443285	-0.896353	0.007044	0.869769	0.428212	-0.245227
02701	9.410623	0.055150	-2.382238	-0.000890	0.002008	-0.000383	0.216807	0.114842	0.969436	0.443277	-0.896357	0.007050	0.869770	0.428200	-0.245243
02702	9.450797	0.092223	-2.383557	0.001645	0.004133	-0.001218	0.216997	0.114785	0.969400	0.443243	-0.896375	0.006920	0.869740	0.428178	-0.245388
02703	9.409842	0.088006	-2.392569	0.002536	0.002125	-0.000834	0.217007	0.114799	0.969396	0.443265	-0.896364	0.006922	0.869727	0.428197	-0.245403
02704	9.467497	0.074225	-2.383553	0.000831	0.005285	0.002031	0.217001	0.114772	0.969401	0.443267	-0.896363	0.006899	0.869727	0.428206	-0.245387
02705	9.426553	0.069788	-2.392535	0.000861	0.001638	0.001207	0.217024	0.114770	0.969396	0.443270	-0.896362	0.006885	0.869719	0.428210	-0.245406
02706	9.426637	0.069615	-2.392209	0.000831	0.005285	0.002031	0.217019	0.114744	0.969400	0.443271	-0.896361	0.006864	0.869720	0.428218	-0.245391
02707	9.426745	0.069647	-2.391783	-0.002093	0.003756	-0.002380	0.217008	0.114764	0.969400	0.443257	-0.896368	0.006892	0.869730	0.428197	-0.245389
02708	9.458040	0.099382	-2.414606	0.002536	0.002125	-0.000834	0.217017	0.114777	0.969396	0.443280	-0.896357	0.006893	0.869716	0.428218	-0.245404
02709	9.411279	0.054966	-2.379650	0.001958	0.004394	0.000396	0.217013	0.114770	0.969398	0.443294	-0.896350	0.006884	0.869710	0.428235	-0.245396
02710	9.474749	0.081399	-2.414568	-0.000342	0.003386	-0.000789	0.217010	0.114779	0.969398	0.443292	-0.896351	0.006894	0.869712	0.428230	-0.245397
02711	9.394901	0.072904	-2.378384	-0.000578	0.002269	0.001230	0.217027	0.114773	0.969395	0.443283	-0.896355	0.006884	0.869712	0.428222	-0.245411
02712	9.442742	0.084550	-2.401818	-0.001781	0.004017	-0.000767	0.217023	0.114779	0.969395	0.443265	-0.896364	0.006896	0.869722	0.428202	-0.245409
02713	9.436069	0.077164	-2.368502	0.000860	0.001638	0.001208	0.217046	0.114776	0.969390	0.443268	-0.896363	0.006882	0.869715	0.428206	-0.245429
02714	9.411664	0.054779	-2.378130	0.000831	0.005285	0.002032	0.217041	0.114751	0.969394	0.443269	-0.896363	0.006861	0.869716	0.428213	-0.245413
02715	9.443918	0.051816	-2.389907	-0.002716	0.003235	-0.005607	0.217020	0.114803	0.969393	0.443256	-0.896369	0.006922	0.869728	0.428187	-0.245417
02716	9.443978	0.051966	-2.389664	0.001172	0.001899	0.002821	0.217046	0.114785	0.969389	0.443258	-0.896368	0.006893	0.869720	0.428193	-0.245433
02717	9.460575	0.033815	-2.390064	0.001409	0.003016	0.000802	0.217056	0.114780	0.969388	0.443267	-0.896363	0.006882	0.869713	0.428204	-0.245439
02718	9.427580	0.069619	-2.388488	-0.000030	0.003647	0.000824	0.217060	0.114771	0.969388	0.443265	-0.896365	0.006872	0.869713	0.428204	-0.245439
02719	9.459811	0.066451	-2.400362	0.001097	0.002755	-0.000811	0.217064	0.114782	0.969385	0.443274	-0.896360	0.006877	0.869707	0.428211	-0.245448
02720	9.403247	0.047381	-2.397843	-0.000030	0.003647	0.000824	0.217068	0.114776	0.969385	0.443269	-0.896362	0.006872	0.869709	0.428207	-0.245448
02721	9.436685	0.077013	-2.366051	-0.000341	0.003386	-0.000789	0.217067	0.114784	0.969385	0.443266	-0.896364	0.006880	0.869711	0.428202	-0.245451
02722	9.427919	0.069767	-2.387147	0.001883	0.005250	-0.003236	0.217040	0.114806	0.969388	0.443287	-0.896353	0.006908	0.869707	0.428218	-0.245437
02723	9.434805	0.077359	-2.419662	-0.002670	0.006025	-0.001151	0.217014	0.114806	0.969394	0.443264	-0.896364	0.006925	0.869725	0.428195	-0.245413
02724	9.421406	0.062638	-2.353142	0.001409	0.003016	0.000802	0.217022	0.114801	0.969393	0.443275	-0.896359	0.006914	0.869718	0.428207	-0.245418
02725	9.452723	0.092134	-2.375912	-0.000030	0.003646	0.000824	0.217026	0.114793	0.969393	0.443271	-0.896361	0.006906	0.869719	0.428205	-0.245418
02726	9.460454	0.066821	-2.397817	0.000237	0.001117	-0.002019	0.217042	0.114822	0.969386	0.443273	-0.896360	0.006925	0.869713	0.428200	-0.245446
02727	9.428349	0.070109	-2.385438	-0.000341	0.003386	-0.000789	0.217041	0.114830	0.969385	0.443270	-0.896361	0.006934	0.869715	0.428195	-0.245448
02728	9.444041	0.084970	-2.396690	0.001098	0.002755	-0.000811	0.217046	0.114842	0.969382	0.443278	-0.896357	0.006940	0.869710	0.428200	-0.245458
02729	9.451797	0.059746	-2.418506	0.001335	0.003872	-0.002830	0.217032	0.114866	0.969383	0.443294	-0.896349	0.006965	0.869705	0.428210	-0.245456
02730	9.428568	0.070464	-2.384561	-0.000890	0.002008	-0.000384	0.217041	0.114875	0.969380	0.443289	-0.896352	0.006970	0.869706	0.428202	-0.245468
02731	9.419776	0.062859	-2.405805	0.002032	0.003537	0.004029	0.217060	0.114839	0.969380	0.443296	-0.896348	0.006926	0.869697	0.428219	-0.245469
02732	9.452053	0.059558	-2.417510	0.000757	0.006141	-0.001600	0.217032	0.114844	0.969385	0.443303	-0.896345	0.006941	0.869701	0.428225	-0.245446
02733	9.412302	0.088157	-2.382870	0.000549	0.001378	-0.000405	0.217050	0.114857	0.969380	0.443307	-0.896343	0.006944	0.869694	0.428226	-0.245468
02734	9.445437	0.052316	-2.383886	-0.000341	0.003386	-0.000789	0.217046	0.114865	0.969380	0.443305	-0.896344	0.006954	0.869696	0.428222	-0.245468
02735	9.428994	0.070359	-2.382882	0.000208	0.004763	-0.001194	0.217031	0.114870	0.969382	0.443308	-0.896342	0.006965	0.869698	0.428224	-0.245457
02736	9.429090	0.070278	-2.382503	0.001720	0.003277	0.002416	0.217044	0.114849	0.969382	0.443318	-0.896337	0.006936	0.869690	0.428239	-0.245459
02737	9.430086	0.037443	-2.371271	-0.000341	0.003386	-0.000789	0.217043	0.114857	0.969381	0.443315	-0.896339	0.006945	0.869692	0.428234	-0.245462
02738	9.403872	0.080807	-2.402696	0.000208	0.004763	-0.001194	0.217029	0.114862	0.969384	0.443318	-0.896338	0.006955	0.869694	0.428236	-0.245452
02739	9.444990	0.085266	-2.392938	-0.002091	0.003756	-0.002381	0.217018	0.114883	0.969384	0.443303	-0.896345	0.006984	0.869704	0.428215	-0.245451
02740	9.445970	0.052594	-2.381765	0.000860	0.001638	0.001208	0.217041	0.114880	0.969379	0.443306	-0.896343	0.006969	0.869697	0.428219	-0.245470
02741	9.429501	0.070451	-2.380869	-0.001469	0.004277	0.000846	0.217040	0.114869	0.969381	0.443290	-0.896351	0.006965	0.869706	0.428205	-0.245464
02742	9.451976	0.092608	-2.425144	0.002537	0.002125	-0.000832	0.217051	0.114882	0.969377	0.443312	-0.896340	0.006966	0.869692	0.428224	-0.245480
02743	9.437330	0.044965	-2.402443	-0.001707	0.003160	0.002865	0.217068	0.114858	0.969376	0.443289	-0.896352	0.006942	0.869699	0.428207	-0.245485
02744	9.453060	0.059695	-2.413567	0.002196	0.005510	-0.001621	0.217044	0.114864	0.969380	0.443310	-0.896341	0.006953	0.869694	0.428227	-0.245466
02745	9.414176	0.055507	-2.368149	0.001439	-0.000631	-0.000022	0.217081	0.114882	0.969370	0.443321	-0.896336	0.006949	0.869679	0.428233	-0.245508
02746	9.469708	0.041819	-2.413755	0.000208	0.004763	-0.001194	0.217065	0.114888	0.969373	0.443324	-0.896334	0.006962	0.869682	0.428235	-0.245495
02747	9.422259	0.095547	-2.356974	0.002031	0.003537	0.004030	0.217084	0.114852	0.969373	0.443332	-0.896331	0.006917	0.869673	0.428252	-0.245496
02748	9.430059	0.070191	-2.378666	0.000136	0.005619	-0.004826	0.217046	0.114885	0.969377	0.443342	-0.896325	0.006962	0.869677	0.428255	-0.245477
02749	9.412460	0.055524	-2.421315	-0.000579	0.002269	0.001230	0.217064	0.114880	0.969374	0.443333	-0.896330	0.006952	0.869678	0.428247	-0.245491
02750	9.455605	0.059830	-2.357125	-0.000341	0.003386	-0.000789	0.217063	0.114886	0.969373	0.443331	-0.896331	0.006959	0.869679	0.428243	-0.245493
02751	9.430307	0.070454	-2.377677	-0.001780	0.004016	-0.000767	0.217056	0.114891	0.969374	0.443316	-0.896338	0.006970	0.869688	0.428226	-0.245489
02752	9.453699	0.059872	-2.411060	0.000860	0.001638	0.001208	0.217079	0.114889	0.969369	0.443319	-0.896337	0.006957	0.869681	0.428229	-0.245509
02753	9.407108	0.080992	-2.343524	-0.000341	0.003386	-0.000789	0.217078	0.114897	0.969369	0.443316	-0.896339	0.006965	0.869683	0.428224	-0.245511
02754	9.421660	0.063144	-2.398409	0.000788	0.002494	-0.002424	0.217074	0.114922	0.969367	0.443329	-0.896332	0.006987	0.869677	0.428232	-0.245519
02755	9.461846	0.100314	-2.399609	0.000208	0.004763	-0.001194	0.217059	0.114928	0.969369	0.443332	-0.896330	0.006998	0.869679	0.428233	-0.245508
02756	9.421850	0.063238	-2.397659	0.000281	0.003907	0.002438	0.217066	0.114904	0.969371	0.443329	-0.896332	0.006974	0.869679	0.428236	-0.245503
02757	9.430798	0.070515	-2.375725	0.000519	0.005024	0.000420	0.217056	0.114894	0.969374	0.443331	-0.896331	0.006968	0.869681	0.428241	-0.245490
02758	9.446521	0.085309	-2.386884	0.001098	0.002755	-0.000810	0.217060	0.114906	0.969372	0.443339	-0.896327	0.006976	0.869675	0.428246	-0.245499
02759	9.430959	0.070484	-2.375087	0.001409	0.003016	0.000804	0.217069	0.114901	0.969370	0.443348	-0.896323	0.006965	0.869669	0.428257	-0.245505
02760	9.431019	0.070458	-2.374851	-0.000890	0.002008	-0.000384	0.217082	0.114913	0.969366	0.443338	-0.896327	0.006972	0.869670	0.428243	-0.245522
02761	9.437884	0.077742	-2.407610	0.000281	0.003907	0.002439	0.217091	0.114890	0.969367	0.443333	-0.896330	0.006948	0.869671	0.428244	-0.245520
02762	9.431205	0.070221	-2.374116	0.002507	0.005771	-0.000006	0.217073	0.114881	0.969372	0.443353	-0.896320	0.006943	0.869665	0.428267	-0.245499
02763	9.422429	0.062773	-2.395394	-0.001988	-0.000747	0.000426	0.217113	0.114895	0.969361	0.443333	-0.896330	0.006943	0.869665	0.428242	-0.245542
02764	9.431329	0.070265	-2.373625	0.000758	0.006140	-0.001598	0.217084	0.114899	0.969367	0.443341	-0.896326	0.006958	0.869669	0.428250	-0.245518
02765	9.463623	0.067060	-2.385274	0.000280	0.003907	0.002439	0.217093	0.114876	0.969368	0.443336	-0.896329	0.006934	0.869669	0.428251	-0.245515
02766	9.448095	0.052121	-2.373330	0.000519	0.005024	0.000420	0.217082	0.114865	0.969372	0.443339	-0.896327	0.006928	0.869670	0.428256	-0.245501
02767	9.406266	0.080597	-2.393315	-0.000890	0.002008	-0.000384	0.217095	0.114875	0.969368	0.443330	-0.896331	0.006934	0.869671	0.428245	-0.245517
02768	9.463881	0.066907	-2.384251	-0.000030	0.003646	0.000825	0.217101	0.114868	0.969367	0.443325	-0.896334	0.006927	0.869673	0.428241	-0.245519
02769	9.414132	0.055297	-2.414811	0.001338	0.003872	-0.002828	0.217086	0.114892	0.969367	0.443341	-0.896326	0.006951	0.869668	0.428251	-0.245517
02770	9.462042	0.067032	-2.438064	-0.001469	0.004277	0.000846	0.217082	0.114881	0.969370	0.443327	-0.896333	0.006946	0.869676	0.428240	-0.245507
02771	9.422224	0.095369	-2.403572	0.002609	0.001268	0.002802	0.217115	0.114865	0.969364	0.443342	-0.896326	0.006912	0.869660	0.428259	-0.245530
02772	9.471002	0.074241	-2.416047	-0.002089	0.003755	-0.002381	0.217103	0.114887	0.969364	0.443327	-0.896333	0.006942	0.869671	0.428238	-0.245529
02773	9.406752	0.080661	-2.391403	0.000519	0.005024	0.000421	0.217093	0.114877	0.969368	0.443329	-0.896332	0.006936	0.869672	0.428243	-0.245516
02774	9.423405	0.062645	-2.391556	0.001958	0.004393	0.000400	0.217089	0.114868	0.969370	0.443345	-0.896324	0.006925	0.869665	0.428261	-0.245508
02775	9.455677	0.059490	-2.403301	-0.000340	0.003385	-0.000788	0.217088	0.114875	0.969369	0.443342	-0.896326	0.006934	0.869667	0.428257	-0.245511
02776	9.423582	0.062646	-2.390858	-0.000030	0.003646	0.000825	0.217092	0.114868	0.969369	0.443337	-0.896328	0.006927	0.869669	0.428253	-0.245511
02777	9.439310	0.077519	-2.402021	0.001338	0.003872	-0.002827	0.217078	0.114892	0.969369	0.443353	-0.896320	0.006951	0.869664	0.428264	-0.245509
02778	9.455920	0.059718	-2.402336	-0.000889	0.002008	-0.000384	0.217088	0.114905	0.969366	0.443344	-0.896325	0.006961	0.869666	0.428251	-0.245524
02779	9.423801	0.062845	-2.389991	0.001409	0.003016	0.000805	0.217097	0.114900	0.969364	0.443353	-0.896320	0.006949	0.869659	0.428262	-0.245530
02780	9.456074	0.059691	-2.401731	0.000210	0.004763	-0.001193	0.217083	0.114906	0.969366	0.443355	-0.896319	0.006961	0.869662	0.428262	-0.245520
02781	9.430796	0.070218	-2.422328	-0.000579	0.002269	0.001230	0.217101	0.114900	0.969363	0.443346	-0.896324	0.006950	0.869662	0.428254	-0.245533
02782	9.456247	0.059616	-2.401054	0.000520	0.005024	0.000421	0.217091	0.114891	0.969367	0.443347	-0.896323	0.006945	0.869663	0.428258	-0.245520
02783	9.424162	0.062689	-2.388572	0.001409	0.003016	0.000805	0.217100	0.114886	0.969365	0.443356	-0.896319	0.006934	0.869657	0.428269	-0.245526
02784	9.439859	0.077360	-2.399866	0.000859	0.001638	0.001209	0.217125	0.114882	0.969360	0.443360	-0.896317	0.006918	0.869649	0.428273	-0.245547
02785	9.448772	0.084782	-2.377978	0.000759	0.006140	-0.001597	0.217096	0.114885	0.969366	0.443368	-0.896313	0.006932	0.869652	0.428281	-0.245523
02786	9.433258	0.070109	-2.365952	0.000210	0.004763	-0.001193	0.217081	0.114890	0.969369	0.443372	-0.896311	0.006942	0.869654	0.428284	-0.245511
02787	9.440191	0.077510	-2.398558	-0.001469	0.004277	0.000846	0.217079	0.114879	0.969371	0.443355	-0.896319	0.006938	0.869662	0.428270	-0.245505
02788	9.431446	0.069998	-2.419801	0.000859	0.001638	0.001209	0.217101	0.114877	0.969366	0.443359	-0.896317	0.006925	0.869655	0.428274	-0.245523
02789	9.424684	0.062677	-2.386510	0.001339	0.003871	-0.002827	0.217086	0.114901	0.969366	0.443375	-0.896309	0.006949	0.869650	0.428285	-0.245521
02790	9.440425	0.077566	-2.397635	-0.001469	0.004277	0.000846	0.217085	0.114891	0.969368	0.443359	-0.896317	0.006945	0.869659	0.428270	-0.245515
02791	9.424876	0.062711	-2.385752	-0.000030	0.003646	0.000826	0.217089	0.114883	0.969368	0.443355	-0.896319	0.006937	0.869660	0.428268	-0.245515
02792	9.433753	0.070204	-2.363974	-0.001199	0.001747	-0.001998	0.217096	0.114908	0.969363	0.443348	-0.896322	0.006959	0.869662	0.428255	-0.245532
02793	9.431845	0.070218	-2.418240	0.001958	0.004393	0.000401	0.217091	0.114901	0.969365	0.443363	-0.896315	0.006950	0.869656	0.428272	-0.245525
02794	9.425068	0.062725	-2.384990	0.000310	0.000261	0.001614	0.217128	0.114903	0.969357	0.443358	-0.896318	0.006937	0.869649	0.428266	-0.245559
02795	9.431983	0.070178	-2.417702	-0.000989	0.006510	-0.003190	0.217089	0.114919	0.969364	0.443355	-0.896319	0.006970	0.869660	0.428259	-0.245531
02796	9.425238	0.062886	-2.384316	0.002298	0.001008	0.001189	0.217119	0.114921	0.969357	0.443368	-0.896313	0.006954	0.869646	0.428272	-0.245559
02797	9.457478	0.059691	-2.396197	-0.000339	0.003385	-0.000788	0.217118	0.114929	0.969356	0.443365	-0.896314	0.006963	0.869648	0.428267	-0.245562
02798	9.441030	0.077636	-2.395250	0.001959	0.004393	0.000401	0.217114	0.114920	0.969358	0.443380	-0.896307	0.006953	0.869641	0.428285	-0.245554
02799	9.441123	0.077635	-2.394883	-0.000339	0.003385	-0.000788	0.217113	0.114928	0.969357	0.443377	-0.896308	0.006961	0.869643	0.428280	-0.245556
02800	9.448924	0.052255	-2.416720	-0.000580	0.002269	0.001230	0.217130	0.114922	0.969354	0.443369	-0.896312	0.006950	0.869643	0.428272	-0.245569
02801	9.416810	0.055239	-2.404346	0.000279	0.003907	0.002440	0.217139	0.114898	0.969355	0.443364	-0.896315	0.006926	0.869643	0.428273	-0.245567
02802	9.441342	0.077442	-2.394023	0.000790	0.002494	-0.002422	0.217138	0.114925	0.969352	0.443374	-0.896310	0.006948	0.869638	0.428277	-0.245578
02803	9.442321	0.044861	-2.382754	0.000210	0.004763	-0.001192	0.217123	0.114931	0.969355	0.443377	-0.896308	0.006959	0.869641	0.428278	-0.245567
02804	9.434680	0.070151	-2.360272	0.001718	0.003276	0.002420	0.217136	0.114911	0.969354	0.443385	-0.896304	0.006932	0.869633	0.428292	-0.245570
02805	9.449338	0.051958	-2.415108	0.001409	0.003016	0.000806	0.217146	0.114906	0.969353	0.443394	-0.896300	0.006921	0.869626	0.428302	-0.245576
02806	9.409494	0.080487	-2.380597	-0.001778	0.004016	-0.000768	0.217140	0.114911	0.969353	0.443379	-0.896308	0.006933	0.869635	0.428285	-0.245573
02807	9.426120	0.062699	-2.380830	0.002779	0.003241	-0.002846	0.217131	0.114937	0.969352	0.443408	-0.896293	0.006953	0.869623	0.428308	-0.245577
02808	9.458394	0.059607	-2.392581	-0.000030	0.003646	0.000826	0.217132	0.114929	0.969353	0.443406	-0.896294	0.006945	0.869623	0.428309	-0.245574
02809	9.426273	0.062847	-2.380222	-0.002637	0.002377	-0.001978	0.217135	0.114951	0.969350	0.443386	-0.896304	0.006971	0.869633	0.428282	-0.245586
02810	9.433182	0.070209	-2.413018	-0.000271	0.002529	0.002844	0.217157	0.114931	0.969347	0.443375	-0.896309	0.006945	0.869633	0.428276	-0.245597
02811	9.426426	0.062604	-2.379621	0.000829	0.005284	0.002036	0.217152	0.114905	0.969351	0.443376	-0.896309	0.006923	0.869634	0.428284	-0.245581
02812	9.432491	0.102551	-2.423186	0.001409	0.003015	0.000806	0.217163	0.114900	0.969349	0.443383	-0.896305	0.006911	0.869627	0.428293	-0.245589
02813	9.443143	0.044483	-2.379500	-0.000339	0.003385	-0.000788	0.217162	0.114908	0.969349	0.443380	-0.896307	0.006920	0.869629	0.428288	-0.245592
02814	9.417877	0.055071	-2.400170	0.001100	0.002755	-0.000808	0.217166	0.114921	0.969346	0.443389	-0.896303	0.006927	0.869624	0.428293	-0.245601
02815	9.449253	0.084626	-2.422894	0.001409	0.003015	0.000806	0.217175	0.114916	0.969345	0.443397	-0.896298	0.006916	0.869617	0.428303	-0.245607
02816	9.433697	0.069752	-2.411018	0.000520	0.005023	0.000422	0.217163	0.114906	0.969349	0.443401	-0.896297	0.006912	0.869618	0.428309	-0.245592
02817	9.435707	0.069877	-2.356172	0.000241	0.001116	-0.002018	0.217176	0.114935	0.969342	0.443405	-0.896294	0.006931	0.869613	0.428306	-0.245616
02818	9.441566	0.044483	-2.432632	0.001409	0.003015	0.000806	0.217184	0.114929	0.969341	0.443416	-0.896289	0.006919	0.869605	0.428318	-0.245621
02819	9.427047	0.062412	-2.377164	-0.001469	0.004276	0.000846	0.217183	0.114918	0.969343	0.443399	-0.896298	0.006914	0.869614	0.428304	-0.245615
02820	9.449636	0.084481	-2.421407	0.000859	0.001638	0.001210	0.217206	0.114918	0.969338	0.443401	-0.896297	0.006903	0.869608	0.428306	-0.245636
02821	9.386195	0.058043	-2.386088	-0.001777	0.004016	-0.000768	0.217199	0.114922	0.969339	0.443385	-0.896304	0.006915	0.869617	0.428289	-0.245632
02822	9.450671	0.051814	-2.409890	0.001100	0.002755	-0.000808	0.217204	0.114933	0.969336	0.443395	-0.896300	0.006920	0.869611	0.428296	-0.245640
02823	9.458651	0.092045	-2.398998	-0.000339	0.003385	-0.000788	0.217203	0.114941	0.969336	0.443392	-0.896301	0.006928	0.869613	0.428291	-0.245643
02824	9.393350	0.065538	-2.417977	-0.001498	0.007922	0.001673	0.217173	0.114908	0.969346	0.443373	-0.896311	0.006917	0.869630	0.428280	-0.245602
02825	9.466681	0.066709	-2.420000	0.001341	0.003871	-0.002825	0.217159	0.114932	0.969346	0.443389	-0.896302	0.006941	0.869625	0.428290	-0.245600
02826	9.395466	0.065766	-2.362649	0.001989	0.000747	-0.000423	0.217182	0.114948	0.969339	0.443406	-0.896294	0.006940	0.869611	0.428303	-0.245628
02827	9.466804	0.066636	-2.419521	-0.000851	0.004798	0.004074	0.217190	0.114906	0.969343	0.443388	-0.896303	0.006903	0.869618	0.428295	-0.245616
02828	9.434692	0.069714	-2.407123	0.000791	0.002494	-0.002421	0.217191	0.114933	0.969339	0.443397	-0.896299	0.006925	0.869613	0.428298	-0.245629
02829	9.418236	0.087820	-2.406221	0.000212	0.004762	-0.001191	0.217176	0.114938	0.969342	0.443400	-0.896297	0.006936	0.869616	0.428300	-0.245618
02830	9.475862	0.074239	-2.396913	-0.000339	0.003385	-0.000788	0.217175	0.114946	0.969341	0.443397	-0.896299	0.006944	0.869617	0.428295	-0.245620
02831	9.402765	0.073141	-2.393986	-0.001469	0.004276	0.000846	0.217173	0.114935	0.969343	0.443380	-0.896307	0.006940	0.869626	0.428280	-0.245614
02832	9.460382	0.059388	-2.384715	0.001409	0.003015	0.000807	0.217181	0.114930	0.969342	0.443391	-0.896302	0.006928	0.869619	0.428292	-0.245619
02833	9.411736	0.080349	-2.371723	-0.002599	0.005168	0.002480	0.217179	0.114901	0.969346	0.443361	-0.896316	0.006911	0.869635	0.428269	-0.245604
02834	9.451802	0.051756	-2.405453	0.003089	0.003501	-0.001230	0.217175	0.114913	0.969345	0.443388	-0.896303	0.006917	0.869622	0.428294	-0.245606
02835	9.459825	0.091868	-2.394373	-0.002049	0.006545	0.002076	0.217159	0.114882	0.969352	0.443364	-0.896315	0.006901	0.869638	0.428277	-0.245577
02836	9.411061	0.047322	-2.413991	-0.000030	0.003646	0.000827	0.217165	0.114876	0.969352	0.443357	-0.896319	0.006896	0.869640	0.428271	-0.245580
02837	9.435594	0.069618	-2.403586	0.001342	0.003871	-0.002825	0.217150	0.114900	0.969352	0.443373	-0.896311	0.006920	0.869636	0.428282	-0.245578
02838	9.435675	0.069700	-2.403267	-0.002019	0.002899	0.001250	0.217164	0.114891	0.969350	0.443351	-0.896321	0.006911	0.869643	0.428262	-0.245586
02839	9.435754	0.069627	-2.402957	-0.000030	0.003646	0.000827	0.217168	0.114883	0.969350	0.443348	-0.896323	0.006903	0.869644	0.428260	-0.245586
02840	9.451544	0.084286	-2.413955	0.001379	0.006661	0.001634	0.217148	0.114855	0.969358	0.443355	-0.896320	0.006884	0.869645	0.428275	-0.245555
02841	9.435980	0.069333	-2.402081	0.000859	0.001638	0.001211	0.217171	0.114852	0.969353	0.443358	-0.896318	0.006870	0.869638	0.428279	-0.245575
02842	9.460486	0.091620	-2.391769	-0.002085	0.003755	-0.002382	0.217160	0.114875	0.969353	0.443342	-0.896326	0.006901	0.869649	0.428256	-0.245575
02843	9.420474	0.054727	-2.389964	-0.001468	0.004276	0.000846	0.217159	0.114864	0.969355	0.443325	-0.896334	0.006896	0.869658	0.428242	-0.245569
02844	9.412803	0.080194	-2.367490	0.001343	0.003871	-0.002824	0.217145	0.114888	0.969355	0.443342	-0.896326	0.006920	0.869653	0.428253	-0.245567
02845	9.468543	0.066552	-2.412707	-0.001468	0.004276	0.000846	0.217143	0.114877	0.969356	0.443325	-0.896334	0.006915	0.869662	0.428239	-0.245561
02846	9.420803	0.054896	-2.388664	-0.000368	0.007031	0.000040	0.217113	0.114863	0.969365	0.443320	-0.896337	0.006918	0.869672	0.428237	-0.245528
02847	9.468790	0.066544	-2.411739	0.002539	0.002124	-0.000826	0.217123	0.114877	0.969361	0.443342	-0.896326	0.006919	0.869658	0.428256	-0.245543
02848	9.413200	0.080254	-2.365908	-0.002019	0.002899	0.001250	0.217135	0.114869	0.969359	0.443320	-0.896337	0.006913	0.869666	0.428236	-0.245550
02849	9.427949	0.062213	-2.420710	0.006518	0.003617	-0.001670	0.217128	0.114884	0.969359	0.443379	-0.896308	0.006913	0.869638	0.428292	-0.245551
02850	9.436800	0.069701	-2.398845	-0.003766	0.003268	-0.000346	0.217128	0.114887	0.969359	0.443347	-0.896323	0.006925	0.869654	0.428259	-0.245552
02851	9.436868	0.069867	-2.398572	0.000793	0.002494	-0.002421	0.217128	0.114913	0.969356	0.443357	-0.896318	0.006947	0.869649	0.428263	-0.245563
02852	9.413496	0.080514	-2.364719	-0.000030	0.003646	0.000827	0.217133	0.114905	0.969355	0.443353	-0.896320	0.006938	0.869650	0.428260	-0.245565
02853	9.453568	0.051989	-2.398496	-0.000338	0.003385	-0.000787	0.217132	0.114913	0.969355	0.443350	-0.896322	0.006946	0.869652	0.428255	-0.245567
02854	9.437106	0.070018	-2.397631	-0.000338	0.003385	-0.000787	0.217133	0.114922	0.969354	0.443345	-0.896324	0.006955	0.869654	0.428248	-0.245571
02855	9.420628	0.088035	-2.396832	-0.000888	0.002008	-0.000384	0.217146	0.114932	0.969350	0.443337	-0.896328	0.006961	0.869655	0.428237	-0.245587
02856	9.437250	0.070015	-2.397067	-0.001161	0.004537	0.002461	0.217150	0.114906	0.969352	0.443318	-0.896337	0.006941	0.869664	0.428224	-0.245579
02857	9.437330	0.069921	-2.396753	0.002540	0.002124	-0.000825	0.217160	0.114920	0.969348	0.443341	-0.896326	0.006943	0.869650	0.428244	-0.245594
02858	9.428621	0.062608	-2.418079	0.000793	0.002493	-0.002420	0.217157	0.114947	0.969345	0.443351	-0.896321	0.006967	0.869645	0.428248	-0.245604
02859	9.437465	0.070116	-2.396216	-0.001469	0.004276	0.000846	0.217155	0.114937	0.969347	0.443335	-0.896329	0.006962	0.869654	0.428234	-0.245598
02860	9.445351	0.044679	-2.417893	0.001959	0.004392	0.000405	0.217149	0.114930	0.969349	0.443350	-0.896322	0.006954	0.869648	0.428251	-0.245589
02861	9.462958	0.059513	-2.374468	0.001101	0.002754	-0.000806	0.217153	0.114940	0.969347	0.443360	-0.896317	0.006959	0.869642	0.428258	-0.245598
02862	9.428964	0.062753	-2.416739	-0.000645	0.003124	-0.002401	0.217149	0.114965	0.969345	0.443356	-0.896319	0.006985	0.869645	0.428248	-0.245605
02863	9.444743	0.077657	-2.427795	-0.000918	0.005653	0.000443	0.217134	0.114952	0.969350	0.443345	-0.896324	0.006983	0.869654	0.428240	-0.245586
02864	9.422274	0.055466	-2.382840	-0.001469	0.004276	0.000846	0.217128	0.114942	0.969352	0.443330	-0.896331	0.006980	0.869663	0.428228	-0.245576
02865	9.412752	0.080714	-2.414909	0.001959	0.004392	0.000406	0.217124	0.114935	0.969354	0.443345	-0.896324	0.006972	0.869657	0.428245	-0.245569
02866	9.445093	0.077486	-2.426438	0.002510	0.005769	0.000003	0.217106	0.114926	0.969359	0.443363	-0.896315	0.006967	0.869652	0.428266	-0.245550
02867	9.461743	0.059454	-2.426560	0.001409	0.003015	0.000809	0.217115	0.114921	0.969358	0.443372	-0.896311	0.006955	0.869645	0.428276	-0.245556
02868	9.413046	0.080449	-2.413772	-0.000581	0.002268	0.001230	0.217133	0.114917	0.969354	0.443362	-0.896316	0.006946	0.869646	0.428266	-0.245569
02869	9.438423	0.069836	-2.392447	0.001959	0.004392	0.000406	0.217128	0.114909	0.969356	0.443376	-0.896309	0.006937	0.869640	0.428283	-0.245562
02870	9.445420	0.077090	-2.425178	0.000858	0.001638	0.001212	0.217151	0.114908	0.969351	0.443379	-0.896308	0.006924	0.869632	0.428286	-0.245582
02871	9.429804	0.062272	-2.413474	-0.000337	0.003385	-0.000787	0.217150	0.114915	0.969350	0.443376	-0.896309	0.006933	0.869634	0.428281	-0.245584
02872	9.429900	0.062211	-2.413100	-0.001161	0.004537	0.002461	0.217154	0.114888	0.969353	0.443359	-0.896317	0.006910	0.869642	0.428271	-0.245575
02873	9.429980	0.062117	-2.412786	0.002540	0.002124	-0.000824	0.217164	0.114901	0.969349	0.443382	-0.896306	0.006912	0.869628	0.428291	-0.245590
02874	9.430085	0.062052	-2.412378	-0.002049	0.006544	0.002077	0.217149	0.114871	0.969356	0.443356	-0.896319	0.006898	0.869645	0.428272	-0.245564
02875	9.438923	0.069402	-2.390485	0.001989	0.000747	-0.000421	0.217173	0.114887	0.969349	0.443373	-0.896311	0.006897	0.869630	0.428285	-0.245592
02876	9.414553	0.047217	-2.400341	0.001652	0.004131	-0.001208	0.217162	0.114898	0.969350	0.443387	-0.896304	0.006908	0.869626	0.428297	-0.245587
02877	9.438219	0.102189	-2.400794	-0.001468	0.004276	0.000846	0.217160	0.114887	0.969352	0.443371	-0.896312	0.006904	0.869634	0.428283	-0.245581
02878	9.421691	0.054530	-2.432549	0.001960	0.004392	0.000407	0.217155	0.114880	0.969354	0.443385	-0.896305	0.006896	0.869628	0.428299	-0.245573
02879	9.454976	0.084187	-2.400482	0.000214	0.004762	-0.001189	0.217140	0.114886	0.969356	0.443388	-0.896303	0.006907	0.869631	0.428301	-0.245562
02880	9.439382	0.069495	-2.388670	-0.002326	0.002638	-0.000366	0.217147	0.114892	0.969354	0.443368	-0.896313	0.006915	0.869639	0.428279	-0.245571
02881	9.423757	0.054758	-2.376984	0.002540	0.002124	-0.000824	0.217156	0.114905	0.969350	0.443390	-0.896302	0.006917	0.869625	0.428298	-0.245586
02882	9.455182	0.084293	-2.399665	0.001409	0.003015	0.000809	0.217165	0.114898	0.969349	0.443402	-0.896296	0.006903	0.869617	0.428312	-0.245590
02883	9.439560	0.069476	-2.387967	-0.000888	0.002007	-0.000384	0.217178	0.114908	0.969345	0.443393	-0.896301	0.006909	0.869619	0.428301	-0.245606
02884	9.447428	0.044090	-2.409776	-0.000030	0.003645	0.000828	0.217181	0.114901	0.969345	0.443389	-0.896303	0.006901	0.869620	0.428298	-0.245606
02885	9.448447	0.076880	-2.365847	0.001102	0.002754	-0.000805	0.217186	0.114911	0.969343	0.443399	-0.896298	0.006906	0.869614	0.428305	-0.245615
02886	9.455436	0.084456	-2.398658	-0.001502	0.001486	-0.003613	0.217187	0.114951	0.969338	0.443393	-0.896300	0.006945	0.869616	0.428289	-0.245634
02887	9.447633	0.044452	-2.408965	0.000521	0.005022	0.000425	0.217178	0.114941	0.969341	0.443395	-0.896299	0.006939	0.869618	0.428294	-0.245620
02888	9.415499	0.047606	-2.396617	0.001102	0.002754	-0.000805	0.217180	0.114953	0.969339	0.443405	-0.896294	0.006946	0.869612	0.428302	-0.245628
02889	9.431236	0.062354	-2.407869	0.000858	0.001638	0.001212	0.217203	0.114950	0.969334	0.443409	-0.896293	0.006932	0.869604	0.428306	-0.245648
02890	9.440024	0.069821	-2.386123	0.000795	0.002493	-0.002419	0.217206	0.114976	0.969331	0.443417	-0.896288	0.006952	0.869599	0.428308	-0.245661
02891	9.414827	0.080496	-2.406812	0.000214	0.004762	-0.001189	0.217191	0.114982	0.969333	0.443420	-0.896287	0.006963	0.869602	0.428310	-0.245650
02892	9.438420	0.069926	-2.439946	-0.000030	0.003645	0.000828	0.217194	0.114974	0.969334	0.443416	-0.896289	0.006956	0.869603	0.428308	-0.245650
02893	9.424620	0.055141	-2.373553	-0.001469	0.004276	0.000846	0.217193	0.114963	0.969335	0.443400	-0.896297	0.006951	0.869611	0.428294	-0.245644
02894	9.439538	0.102689	-2.395583	-0.000337	0.003384	-0.000786	0.217191	0.114970	0.969335	0.443399	-0.896297	0.006959	0.869612	0.428290	-0.245645
02895	9.440480	0.069954	-2.384315	-0.000030	0.003645	0.000828	0.217195	0.114962	0.969335	0.443395	-0.896299	0.006951	0.869613	0.428289	-0.245645
02896	9.447512	0.077222	-2.417010	0.001409	0.003015	0.000810	0.217204	0.114956	0.969333	0.443404	-0.896295	0.006938	0.869606	0.428300	-0.245651
02897	9.447638	0.077266	-2.416518	-0.002112	0.007399	-0.001555	0.217165	0.114954	0.969343	0.443388	-0.896303	0.006959	0.869624	0.428284	-0.245615
02898	9.440822	0.069980	-2.382957	-0.001468	0.004276	0.000846	0.217164	0.114941	0.969344	0.443373	-0.896310	0.006951	0.869632	0.428272	-0.245608
02899	9.424339	0.087900	-2.382204	0.001990	0.000747	-0.000420	0.217188	0.114957	0.969337	0.443390	-0.896302	0.006950	0.869618	0.428285	-0.245636
02900	9.441787	0.037253	-2.371590	-0.000337	0.003384	-0.000786	0.217185	0.114966	0.969337	0.443387	-0.896303	0.006961	0.869620	0.428280	-0.245637
02901	9.424471	0.087939	-2.381679	-0.000030	0.003645	0.000828	0.217188	0.114958	0.969337	0.443383	-0.896305	0.006953	0.869621	0.428278	-0.245637
02902	9.422806	0.087808	-2.435833	0.000521	0.005022	0.000426	0.217049	0.114817	0.969385	0.443148	-0.896422	0.006953	0.869776	0.428072	-0.245449
02903	9.448176	0.077209	-2.414413	0.001409	0.003015	0.000810	0.217059	0.114812	0.969383	0.443156	-0.896417	0.006941	0.869769	0.428082	-0.245455
02904	9.432558	0.062328	-2.402684	-0.002020	0.002899	0.001249	0.217069	0.114805	0.969382	0.443135	-0.896428	0.006936	0.869777	0.428062	-0.245460
02905	9.441346	0.069730	-2.380890	0.002541	0.002124	-0.000822	0.217078	0.114818	0.969378	0.443157	-0.896417	0.006938	0.869763	0.428081	-0.245475
02906	9.424856	0.087790	-2.380161	0.000796	0.002493	-0.002419	0.217077	0.114844	0.969375	0.443168	-0.896412	0.006959	0.869758	0.428085	-0.245486
02907	9.416210	0.080443	-2.401399	-0.001468	0.004276	0.000846	0.217076	0.114833	0.969377	0.443151	-0.896420	0.006954	0.869767	0.428071	-0.245479
02908	9.458139	0.052027	-2.380407	-0.001224	0.005392	-0.001170	0.217056	0.114835	0.969381	0.443142	-0.896425	0.006968	0.869777	0.428061	-0.245462
02909	9.425130	0.088002	-2.379066	0.000551	0.001377	-0.000402	0.217073	0.114848	0.969376	0.443145	-0.896423	0.006971	0.869771	0.428061	-0.245484
02910	9.432995	0.062588	-2.400963	-0.000581	0.002268	0.001231	0.217091	0.114842	0.969372	0.443136	-0.896427	0.006960	0.869771	0.428053	-0.245497
02911	9.441813	0.069955	-2.379030	-0.000917	0.005653	0.000444	0.217075	0.114829	0.969377	0.443125	-0.896433	0.006958	0.869781	0.428045	-0.245477
02912	9.432345	0.095355	-2.411106	0.002786	0.003240	-0.002839	0.217066	0.114855	0.969376	0.443154	-0.896418	0.006978	0.869768	0.428068	-0.245481
02913	9.424569	0.055362	-2.421357	-0.003213	0.004645	-0.000750	0.217054	0.114857	0.969379	0.443126	-0.896432	0.006994	0.869786	0.428039	-0.245470
02914	9.432535	0.095624	-2.410350	0.003092	0.003501	-0.001224	0.217050	0.114869	0.969378	0.443153	-0.896419	0.006998	0.869773	0.428064	-0.245473
02915	9.458751	0.052208	-2.377970	-0.000856	0.004797	0.004076	0.217059	0.114827	0.969381	0.443135	-0.896428	0.006961	0.869780	0.428055	-0.245461
02916	9.433579	0.062743	-2.398661	-0.000949	0.002862	-0.004015	0.217050	0.114866	0.969379	0.443131	-0.896430	0.007002	0.869784	0.428042	-0.245471
02917	9.433645	0.062969	-2.398396	0.001102	0.002754	-0.000804	0.217055	0.114877	0.969376	0.443140	-0.896425	0.007007	0.869778	0.428049	-0.245480
02918	9.417173	0.080980	-2.397601	-0.000336	0.003384	-0.000786	0.217053	0.114884	0.969376	0.443138	-0.896426	0.007015	0.869780	0.428044	-0.245481
02919	9.435555	0.063117	-2.343146	0.000521	0.005022	0.000427	0.217043	0.114874	0.969379	0.443139	-0.896425	0.007010	0.869781	0.428049	-0.245468
02920	9.425238	0.055659	-2.418746	0.000766	0.006138	-0.001590	0.217013	0.114878	0.969386	0.443148	-0.896421	0.007025	0.869785	0.428057	-0.245442
02921	9.449744	0.077996	-2.408244	-0.004316	0.001891	0.000053	0.217028	0.114884	0.969381	0.443108	-0.896440	0.007035	0.869801	0.428014	-0.245459
02922	9.435842	0.063340	-2.341986	0.003092	0.003501	-0.001223	0.217024	0.114895	0.969381	0.443136	-0.896427	0.007039	0.869788	0.428040	-0.245460
02923	9.434210	0.063348	-2.396161	0.000215	0.004761	-0.001188	0.217009	0.114900	0.969384	0.443139	-0.896425	0.007050	0.869790	0.428042	-0.245449
02924	9.434302	0.063367	-2.395799	-0.002020	0.002898	0.001248	0.217021	0.114893	0.969382	0.443117	-0.896436	0.007044	0.869799	0.428021	-0.245456
02925	9.466632	0.060157	-2.407398	-0.001469	0.004275	0.000847	0.217019	0.114882	0.969384	0.443100	-0.896444	0.007040	0.869807	0.428007	-0.245449
02926	9.410950	0.073830	-2.361584	-0.000030	0.003645	0.000829	0.217019	0.114876	0.969384	0.443098	-0.896446	0.007035	0.869809	0.428005	-0.245447
02927	9.441567	0.070610	-2.427719	0.001654	0.004131	-0.001205	0.217009	0.114884	0.969386	0.443113	-0.896438	0.007043	0.869803	0.428019	-0.245442
02928	9.425988	0.055824	-2.415818	0.002511	0.005769	0.000008	0.216993	0.114877	0.969390	0.443130	-0.896430	0.007038	0.869799	0.428039	-0.245424
02929	9.434820	0.063297	-2.393762	-0.003213	0.004645	-0.000751	0.216981	0.114878	0.969393	0.443102	-0.896444	0.007053	0.869816	0.428009	-0.245414
02930	9.418338	0.081312	-2.393010	0.001990	0.000747	-0.000419	0.217004	0.114894	0.969386	0.443119	-0.896435	0.007052	0.869802	0.428023	-0.245442
02931	9.441972	0.070728	-2.426140	-0.000366	0.007029	0.000043	0.216975	0.114878	0.969394	0.443114	-0.896438	0.007052	0.869812	0.428022	-0.245409
02932	9.459478	0.085682	-2.382624	0.000246	0.001116	-0.002016	0.216988	0.114908	0.969388	0.443117	-0.896436	0.007073	0.869806	0.428018	-0.245434
02933	9.409876	0.073931	-2.413621	0.001714	0.003276	0.002427	0.217002	0.114888	0.969387	0.443125	-0.896432	0.007046	0.869799	0.428031	-0.245437
02934	9.428205	0.056040	-2.359250	-0.000641	0.003123	-0.002400	0.216994	0.114909	0.969386	0.443126	-0.896431	0.007069	0.869801	0.428026	-0.245439
02935	9.443974	0.070978	-2.370405	0.001103	0.002754	-0.000803	0.216998	0.114920	0.969384	0.443135	-0.896427	0.007074	0.869795	0.428033	-0.245448
02936	9.427489	0.088877	-2.369670	0.002847	0.002385	0.000795	0.217012	0.114919	0.969381	0.443157	-0.896416	0.007061	0.869780	0.428056	-0.245460
02937	9.435418	0.063504	-2.391399	-0.003213	0.004645	-0.000751	0.217000	0.114921	0.969384	0.443129	-0.896430	0.007076	0.869798	0.428026	-0.245450
02938	9.420634	0.081586	-2.336086	0.001990	0.000747	-0.000419	0.217019	0.114937	0.969377	0.443148	-0.896421	0.007077	0.869783	0.428041	-0.245474
02939	9.419840	0.048754	-2.379477	-0.001469	0.004275	0.000847	0.217017	0.114926	0.969379	0.443131	-0.896429	0.007073	0.869792	0.428027	-0.245468
02940	9.426099	0.088868	-2.423017	0.001654	0.004131	-0.001204	0.217006	0.114934	0.969381	0.443148	-0.896421	0.007081	0.869786	0.428042	-0.245461
02941	9.419188	0.081504	-2.389654	-0.000030	0.003645	0.000829	0.217009	0.114926	0.969381	0.443144	-0.896423	0.007073	0.869788	0.428040	-0.245461
02942	9.468110	0.060452	-2.401571	-0.000671	0.006768	-0.001571	0.216974	0.114927	0.969388	0.443140	-0.896424	0.007091	0.869798	0.428037	-0.245430
02943	9.420272	0.048837	-2.377764	0.001408	0.003015	0.000812	0.216983	0.114922	0.969387	0.443149	-0.896420	0.007079	0.869792	0.428047	-0.245436
02944	9.444746	0.070891	-2.367331	-0.001715	0.003159	0.002863	0.216996	0.114898	0.969387	0.443129	-0.896430	0.007057	0.869799	0.428032	-0.245437
02945	9.468413	0.060496	-2.400378	0.001842	0.006102	-0.006851	0.216944	0.114948	0.969393	0.443158	-0.896415	0.007119	0.869797	0.428049	-0.245413
02946	9.418900	0.114448	-2.398402	-0.000858	0.004797	0.004076	0.216955	0.114908	0.969395	0.443137	-0.896426	0.007082	0.869805	0.428038	-0.245404
02947	9.461584	0.053151	-2.366651	-0.000305	-0.000261	-0.001615	0.216982	0.114938	0.969385	0.443136	-0.896427	0.007099	0.869799	0.428029	-0.245442
02948	9.435564	0.096375	-2.398437	0.000827	0.005283	0.002043	0.216979	0.114912	0.969389	0.443136	-0.896427	0.007076	0.869800	0.428036	-0.245427
02949	9.436510	0.063552	-2.387085	0.003093	0.003500	-0.001221	0.216974	0.114923	0.969389	0.443163	-0.896413	0.007080	0.869786	0.428061	-0.245428
02950	9.436580	0.063677	-2.386803	0.000798	0.002493	-0.002417	0.216976	0.114949	0.969385	0.443171	-0.896409	0.007101	0.869782	0.428062	-0.245442
02951	9.411416	0.074255	-2.407601	-0.000030	0.003645	0.000830	0.216980	0.114941	0.969385	0.443167	-0.896411	0.007093	0.869783	0.428060	-0.245441
02952	9.443758	0.071047	-2.419169	-0.003459	0.003528	0.001265	0.216988	0.114929	0.969385	0.443132	-0.896428	0.007089	0.869799	0.428027	-0.245443
02953	9.413271	0.074284	-2.352301	0.003645	0.004877	-0.001622	0.216970	0.114938	0.969388	0.443165	-0.896412	0.007095	0.869787	0.428060	-0.245431
02954	9.460495	0.053255	-2.418907	0.000798	0.002493	-0.002417	0.216970	0.114966	0.969385	0.443174	-0.896407	0.007119	0.869782	0.428062	-0.245443
02955	9.404757	0.066912	-2.373185	-0.000859	0.004797	0.004076	0.216978	0.114923	0.969388	0.443156	-0.896417	0.007081	0.869789	0.428053	-0.245431
02956	9.460717	0.053060	-2.418045	0.000768	0.006138	-0.001587	0.216950	0.114926	0.969394	0.443163	-0.896413	0.007094	0.869793	0.428061	-0.245408
02957	9.437254	0.063831	-2.384135	-0.000640	0.003123	-0.002400	0.216944	0.114949	0.969393	0.443161	-0.896414	0.007119	0.869795	0.428053	-0.245413
02958	9.420806	0.081789	-2.383260	0.000827	0.005283	0.002044	0.216940	0.114923	0.969397	0.443161	-0.896414	0.007096	0.869796	0.428059	-0.245397
02959	9.437453	0.063684	-2.383347	0.001408	0.003015	0.000813	0.216949	0.114918	0.969395	0.443169	-0.896410	0.007085	0.869790	0.428069	-0.245403
02960	9.437533	0.063590	-2.383033	-0.000030	0.003645	0.000830	0.216954	0.114908	0.969395	0.443166	-0.896412	0.007075	0.869790	0.428068	-0.245403
02961	9.421885	0.048692	-2.371366	0.000857	0.001638	0.001214	0.216977	0.114905	0.969390	0.443169	-0.896410	0.007061	0.869783	0.428072	-0.245423
02962	9.429829	0.088719	-2.360348	-0.002050	0.006543	0.002077	0.216963	0.114874	0.969397	0.443143	-0.896423	0.007046	0.869800	0.428053	-0.245396
02963	9.461417	0.052813	-2.415308	0.001902	0.005246	-0.003219	0.216935	0.114896	0.969401	0.443164	-0.896412	0.007073	0.869796	0.428070	-0.245381
02964	9.437063	0.096264	-2.392537	0.000000	0.000000	0.000000	0.216936	0.114896	0.969401	0.443163	-0.896413	0.007072	0.869796	0.428068	-0.245382
02965	9.429287	0.056085	-2.402903	-0.000917	0.005652	0.000446	0.216921	0.114883	0.969406	0.443152	-0.896419	0.007070	0.869805	0.428061	-0.245362
02966	9.429395	0.056116	-2.402477	-0.000335	0.003384	-0.000785	0.216919	0.114892	0.969405	0.443148	-0.896420	0.007081	0.869808	0.428054	-0.245365
02967	9.445166	0.070961	-2.413667	0.000552	0.001377	-0.000401	0.216937	0.114905	0.969399	0.443152	-0.896418	0.007083	0.869801	0.428055	-0.245387
02968	9.438168	0.063643	-2.380516	-0.000887	0.002007	-0.000384	0.216951	0.114914	0.969395	0.443142	-0.896423	0.007089	0.869803	0.428042	-0.245403
02969	9.445264	0.070879	-2.413288	0.003152	0.002646	0.002412	0.216970	0.114897	0.969393	0.443163	-0.896413	0.007058	0.869788	0.428067	-0.245413
02970	9.438328	0.063455	-2.379889	-0.002660	0.006021	-0.001153	0.216947	0.114898	0.969398	0.443137	-0.896426	0.007077	0.869806	0.428041	-0.245392
02971	9.406197	0.066822	-2.367474	0.001903	0.005246	-0.003218	0.216918	0.114919	0.969402	0.443159	-0.896415	0.007103	0.869802	0.428058	-0.245376
02972	9.470830	0.060609	-2.390819	-0.000030	0.003645	0.000830	0.216924	0.114911	0.969402	0.443154	-0.896417	0.007095	0.869804	0.428055	-0.245378
02973	9.429970	0.056313	-2.400214	0.001104	0.002754	-0.000801	0.216928	0.114922	0.969399	0.443164	-0.896413	0.007100	0.869798	0.428062	-0.245386
02974	9.437093	0.063658	-2.432902	-0.000030	0.003645	0.000830	0.216933	0.114914	0.969399	0.443159	-0.896415	0.007092	0.869799	0.428060	-0.245387
02975	9.414394	0.041576	-2.388247	-0.001191	0.001746	-0.001999	0.216940	0.114939	0.969395	0.443151	-0.896419	0.007114	0.869801	0.428045	-0.245405
02976	9.454571	0.078660	-2.389201	0.001960	0.004391	0.000413	0.216937	0.114932	0.969396	0.443165	-0.896412	0.007105	0.869795	0.428062	-0.245398
02977	9.437306	0.063682	-2.432074	0.000856	0.001638	0.001214	0.216959	0.114929	0.969392	0.443168	-0.896410	0.007091	0.869788	0.428065	-0.245417
02978	9.446072	0.071210	-2.410111	-0.000973	0.006506	-0.003185	0.216921	0.114946	0.969398	0.443163	-0.896413	0.007126	0.869800	0.428056	-0.245391
02979	9.439150	0.063991	-2.376613	-0.001469	0.004275	0.000847	0.216920	0.114935	0.969400	0.443147	-0.896421	0.007121	0.869809	0.428041	-0.245384
02980	9.446286	0.071353	-2.409269	0.001104	0.002754	-0.000801	0.216922	0.114947	0.969398	0.443156	-0.896416	0.007128	0.869803	0.428048	-0.245392
02981	9.422757	0.082002	-2.375527	-0.000334	0.003384	-0.000785	0.216921	0.114955	0.969397	0.443153	-0.896418	0.007136	0.869805	0.428043	-0.245394
02982	9.455945	0.046134	-2.376093	-0.001469	0.004275	0.000847	0.216917	0.114944	0.969399	0.443138	-0.896425	0.007133	0.869814	0.428030	-0.245386
02983	9.398559	0.059734	-2.384967	-0.000030	0.003645	0.000830	0.216921	0.114936	0.969399	0.443134	-0.896427	0.007125	0.869815	0.428028	-0.245386
02984	9.446632	0.071378	-2.407910	-0.000334	0.003384	-0.000785	0.216918	0.114943	0.969399	0.443133	-0.896427	0.007133	0.869816	0.428026	-0.245386
02985	9.414451	0.074451	-2.395699	0.000274	0.003906	0.002446	0.216926	0.114919	0.969400	0.443129	-0.896430	0.007109	0.869816	0.428027	-0.245383
02986	9.447659	0.038339	-2.396189	0.000826	0.005282	0.002045	0.216921	0.114895	0.969404	0.443128	-0.896430	0.007088	0.869818	0.428033	-0.245368
02987	9.431219	0.056314	-2.395302	-0.002077	0.003753	-0.002384	0.216910	0.114915	0.969404	0.443113	-0.896437	0.007117	0.869828	0.428012	-0.245367
02988	9.423419	0.081768	-2.372905	0.003399	0.003761	0.000398	0.216912	0.114911	0.969404	0.443139	-0.896425	0.007104	0.869814	0.428039	-0.245367
02989	9.462840	0.085958	-2.417416	-0.000334	0.003384	-0.000785	0.216911	0.114919	0.969404	0.443136	-0.896426	0.007113	0.869816	0.428034	-0.245369
02990	9.440125	0.063872	-2.372739	0.001104	0.002754	-0.000801	0.216915	0.114932	0.969401	0.443143	-0.896422	0.007121	0.869811	0.428039	-0.245379
02991	9.439377	0.096750	-2.383372	0.001352	0.003869	-0.002816	0.216901	0.114956	0.969402	0.443159	-0.896414	0.007145	0.869807	0.428050	-0.245377
02992	9.438678	0.063987	-2.426736	0.000856	0.001638	0.001215	0.216921	0.114952	0.969397	0.443165	-0.896412	0.007131	0.869799	0.428056	-0.245393
02993	9.415127	0.074621	-2.393036	0.001353	0.003869	-0.002816	0.216907	0.114976	0.969398	0.443181	-0.896404	0.007155	0.869794	0.428067	-0.245391
02994	9.456125	0.079051	-2.383032	-0.000886	0.002007	-0.000384	0.216919	0.114984	0.969394	0.443173	-0.896407	0.007159	0.869795	0.428057	-0.245406
02995	9.423910	0.082174	-2.370940	0.001408	0.003015	0.000815	0.216929	0.114979	0.969392	0.443182	-0.896403	0.007148	0.869788	0.428067	-0.245412
02996	9.438957	0.064060	-2.425649	-0.000030	0.003645	0.000831	0.216932	0.114968	0.969393	0.443181	-0.896404	0.007137	0.869788	0.428068	-0.245410
02997	9.415432	0.074585	-2.391837	-0.001469	0.004275	0.000847	0.216930	0.114958	0.969395	0.443164	-0.896412	0.007132	0.869797	0.428054	-0.245404
02998	9.440741	0.064107	-2.370280	0.000218	0.004760	-0.001185	0.216915	0.114964	0.969397	0.443166	-0.896411	0.007144	0.869800	0.428054	-0.245393
02999	9.432186	0.056767	-2.391481	-0.000334	0.003384	-0.000785	0.216914	0.114972	0.969397	0.443163	-0.896413	0.007153	0.869802	0.428049	-0.245396
03000	9.447997	0.071562	-2.402546	-0.000030	0.003645	0.000831	0.216917	0.114964	0.969397	0.443159	-0.896414	0.007145	0.869803	0.428048	-0.245395
03001	9.440983	0.064097	-2.369314	0.000856	0.001638	0.001215	0.216940	0.114961	0.969392	0.443162	-0.896413	0.007131	0.869796	0.428051	-0.245414
03002	9.424517	0.081867	-2.368537	0.000826	0.005282	0.002046	0.216932	0.114936	0.969397	0.443164	-0.896412	0.007111	0.869796	0.428059	-0.245397
03003	9.415941	0.074322	-2.389841	0.001991	0.000747	-0.000416	0.216956	0.114952	0.969390	0.443180	-0.896404	0.007110	0.869782	0.428072	-0.245425
03004	9.456928	0.078734	-2.379853	-0.000085	0.004499	-0.002800	0.216935	0.114973	0.969392	0.443184	-0.896402	0.007138	0.869785	0.428071	-0.245415
03005	9.423186	0.081976	-2.422171	0.001657	0.004130	-0.001200	0.216926	0.114981	0.969393	0.443199	-0.896395	0.007146	0.869780	0.428084	-0.245410
03006	9.441374	0.064158	-2.367757	0.002543	0.002123	-0.000816	0.216937	0.114994	0.969389	0.443221	-0.896384	0.007147	0.869767	0.428103	-0.245426
03007	9.432813	0.056703	-2.389008	0.000522	0.005021	0.000431	0.216927	0.114984	0.969392	0.443222	-0.896383	0.007141	0.869768	0.428107	-0.245413
03008	9.450198	0.071671	-2.345448	-0.000637	0.003122	-0.002400	0.216919	0.115008	0.969391	0.443221	-0.896384	0.007167	0.869771	0.428099	-0.245417
03009	9.418025	0.075007	-2.333172	0.000771	0.006137	-0.001585	0.216891	0.115011	0.969397	0.443229	-0.896380	0.007181	0.869774	0.428107	-0.245393
03010	9.440231	0.064383	-2.420677	-0.001469	0.004275	0.000846	0.216886	0.115000	0.969399	0.443214	-0.896387	0.007177	0.869783	0.428095	-0.245384
03011	9.433246	0.056982	-2.387292	-0.001469	0.004275	0.000847	0.216885	0.114989	0.969401	0.443197	-0.896395	0.007173	0.869791	0.428080	-0.245377
03012	9.433337	0.057001	-2.386930	-0.000334	0.003383	-0.000784	0.216886	0.114998	0.969400	0.443193	-0.896398	0.007181	0.869794	0.428073	-0.245382
03013	9.448322	0.104594	-2.408978	0.001105	0.002753	-0.000800	0.216890	0.115008	0.969398	0.443202	-0.896393	0.007187	0.869788	0.428080	-0.245390
03014	9.449231	0.071937	-2.397677	0.000219	0.004760	-0.001184	0.216875	0.115014	0.969400	0.443205	-0.896392	0.007198	0.869790	0.428082	-0.245380
03015	9.417043	0.075025	-2.385471	-0.001718	0.003159	0.002862	0.216892	0.114990	0.969399	0.443182	-0.896403	0.007174	0.869798	0.428064	-0.245384
03016	9.440768	0.064366	-2.418583	-0.000334	0.003383	-0.000784	0.216890	0.114999	0.969399	0.443178	-0.896405	0.007184	0.869800	0.428058	-0.245387
03017	9.449519	0.071909	-2.396542	0.000771	0.006137	-0.001584	0.216862	0.115002	0.969405	0.443186	-0.896401	0.007198	0.869803	0.428066	-0.245362
03018	9.433875	0.057370	-2.384795	-0.001492	0.001484	-0.003615	0.216864	0.115043	0.969399	0.443178	-0.896404	0.007237	0.869806	0.428047	-0.245383
03019	9.433117	0.090078	-2.395505	0.002014	0.003537	0.004047	0.216883	0.115007	0.969399	0.443185	-0.896401	0.007193	0.869798	0.428063	-0.245384
03020	9.425376	0.049737	-2.405859	-0.002324	0.002637	-0.000369	0.216891	0.115013	0.969397	0.443165	-0.896411	0.007201	0.869807	0.428041	-0.245393
03021	9.434090	0.057255	-2.383947	0.001657	0.004130	-0.001199	0.216882	0.115021	0.969398	0.443180	-0.896404	0.007208	0.869801	0.428054	-0.245388
03022	9.441268	0.064598	-2.416624	-0.000583	0.002268	0.001231	0.216902	0.115014	0.969394	0.443169	-0.896409	0.007196	0.869802	0.428044	-0.245404
03023	9.432730	0.057159	-2.437850	0.002210	0.005507	-0.001599	0.216879	0.115020	0.969399	0.443190	-0.896399	0.007206	0.869797	0.428065	-0.245386
03024	9.450099	0.072122	-2.394245	-0.000333	0.003383	-0.000784	0.216878	0.115029	0.969398	0.443186	-0.896401	0.007216	0.869799	0.428059	-0.245388
03025	9.409263	0.067916	-2.403699	-0.000333	0.003383	-0.000784	0.216876	0.115037	0.969397	0.443183	-0.896402	0.007224	0.869801	0.428054	-0.245391
03026	9.434508	0.057481	-2.382287	-0.000886	0.002007	-0.000384	0.216892	0.115049	0.969392	0.443170	-0.896408	0.007232	0.869803	0.428037	-0.245410
03027	9.425946	0.049858	-2.403619	0.002014	0.003537	0.004047	0.216911	0.115013	0.969392	0.443177	-0.896405	0.007188	0.869795	0.428054	-0.245411
03028	9.434679	0.057229	-2.381617	-0.001522	0.005129	-0.002784	0.216884	0.115031	0.969396	0.443169	-0.896409	0.007220	0.869806	0.428040	-0.245395
03029	9.418227	0.075361	-2.380781	-0.000333	0.003383	-0.000784	0.216883	0.115039	0.969396	0.443166	-0.896411	0.007228	0.869808	0.428035	-0.245397
03030	9.474264	0.061630	-2.425673	-0.000030	0.003644	0.000831	0.216887	0.115029	0.969396	0.443163	-0.896412	0.007218	0.869809	0.428034	-0.245397
03031	9.434149	0.090171	-2.391435	0.000219	0.004760	-0.001184	0.216872	0.115034	0.969399	0.443165	-0.896411	0.007229	0.869811	0.428036	-0.245386
03032	9.450777	0.072391	-2.391559	-0.001189	0.001746	-0.002000	0.216881	0.115059	0.969394	0.443157	-0.896415	0.007250	0.869813	0.428021	-0.245404
03033	9.442214	0.065105	-2.412912	-0.000333	0.003383	-0.000784	0.216880	0.115067	0.969393	0.443154	-0.896416	0.007259	0.869815	0.428016	-0.245407
03034	9.435170	0.057657	-2.379658	-0.000280	0.002529	0.002847	0.216904	0.115046	0.969390	0.443141	-0.896423	0.007233	0.869815	0.428008	-0.245419
03035	9.435270	0.057495	-2.379268	0.002513	0.005768	0.000017	0.216885	0.115037	0.969395	0.443161	-0.896413	0.007226	0.869810	0.428031	-0.245398
03036	9.458245	0.079673	-2.423158	-0.001771	0.004013	-0.000769	0.216879	0.115040	0.969396	0.443146	-0.896420	0.007236	0.869819	0.428015	-0.245395
03037	9.426873	0.050116	-2.399977	0.000522	0.005021	0.000432	0.216869	0.115030	0.969400	0.443148	-0.896419	0.007231	0.869821	0.428019	-0.245381
03038	9.452149	0.039546	-2.378399	-0.000030	0.003644	0.000832	0.216872	0.115022	0.969400	0.443145	-0.896421	0.007223	0.869821	0.428018	-0.245380
03039	9.434882	0.090140	-2.388541	0.001961	0.004391	0.000417	0.216867	0.115014	0.969402	0.443159	-0.896414	0.007214	0.869815	0.428035	-0.245373
03040	9.410619	0.067828	-2.398386	-0.000030	0.003644	0.000832	0.216875	0.115005	0.969401	0.443153	-0.896417	0.007204	0.869816	0.428031	-0.245375
03041	9.451582	0.072094	-2.388386	-0.001438	0.000630	0.000015	0.216901	0.115018	0.969394	0.443139	-0.896424	0.007208	0.869817	0.428013	-0.245404
03042	9.426510	0.082693	-2.409175	0.001325	0.007513	-0.001982	0.216861	0.115019	0.969403	0.443151	-0.896418	0.007224	0.869821	0.428025	-0.245369
03043	9.410067	0.100666	-2.408323	-0.002574	0.001521	0.001645	0.216887	0.115013	0.969398	0.443123	-0.896432	0.007214	0.869829	0.427998	-0.245389
03044	9.443232	0.064756	-2.408936	0.003097	0.003500	-0.001213	0.216882	0.115025	0.969397	0.443150	-0.896418	0.007220	0.869816	0.428023	-0.245391
03045	9.451935	0.072270	-2.386982	-0.001771	0.004013	-0.000769	0.216876	0.115030	0.969398	0.443134	-0.896426	0.007232	0.869826	0.428005	-0.245387
03046	9.435475	0.090230	-2.386197	-0.000030	0.003644	0.000832	0.216881	0.115020	0.969398	0.443131	-0.896428	0.007222	0.869826	0.428004	-0.245387
03047	9.443491	0.064838	-2.407918	0.001106	0.002753	-0.000798	0.216885	0.115031	0.969396	0.443140	-0.896423	0.007227	0.869821	0.428011	-0.245395
03048	9.435644	0.090214	-2.385529	0.000522	0.005021	0.000433	0.216873	0.115019	0.969400	0.443143	-0.896422	0.007221	0.869822	0.428017	-0.245380
03049	9.419329	0.042619	-2.417386	-0.000333	0.003383	-0.000784	0.216872	0.115027	0.969399	0.443140	-0.896423	0.007229	0.869824	0.428012	-0.245382
03050	9.460269	0.046954	-2.407451	-0.001991	-0.000747	0.000414	0.216911	0.115042	0.969389	0.443121	-0.896433	0.007231	0.869824	0.427988	-0.245424
03051	9.418636	0.075482	-2.427891	0.001326	0.007513	-0.001981	0.216869	0.115043	0.969398	0.443135	-0.896426	0.007247	0.869827	0.428002	-0.245386
03052	9.435299	0.057550	-2.427880	0.000855	0.001638	0.001216	0.216893	0.115041	0.969393	0.443137	-0.896425	0.007233	0.869820	0.428005	-0.245407
03053	9.452592	0.072233	-2.384381	0.002263	0.004652	0.002034	0.216893	0.115018	0.969396	0.443150	-0.896418	0.007208	0.869813	0.428025	-0.245397
03054	9.444081	0.064714	-2.405604	-0.000333	0.003383	-0.000784	0.216892	0.115024	0.969395	0.443149	-0.896419	0.007215	0.869814	0.428021	-0.245399
03055	9.436220	0.090095	-2.383252	-0.000030	0.003644	0.000832	0.216896	0.115016	0.969396	0.443145	-0.896421	0.007207	0.869816	0.428019	-0.245398
03056	9.452889	0.072180	-2.383207	0.000773	0.006136	-0.001582	0.216867	0.115020	0.969402	0.443153	-0.896417	0.007221	0.869819	0.428027	-0.245374
03057	9.444397	0.064849	-2.404361	-0.000332	0.003383	-0.000783	0.216866	0.115027	0.969401	0.443150	-0.896418	0.007230	0.869820	0.428022	-0.245377
03058	9.428732	0.049881	-2.392669	0.002012	0.003537	0.004049	0.216888	0.114990	0.969400	0.443154	-0.896417	0.007184	0.869813	0.428036	-0.245380
03059	9.461775	0.079471	-2.360483	-0.002073	0.003752	-0.002385	0.216876	0.115011	0.969400	0.443140	-0.896424	0.007212	0.869823	0.428016	-0.245379
03060	9.412315	0.067803	-2.391722	0.000302	0.000261	0.001616	0.216912	0.115011	0.969392	0.443137	-0.896425	0.007197	0.869815	0.428012	-0.245411
03061	9.451810	0.071971	-2.436296	-0.000332	0.003383	-0.000783	0.216911	0.115019	0.969392	0.443134	-0.896426	0.007206	0.869817	0.428007	-0.245414
03062	9.428999	0.049921	-2.391615	-0.001771	0.004013	-0.000769	0.216904	0.115026	0.969392	0.443117	-0.896435	0.007220	0.869827	0.427988	-0.245410
03063	9.429079	0.050002	-2.391296	0.001106	0.002753	-0.000798	0.216908	0.115036	0.969390	0.443127	-0.896430	0.007225	0.869822	0.427995	-0.245419
03064	9.436972	0.090327	-2.380265	0.001910	0.005245	-0.003211	0.216881	0.115058	0.969394	0.443148	-0.896419	0.007252	0.869818	0.428012	-0.245404
03065	9.419871	0.075546	-2.423091	-0.002022	0.002897	0.001246	0.216893	0.115050	0.969392	0.443126	-0.896430	0.007245	0.869826	0.427991	-0.245411
03066	9.445094	0.064953	-2.401618	0.001408	0.003014	0.000818	0.216901	0.115044	0.969391	0.443135	-0.896426	0.007234	0.869819	0.428002	-0.245416
03067	9.438012	0.057486	-2.368368	0.001408	0.003014	0.000818	0.216910	0.115039	0.969389	0.443144	-0.896421	0.007222	0.869812	0.428012	-0.245422
03068	9.412135	0.100789	-2.400225	-0.000634	0.003122	-0.002399	0.216905	0.115062	0.969388	0.443141	-0.896422	0.007247	0.869815	0.428004	-0.245428
03069	9.445321	0.064989	-2.400725	-0.000030	0.003644	0.000832	0.216909	0.115054	0.969388	0.443137	-0.896424	0.007239	0.869816	0.428002	-0.245427
03070	9.429652	0.050198	-2.389034	-0.000332	0.003383	-0.000783	0.216905	0.115064	0.969388	0.443135	-0.896426	0.007250	0.869818	0.427997	-0.245428
03071	9.412384	0.100875	-2.399245	-0.000030	0.003644	0.000833	0.216909	0.115056	0.969388	0.443131	-0.896428	0.007242	0.869819	0.427995	-0.245428
03072	9.461352	0.079817	-2.410991	-0.001217	0.005389	-0.001168	0.216890	0.115057	0.969392	0.443121	-0.896432	0.007254	0.869829	0.427985	-0.245411
03073	9.413395	0.068282	-2.387455	-0.000332	0.003383	-0.000783	0.216889	0.115064	0.969391	0.443118	-0.896434	0.007263	0.869831	0.427980	-0.245413
03074	9.445794	0.065153	-2.398857	-0.001469	0.004274	0.000847	0.216889	0.115053	0.969393	0.443101	-0.896442	0.007257	0.869840	0.427965	-0.245409
03075	9.413621	0.068280	-2.386562	-0.000362	0.007027	0.000050	0.216860	0.115037	0.969401	0.443096	-0.896445	0.007257	0.869849	0.427964	-0.245376
03076	9.446020	0.065210	-2.397968	0.001690	0.000486	-0.002029	0.216877	0.115069	0.969393	0.443113	-0.896436	0.007274	0.869836	0.427974	-0.245405
03077	9.445268	0.098061	-2.408736	-0.000332	0.003383	-0.000783	0.216876	0.115077	0.969393	0.443110	-0.896438	0.007282	0.869838	0.427969	-0.245407
03078	9.430389	0.050615	-2.386112	-0.000332	0.003383	-0.000783	0.216876	0.115085	0.969392	0.443106	-0.896440	0.007291	0.869840	0.427962	-0.245411
03079	9.446234	0.065507	-2.397116	-0.001770	0.004013	-0.000769	0.216870	0.115090	0.969393	0.443090	-0.896447	0.007303	0.869850	0.427944	-0.245407
03080	9.422605	0.076029	-2.363376	0.000271	0.003905	0.002449	0.216879	0.115065	0.969393	0.443085	-0.896450	0.007277	0.869850	0.427946	-0.245405
03081	9.446417	0.065368	-2.396397	-0.000332	0.003383	-0.000783	0.216878	0.115073	0.969393	0.443082	-0.896451	0.007286	0.869852	0.427941	-0.245407
03082	9.446502	0.065546	-2.396060	-0.002072	0.003752	-0.002385	0.216865	0.115095	0.969393	0.443067	-0.896458	0.007316	0.869863	0.427920	-0.245405
03083	9.430048	0.083677	-2.395255	0.000221	0.004759	-0.001181	0.216850	0.115100	0.969396	0.443070	-0.896457	0.007327	0.869865	0.427921	-0.245394
03084	9.462462	0.080546	-2.406610	-0.000030	0.003644	0.000833	0.216851	0.115093	0.969396	0.443068	-0.896458	0.007320	0.869866	0.427921	-0.245392
03085	9.405899	0.061302	-2.404767	0.000271	0.003905	0.002449	0.216860	0.115069	0.969397	0.443063	-0.896461	0.007296	0.869866	0.427922	-0.245389
03086	9.446893	0.065452	-2.394517	-0.001469	0.004274	0.000847	0.216860	0.115059	0.969398	0.443045	-0.896470	0.007292	0.869875	0.427906	-0.245385
03087	9.414698	0.068565	-2.382301	-0.000915	0.005650	0.000449	0.216844	0.115046	0.969403	0.443034	-0.896475	0.007290	0.869885	0.427898	-0.245365
03088	9.462894	0.080337	-2.404914	-0.000079	0.004498	-0.002797	0.216825	0.115069	0.969405	0.443036	-0.896474	0.007319	0.869888	0.427895	-0.245358
03089	9.438648	0.058280	-2.414809	-0.000332	0.003383	-0.000783	0.216824	0.115076	0.969404	0.443033	-0.896475	0.007327	0.869890	0.427890	-0.245360
