// General information: 
//  MT Manager version: 2019.2.0 
//  XDA version: 2019.2.0 build 3853 rev 94535 built on 2019-09-09
// Device information: 
//  DeviceId: 00B44109
//  ProductCode: MTW2-3A7G6
//  Firmware Version: 4.3.5
//  Hardware Version: 1.1.0
// Device settings: 
//  Filter Profile: human(46.1)
//  Option Flags: Orientation Smoother Disabled, AHS Disabled, ICC Disabled
// Coordinate system: ENU
PacketCounter	Acc_X	Acc_Y	Acc_Z	Gyr_X	Gyr_Y	Gyr_Z	Mat[1][1]	Mat[2][1]	Mat[3][1]	Mat[1][2]	Mat[2][2]	Mat[3][2]	Mat[1][3]	Mat[2][3]	Mat[3][3]
02267	9.514056	-0.072216	-2.413350	0.001020	0.003088	0.001034	0.245159	0.007647	0.969453	0.063358	-0.997958	-0.008150	0.967410	0.063421	-0.245142
02268	9.522858	-0.105312	-2.410263	-0.000454	0.001063	-0.004922	0.245165	0.007675	0.969451	0.063363	-0.997957	-0.008123	0.967408	0.063419	-0.245151
02269	9.505405	-0.038431	-2.415858	0.000469	0.002813	-0.002074	0.245158	0.007674	0.969453	0.063370	-0.997957	-0.008125	0.967410	0.063426	-0.245143
02270	9.502969	-0.091719	-2.404859	0.001938	0.002380	-0.002238	0.245155	0.007675	0.969453	0.063391	-0.997956	-0.008130	0.967409	0.063448	-0.245141
02271	9.523043	-0.104616	-2.409561	-0.001000	0.003246	-0.001910	0.245144	0.007672	0.969456	0.063383	-0.997956	-0.008130	0.967413	0.063440	-0.245129
02272	9.514365	-0.071147	-2.412164	0.000469	0.002813	-0.002074	0.245135	0.007671	0.969459	0.063390	-0.997956	-0.008133	0.967414	0.063448	-0.245120
02273	9.523170	-0.104242	-2.409075	0.000097	0.001338	-0.001814	0.245142	0.007668	0.969457	0.063392	-0.997956	-0.008136	0.967412	0.063451	-0.245127
02274	9.522754	-0.066655	-2.389336	-0.000275	-0.000137	-0.001554	0.245163	0.007663	0.969452	0.063391	-0.997956	-0.008142	0.967407	0.063451	-0.245147
02275	9.523243	-0.103814	-2.408807	-0.000903	0.004584	-0.003724	0.245137	0.007678	0.969458	0.063388	-0.997956	-0.008125	0.967414	0.063444	-0.245122
02276	9.523304	-0.103538	-2.408576	-0.001744	0.000295	-0.001390	0.245154	0.007671	0.969454	0.063371	-0.997957	-0.008128	0.967411	0.063428	-0.245139
02277	9.562901	-0.092026	-2.398760	-0.000178	0.001201	-0.003368	0.245161	0.007684	0.969452	0.063375	-0.997957	-0.008116	0.967409	0.063428	-0.245147
02278	9.503364	-0.089963	-2.403366	0.001938	0.002381	-0.002238	0.245157	0.007685	0.969453	0.063397	-0.997955	-0.008121	0.967408	0.063451	-0.245143
02279	9.546372	-0.099828	-2.443494	0.000194	0.002676	-0.003628	0.245150	0.007700	0.969455	0.063404	-0.997955	-0.008107	0.967410	0.063455	-0.245137
02280	9.523013	-0.065039	-2.388346	-0.002391	-0.001317	-0.002684	0.245183	0.007707	0.969446	0.063385	-0.997956	-0.008097	0.967403	0.063433	-0.245170
02281	9.495132	-0.093449	-2.425623	0.000647	0.001613	0.001294	0.245189	0.007673	0.969445	0.063384	-0.997956	-0.008132	0.967401	0.063442	-0.245174
02282	9.534736	-0.082099	-2.415761	0.001291	0.000768	-0.003532	0.245199	0.007688	0.969442	0.063402	-0.997955	-0.008122	0.967397	0.063456	-0.245185
02283	9.514771	-0.068620	-2.410636	-0.000081	0.002539	-0.005182	0.245192	0.007718	0.969444	0.063411	-0.997955	-0.008093	0.967399	0.063458	-0.245180
02284	9.534824	-0.081374	-2.415438	0.001566	0.000905	-0.001978	0.245205	0.007717	0.969441	0.063427	-0.997954	-0.008098	0.967394	0.063475	-0.245193
02285	9.515291	-0.105639	-2.430039	0.000372	0.001475	-0.000260	0.245212	0.007699	0.969439	0.063428	-0.997953	-0.008118	0.967392	0.063480	-0.245198
02286	9.506584	-0.072180	-2.432715	-0.001275	0.003108	-0.003464	0.245200	0.007712	0.969442	0.063421	-0.997954	-0.008102	0.967396	0.063469	-0.245187
02287	9.534968	-0.080914	-2.414887	0.000372	0.001475	-0.000260	0.245206	0.007694	0.969440	0.063422	-0.997954	-0.008122	0.967394	0.063475	-0.245192
02288	9.503776	-0.087934	-2.401809	0.002310	0.003856	-0.002498	0.245188	0.007696	0.969445	0.063447	-0.997952	-0.008125	0.967397	0.063501	-0.245174
02289	9.507246	-0.109047	-2.451593	-0.001275	0.003108	-0.003464	0.245177	0.007709	0.969448	0.063440	-0.997953	-0.008109	0.967401	0.063490	-0.245164
02290	9.555193	-0.093420	-2.419025	-0.001097	0.001908	-0.000096	0.245180	0.007689	0.969447	0.063424	-0.997954	-0.008125	0.967401	0.063478	-0.245166
02291	9.515249	-0.067065	-2.408790	-0.000903	0.004583	-0.003723	0.245155	0.007703	0.969453	0.063421	-0.997954	-0.008108	0.967407	0.063472	-0.245142
02292	9.527018	-0.084030	-2.436067	0.001566	0.000906	-0.001978	0.245166	0.007702	0.969451	0.063438	-0.997953	-0.008114	0.967403	0.063489	-0.245153
02293	9.524123	-0.099813	-2.405493	-0.003116	0.002065	-0.003040	0.245165	0.007712	0.969451	0.063412	-0.997955	-0.008098	0.967405	0.063460	-0.245153
02294	9.518336	-0.050225	-2.438639	-0.001372	0.001770	-0.001650	0.245167	0.007707	0.969450	0.063398	-0.997955	-0.008099	0.967406	0.063446	-0.245155
02295	9.527585	-0.120744	-2.455352	-0.000275	-0.000137	-0.001554	0.245189	0.007703	0.969445	0.063395	-0.997956	-0.008104	0.967400	0.063445	-0.245176
02296	9.504236	-0.086104	-2.400057	-0.000629	0.004721	-0.002169	0.245162	0.007702	0.969451	0.063391	-0.997956	-0.008103	0.967407	0.063440	-0.245149
02297	9.524325	-0.098979	-2.404730	0.000097	0.001338	-0.001814	0.245169	0.007699	0.969450	0.063393	-0.997956	-0.008106	0.967406	0.063443	-0.245156
02298	9.504348	-0.085651	-2.399628	-0.001647	0.001633	-0.003204	0.245172	0.007710	0.969449	0.063380	-0.997957	-0.008092	0.967406	0.063428	-0.245160
02299	9.516117	-0.102282	-2.426943	-0.003569	0.003128	-0.007961	0.245158	0.007768	0.969452	0.063362	-0.997958	-0.008027	0.967410	0.063394	-0.245150
02300	9.507399	-0.068671	-2.429631	0.002116	0.001181	0.001130	0.245168	0.007735	0.969450	0.063378	-0.997957	-0.008065	0.967407	0.063419	-0.245157
02301	9.536244	-0.114984	-2.431487	-0.001000	0.003245	-0.001909	0.245156	0.007732	0.969453	0.063370	-0.997958	-0.008065	0.967410	0.063411	-0.245146
02302	9.515834	-0.064297	-2.406554	0.000469	0.002813	-0.002073	0.245149	0.007731	0.969454	0.063379	-0.997957	-0.008069	0.967411	0.063421	-0.245139
02303	9.527596	-0.081265	-2.433901	-0.000178	0.001201	-0.003368	0.245157	0.007744	0.969453	0.063382	-0.997957	-0.008057	0.967409	0.063421	-0.245147
02304	9.555925	-0.089847	-2.416268	-0.003860	-0.000886	-0.002520	0.245186	0.007749	0.969445	0.063348	-0.997959	-0.008045	0.967404	0.063385	-0.245176
02305	9.504656	-0.083662	-2.398478	0.000097	0.001338	-0.001814	0.245192	0.007746	0.969443	0.063350	-0.997959	-0.008048	0.967402	0.063388	-0.245183
02306	9.488086	-0.091868	-2.443482	-0.001098	0.001907	-0.000096	0.245196	0.007726	0.969443	0.063336	-0.997960	-0.008066	0.967402	0.063378	-0.245185
02307	9.536034	-0.076219	-2.410825	-0.000903	0.004583	-0.003723	0.245170	0.007741	0.969449	0.063333	-0.997960	-0.008049	0.967409	0.063371	-0.245160
02308	9.519483	-0.084262	-2.455773	-0.000275	-0.000137	-0.001554	0.245193	0.007736	0.969444	0.063333	-0.997960	-0.008055	0.967403	0.063373	-0.245182
02309	9.524884	-0.095984	-2.402636	0.000469	0.002813	-0.002073	0.245185	0.007735	0.969445	0.063339	-0.997960	-0.008057	0.967405	0.063380	-0.245175
02310	9.544465	-0.071447	-2.387759	-0.001744	0.000295	-0.001390	0.245202	0.007728	0.969441	0.063324	-0.997960	-0.008061	0.967402	0.063366	-0.245191
02311	9.485400	-0.106916	-2.412114	0.000469	0.002813	-0.002073	0.245195	0.007727	0.969443	0.063330	-0.997960	-0.008063	0.967403	0.063372	-0.245184
02312	9.525032	-0.095515	-2.402066	0.000743	0.002951	-0.000519	0.245188	0.007710	0.969445	0.063336	-0.997960	-0.008082	0.967404	0.063383	-0.245176
02313	9.553407	-0.104322	-2.384237	0.000097	0.001338	-0.001814	0.245195	0.007707	0.969443	0.063338	-0.997959	-0.008086	0.967403	0.063386	-0.245183
02314	9.516343	-0.062045	-2.404600	-0.001098	0.001907	-0.000096	0.245197	0.007687	0.969443	0.063325	-0.997960	-0.008103	0.967403	0.063376	-0.245184
02315	9.548118	-0.092156	-2.436965	0.001292	0.000769	-0.003531	0.245209	0.007702	0.969440	0.063342	-0.997959	-0.008093	0.967399	0.063391	-0.245196
02316	9.534002	-0.128053	-2.398462	-0.004214	0.003972	-0.003135	0.245190	0.007711	0.969444	0.063305	-0.997962	-0.008073	0.967406	0.063350	-0.245179
02317	9.508225	-0.065375	-2.426488	-0.001001	0.003245	-0.001909	0.245179	0.007708	0.969447	0.063297	-0.997962	-0.008073	0.967409	0.063342	-0.245167
02318	9.528309	-0.078238	-2.431205	-0.001372	0.001770	-0.001650	0.245180	0.007703	0.969447	0.063286	-0.997963	-0.008076	0.967410	0.063333	-0.245168
02319	9.528343	-0.078067	-2.431077	0.001567	0.000906	-0.001977	0.245191	0.007702	0.969444	0.063303	-0.997962	-0.008082	0.967406	0.063350	-0.245179
02320	9.505897	-0.118238	-2.415283	-0.000177	0.001201	-0.003367	0.245198	0.007715	0.969442	0.063305	-0.997962	-0.008070	0.967404	0.063350	-0.245187
02321	9.508402	-0.064427	-2.425818	-0.001275	0.003108	-0.003463	0.245187	0.007728	0.969445	0.063298	-0.997962	-0.008054	0.967407	0.063339	-0.245177
02322	9.497206	-0.084529	-2.417818	0.000274	0.000137	0.001554	0.245208	0.007693	0.969440	0.063291	-0.997962	-0.008090	0.967402	0.063340	-0.245195
02323	9.548504	-0.090523	-2.435513	0.001841	0.001044	-0.000423	0.245219	0.007676	0.969437	0.063306	-0.997961	-0.008111	0.967399	0.063360	-0.245205
02324	9.508509	-0.064303	-2.425403	-0.001001	0.003245	-0.001909	0.245208	0.007673	0.969440	0.063300	-0.997962	-0.008112	0.967402	0.063355	-0.245194
02325	9.548638	-0.090215	-2.434999	-0.001001	0.003245	-0.001909	0.245196	0.007670	0.969443	0.063292	-0.997962	-0.008112	0.967405	0.063347	-0.245182
02326	9.497390	-0.084045	-2.417109	-0.000549	-0.000275	-0.003108	0.245217	0.007681	0.969438	0.063291	-0.997962	-0.008102	0.967400	0.063344	-0.245203
02327	9.548710	-0.089708	-2.434737	0.000469	0.002813	-0.002073	0.245209	0.007680	0.969440	0.063297	-0.997962	-0.008104	0.967402	0.063350	-0.245196
02328	9.506301	-0.116791	-2.413764	0.000566	0.004151	-0.003886	0.245189	0.007696	0.969445	0.063312	-0.997961	-0.008090	0.967406	0.063361	-0.245176
02329	9.500507	-0.067136	-2.446881	-0.002018	0.000157	-0.002944	0.245206	0.007705	0.969440	0.063296	-0.997962	-0.008078	0.967402	0.063342	-0.245194
02330	9.557185	-0.084833	-2.411461	0.001017	0.003088	0.001035	0.245200	0.007673	0.969442	0.063300	-0.997962	-0.008112	0.967404	0.063355	-0.245186
02331	9.497641	-0.083067	-2.416159	-0.000274	-0.000137	-0.001554	0.245221	0.007668	0.969437	0.063298	-0.997962	-0.008117	0.967399	0.063354	-0.245207
02332	9.568985	-0.101869	-2.438745	0.001938	0.002382	-0.002236	0.245218	0.007669	0.969438	0.063319	-0.997960	-0.008122	0.967398	0.063376	-0.245204
02333	9.529000	-0.075493	-2.428584	-0.001275	0.003108	-0.003463	0.245207	0.007682	0.969440	0.063312	-0.997961	-0.008106	0.967401	0.063365	-0.245193
02334	9.529074	-0.075220	-2.428302	0.000469	0.002813	-0.002073	0.245200	0.007681	0.969442	0.063317	-0.997961	-0.008108	0.967403	0.063371	-0.245186
02335	9.537956	-0.108210	-2.425075	0.000566	0.004151	-0.003886	0.245179	0.007697	0.969447	0.063329	-0.997960	-0.008093	0.967407	0.063378	-0.245166
02336	9.537500	-0.070535	-2.405194	-0.000274	-0.000137	-0.001554	0.245200	0.007692	0.969442	0.063327	-0.997960	-0.008099	0.967402	0.063378	-0.245187
02337	9.538060	-0.107776	-2.424685	0.000840	0.004289	-0.002332	0.245178	0.007693	0.969448	0.063338	-0.997959	-0.008099	0.967407	0.063388	-0.245165
02338	9.509297	-0.061208	-2.422393	0.001293	0.000769	-0.003531	0.245190	0.007708	0.969444	0.063354	-0.997958	-0.008089	0.967403	0.063402	-0.245178
02339	9.521088	-0.078329	-2.449739	0.001017	0.003088	0.001035	0.245182	0.007676	0.969447	0.063358	-0.997958	-0.008122	0.967405	0.063414	-0.245168
02340	9.537735	-0.069815	-2.404281	-0.001549	0.002970	-0.005017	0.245171	0.007704	0.969449	0.063351	-0.997959	-0.008090	0.967408	0.063399	-0.245158
02341	9.489956	-0.084947	-2.436460	0.000097	0.001338	-0.001813	0.245178	0.007702	0.969448	0.063353	-0.997958	-0.008094	0.967406	0.063401	-0.245165
02342	9.526610	-0.089580	-2.396029	0.000743	0.002951	-0.000519	0.245170	0.007685	0.969450	0.063357	-0.997958	-0.008112	0.967408	0.063411	-0.245156
02343	9.534970	-0.085302	-2.373148	-0.001001	0.003245	-0.001909	0.245158	0.007682	0.969453	0.063349	-0.997958	-0.008112	0.967411	0.063403	-0.245145
02344	9.541444	-0.090423	-2.453453	-0.001372	0.001769	-0.001650	0.245161	0.007677	0.969452	0.063337	-0.997959	-0.008114	0.967411	0.063392	-0.245147
02345	9.518517	-0.093322	-2.417878	0.002212	0.002519	-0.000682	0.245157	0.007663	0.969453	0.063357	-0.997958	-0.008134	0.967411	0.063416	-0.245142
02346	9.495542	-0.096179	-2.382491	0.000550	-0.002182	-0.003012	0.245196	0.007674	0.969443	0.063366	-0.997957	-0.008127	0.967400	0.063422	-0.245182
02347	9.569843	-0.098919	-2.435499	0.002583	0.003995	-0.000941	0.245178	0.007661	0.969448	0.063390	-0.997956	-0.008145	0.967403	0.063450	-0.245162
02348	9.509819	-0.059573	-2.420384	-0.003115	0.002063	-0.003040	0.245179	0.007670	0.969448	0.063363	-0.997957	-0.008129	0.967405	0.063420	-0.245164
02349	9.538717	-0.105607	-2.422196	0.000469	0.002813	-0.002072	0.245171	0.007669	0.969449	0.063369	-0.997957	-0.008131	0.967407	0.063426	-0.245156
02350	9.533443	-0.093529	-2.474991	-0.001372	0.001769	-0.001650	0.245174	0.007665	0.969449	0.063356	-0.997958	-0.008133	0.967407	0.063414	-0.245159
02351	9.530032	-0.071961	-2.424638	-0.001001	0.003245	-0.001909	0.245163	0.007662	0.969452	0.063348	-0.997958	-0.008133	0.967410	0.063406	-0.245148
02352	9.507091	-0.074773	-2.389104	-0.001743	0.000294	-0.001391	0.245180	0.007655	0.969447	0.063330	-0.997959	-0.008136	0.967407	0.063390	-0.245165
02353	9.538916	-0.104936	-2.421438	0.002212	0.002519	-0.000682	0.245176	0.007641	0.969448	0.063350	-0.997958	-0.008156	0.967406	0.063414	-0.245160
02354	9.550234	-0.084530	-2.428937	-0.000903	0.004582	-0.003722	0.245151	0.007655	0.969455	0.063346	-0.997958	-0.008138	0.967413	0.063406	-0.245136
02355	9.510194	-0.058112	-2.418944	0.000551	-0.002182	-0.003012	0.245192	0.007667	0.969444	0.063355	-0.997958	-0.008132	0.967402	0.063413	-0.245177
02356	9.547884	-0.137417	-2.417944	-0.002099	0.005151	-0.002005	0.245162	0.007663	0.969452	0.063336	-0.997959	-0.008128	0.967411	0.063394	-0.245147
02357	9.498549	-0.040365	-2.390975	-0.000176	0.001200	-0.003367	0.245169	0.007676	0.969450	0.063340	-0.997959	-0.008116	0.967409	0.063394	-0.245155
02358	9.539199	-0.103607	-2.420381	-0.002842	0.002200	-0.001486	0.245168	0.007670	0.969450	0.063314	-0.997961	-0.008117	0.967411	0.063369	-0.245154
02359	9.522172	-0.074399	-2.445643	0.002212	0.002520	-0.000681	0.245164	0.007655	0.969451	0.063333	-0.997959	-0.008136	0.967411	0.063393	-0.245149
02360	9.530516	-0.069974	-2.422793	-0.001548	0.002969	-0.005017	0.245154	0.007683	0.969454	0.063328	-0.997960	-0.008105	0.967414	0.063380	-0.245141
02361	9.547644	-0.098803	-2.397144	-0.001470	0.000431	0.000163	0.245171	0.007661	0.969450	0.063310	-0.997961	-0.008124	0.967410	0.063367	-0.245156
02362	9.527622	-0.085597	-2.392150	0.001294	0.000769	-0.003530	0.245181	0.007676	0.969447	0.063328	-0.997960	-0.008115	0.967407	0.063383	-0.245167
02363	9.542374	-0.086578	-2.449973	-0.001098	0.001907	-0.000096	0.245184	0.007656	0.969446	0.063314	-0.997960	-0.008132	0.967407	0.063374	-0.245168
02364	9.519445	-0.089467	-2.414367	-0.001001	0.003244	-0.001909	0.245173	0.007652	0.969449	0.063307	-0.997961	-0.008133	0.967410	0.063367	-0.245158
02365	9.510710	-0.055927	-2.416965	-0.001274	0.003107	-0.003463	0.245162	0.007665	0.969452	0.063300	-0.997962	-0.008117	0.967413	0.063356	-0.245148
02366	9.519598	-0.088911	-2.413785	0.000469	0.002813	-0.002072	0.245153	0.007664	0.969454	0.063307	-0.997961	-0.008120	0.967415	0.063364	-0.245139
02367	9.547422	-0.060185	-2.376220	-0.001372	0.001769	-0.001650	0.245156	0.007659	0.969453	0.063294	-0.997962	-0.008122	0.967415	0.063352	-0.245141
02368	9.519708	-0.088622	-2.413362	0.002212	0.002520	-0.000681	0.245153	0.007645	0.969454	0.063313	-0.997961	-0.008141	0.967415	0.063375	-0.245137
02369	9.539795	-0.101417	-2.418125	-0.000449	0.001063	-0.004921	0.245160	0.007673	0.969452	0.063318	-0.997960	-0.008113	0.967413	0.063372	-0.245146
02370	9.531003	-0.067768	-2.420937	0.001294	0.000769	-0.003530	0.245172	0.007688	0.969449	0.063333	-0.997960	-0.008103	0.967409	0.063385	-0.245159
02371	9.531013	-0.067538	-2.420907	-0.000273	-0.000138	-0.001554	0.245193	0.007684	0.969444	0.063331	-0.997960	-0.008108	0.967403	0.063384	-0.245180
02372	9.551075	-0.080327	-2.425770	-0.001645	0.001631	-0.003204	0.245329	0.007863	0.969408	0.063447	-0.997953	-0.007962	0.967361	0.063459	-0.245326
02373	9.539903	-0.100288	-2.417745	0.001938	0.002382	-0.002235	0.245326	0.007864	0.969409	0.063468	-0.997952	-0.007966	0.967361	0.063481	-0.245323
02374	9.491594	-0.078131	-2.430299	-0.000176	0.001200	-0.003367	0.245333	0.007877	0.969407	0.063473	-0.997952	-0.007955	0.967359	0.063482	-0.245330
02375	9.539969	-0.099792	-2.417503	-0.001743	0.000293	-0.001391	0.245350	0.007871	0.969403	0.063456	-0.997953	-0.007958	0.967355	0.063467	-0.245348
02376	9.531152	-0.066450	-2.420390	0.000000	0.000000	0.000000	0.245350	0.007870	0.969403	0.063456	-0.997953	-0.007958	0.967356	0.063467	-0.245347
02377	9.519971	-0.086642	-2.412396	-0.000728	0.003382	-0.000355	0.245338	0.007852	0.969406	0.063447	-0.997953	-0.007974	0.967359	0.063462	-0.245334
02378	9.523025	-0.070373	-2.442441	-0.000903	0.004582	-0.003721	0.245314	0.007866	0.969412	0.063445	-0.997954	-0.007958	0.967365	0.063457	-0.245311
02379	9.540181	-0.099123	-2.416694	0.001294	0.000769	-0.003530	0.245326	0.007881	0.969409	0.063463	-0.997953	-0.007948	0.967361	0.063471	-0.245324
02380	9.520169	-0.085840	-2.411642	-0.001372	0.001769	-0.001650	0.245328	0.007876	0.969408	0.063452	-0.997953	-0.007950	0.967361	0.063461	-0.245325
02381	9.520208	-0.085660	-2.411495	0.000098	0.001338	-0.001813	0.245335	0.007874	0.969406	0.063454	-0.997953	-0.007953	0.967360	0.063464	-0.245332
02382	9.500190	-0.072466	-2.406457	0.001567	0.000907	-0.001976	0.245345	0.007872	0.969404	0.063472	-0.997952	-0.007960	0.967356	0.063483	-0.245343
02383	9.532035	-0.102536	-2.438853	-0.001743	0.000293	-0.001391	0.245363	0.007866	0.969399	0.063455	-0.997953	-0.007963	0.967352	0.063467	-0.245360
02384	9.539780	-0.060764	-2.396401	-0.001001	0.003244	-0.001909	0.245350	0.007864	0.969403	0.063446	-0.997954	-0.007963	0.967356	0.063458	-0.245347
02385	9.500893	-0.109248	-2.425625	-0.001274	0.003106	-0.003462	0.245339	0.007877	0.969405	0.063439	-0.997954	-0.007947	0.967359	0.063448	-0.245337
02386	9.528676	-0.080443	-2.388128	-0.000273	-0.000138	-0.001554	0.245359	0.007872	0.969400	0.063436	-0.997954	-0.007952	0.967354	0.063446	-0.245357
02387	9.509238	-0.104638	-2.402725	-0.002471	0.003675	-0.001746	0.245344	0.007868	0.969404	0.063413	-0.997956	-0.007950	0.967360	0.063423	-0.245341
02388	9.512257	-0.088305	-2.432916	-0.000175	0.001200	-0.003367	0.245351	0.007881	0.969402	0.063416	-0.997956	-0.007937	0.967358	0.063423	-0.245349
02389	9.532339	-0.101089	-2.437724	0.000098	0.001338	-0.001813	0.245358	0.007878	0.969400	0.063418	-0.997955	-0.007941	0.967356	0.063425	-0.245356
02390	9.515301	-0.071823	-2.463020	0.000469	0.002813	-0.002071	0.245350	0.007877	0.969402	0.063426	-0.997955	-0.007944	0.967357	0.063434	-0.245348
02391	9.540166	-0.059058	-2.394906	0.000566	0.004151	-0.003884	0.245329	0.007893	0.969408	0.063438	-0.997954	-0.007929	0.967362	0.063442	-0.245328
02392	9.512481	-0.087354	-2.432075	-0.000273	-0.000138	-0.001554	0.245350	0.007889	0.969402	0.063435	-0.997954	-0.007934	0.967357	0.063441	-0.245349
02393	9.520780	-0.083087	-2.409327	-0.000728	0.003382	-0.000355	0.245339	0.007871	0.969405	0.063426	-0.997955	-0.007950	0.967360	0.063436	-0.245336
02394	9.520869	-0.083047	-2.408975	0.002582	0.003996	-0.000939	0.245321	0.007857	0.969410	0.063451	-0.997953	-0.007969	0.967363	0.063465	-0.245318
02395	9.540402	-0.058493	-2.393979	0.001295	0.000769	-0.003529	0.245333	0.007872	0.969407	0.063469	-0.997952	-0.007958	0.967359	0.063480	-0.245330
02396	9.509771	-0.102752	-2.400696	-0.004214	0.003967	-0.003137	0.245315	0.007881	0.969412	0.063430	-0.997955	-0.007938	0.967366	0.063437	-0.245313
02397	9.529308	-0.078001	-2.385683	-0.000175	0.001200	-0.003366	0.245322	0.007895	0.969410	0.063434	-0.997955	-0.007926	0.967364	0.063438	-0.245321
02398	9.532864	-0.099042	-2.435755	-0.000546	-0.000275	-0.003108	0.245344	0.007906	0.969404	0.063433	-0.997955	-0.007916	0.967359	0.063434	-0.245344
02399	9.532279	-0.061394	-2.416080	-0.000273	-0.000138	-0.001554	0.245365	0.007902	0.969398	0.063431	-0.997955	-0.007921	0.967353	0.063433	-0.245365
02400	9.501623	-0.105925	-2.422910	0.002211	0.002520	-0.000680	0.245361	0.007887	0.969400	0.063450	-0.997953	-0.007940	0.967353	0.063457	-0.245360
02401	9.529452	-0.077167	-2.385136	-0.000533	0.006057	-0.003980	0.245321	0.007903	0.969410	0.063451	-0.997953	-0.007921	0.967363	0.063454	-0.245321
02402	9.532465	-0.060931	-2.415359	0.001099	-0.001906	0.000096	0.245361	0.007883	0.969400	0.063458	-0.997953	-0.007946	0.967352	0.063466	-0.245359
02403	9.504778	-0.089318	-2.452598	-0.000903	0.004582	-0.003721	0.245336	0.007898	0.969406	0.063455	-0.997953	-0.007929	0.967359	0.063459	-0.245335
02404	9.538433	-0.109879	-2.381689	0.000000	0.000000	-0.000000	0.245358	0.007878	0.969401	0.063453	-0.997953	-0.007950	0.967354	0.063462	-0.245356
02405	9.521357	-0.080712	-2.407125	0.000098	0.001338	-0.001812	0.245365	0.007875	0.969399	0.063455	-0.997953	-0.007954	0.967352	0.063465	-0.245362
02406	9.513156	-0.084624	-2.429530	0.000196	0.002675	-0.003625	0.245359	0.007890	0.969400	0.063462	-0.997953	-0.007940	0.967353	0.063468	-0.245358
02407	9.513212	-0.084358	-2.429319	-0.001372	0.001768	-0.001650	0.245362	0.007886	0.969399	0.063450	-0.997953	-0.007942	0.967353	0.063457	-0.245360
02408	9.525062	-0.101358	-2.456670	-0.001372	0.001768	-0.001650	0.245366	0.007881	0.969399	0.063436	-0.997954	-0.007943	0.967353	0.063444	-0.245364
02409	9.552849	-0.072446	-2.419024	0.000294	0.004013	-0.005437	0.245345	0.007913	0.969404	0.063449	-0.997954	-0.007912	0.967357	0.063449	-0.245345
02410	9.521621	-0.079493	-2.406122	0.003212	-0.000723	0.001229	0.245374	0.007881	0.969396	0.063475	-0.997952	-0.007953	0.967348	0.063484	-0.245372
02411	9.513384	-0.083585	-2.428675	-0.001645	0.001630	-0.003204	0.245378	0.007892	0.969395	0.063464	-0.997953	-0.007939	0.967348	0.063470	-0.245376
02412	9.521706	-0.079144	-2.405797	0.000839	0.004289	-0.002330	0.245356	0.007893	0.969401	0.063476	-0.997952	-0.007941	0.967353	0.063482	-0.245354
02413	9.544779	-0.075928	-2.440939	-0.000273	-0.000138	-0.001554	0.245377	0.007888	0.969396	0.063474	-0.997952	-0.007946	0.967347	0.063481	-0.245376
02414	9.502326	-0.103125	-2.420273	0.001666	0.002245	-0.003787	0.245377	0.007905	0.969396	0.063496	-0.997951	-0.007935	0.967346	0.063500	-0.245376
02415	9.544870	-0.075359	-2.440602	0.000196	0.002675	-0.003625	0.245370	0.007920	0.969397	0.063504	-0.997950	-0.007921	0.967347	0.063504	-0.245369
02416	9.501839	-0.065201	-2.400148	0.000371	0.001475	-0.000259	0.245374	0.007901	0.969396	0.063506	-0.997950	-0.007941	0.967346	0.063511	-0.245373
02417	9.562086	-0.103993	-2.414638	0.000294	0.004013	-0.005437	0.245353	0.007933	0.969401	0.063519	-0.997949	-0.007910	0.967351	0.063516	-0.245354
02418	9.510844	-0.097992	-2.396643	0.001013	0.003089	0.001037	0.245345	0.007901	0.969404	0.063521	-0.997949	-0.007943	0.967353	0.063527	-0.245343
02419	9.502040	-0.064655	-2.399365	0.001296	0.000770	-0.003529	0.245356	0.007916	0.969401	0.063539	-0.997948	-0.007933	0.967348	0.063541	-0.245356
02420	9.542213	-0.090511	-2.408998	-0.000729	0.003381	-0.000355	0.245342	0.007897	0.969404	0.063531	-0.997948	-0.007949	0.967353	0.063538	-0.245341
02421	9.513985	-0.081546	-2.426387	0.000469	0.002813	-0.002071	0.245335	0.007896	0.969406	0.063537	-0.997948	-0.007951	0.967354	0.063544	-0.245333
02422	9.502823	-0.101608	-2.418387	0.001568	0.000907	-0.001975	0.245346	0.007896	0.969403	0.063554	-0.997947	-0.007957	0.967350	0.063562	-0.245344
02423	9.522307	-0.076960	-2.403489	-0.001644	0.001630	-0.003204	0.245350	0.007907	0.969402	0.063543	-0.997948	-0.007943	0.967350	0.063547	-0.245348
02424	9.513474	-0.043542	-2.406320	0.000000	0.000000	0.000000	0.245371	0.007887	0.969397	0.063539	-0.997948	-0.007964	0.967345	0.063549	-0.245368
02425	9.511136	-0.096932	-2.395527	0.000098	0.001338	-0.001812	0.245378	0.007884	0.969395	0.063541	-0.997947	-0.007967	0.967343	0.063552	-0.245375
02426	9.542434	-0.089480	-2.408161	0.001296	0.000770	-0.003529	0.245388	0.007899	0.969393	0.063560	-0.997946	-0.007957	0.967339	0.063567	-0.245386
02427	9.514201	-0.080451	-2.425579	-0.000359	0.004857	-0.000613	0.245361	0.007882	0.969400	0.063554	-0.997947	-0.007972	0.967346	0.063566	-0.245358
02428	9.514271	-0.080343	-2.425304	0.001568	0.000907	-0.001975	0.245372	0.007882	0.969397	0.063570	-0.997946	-0.007977	0.967343	0.063582	-0.245369
02429	9.545588	-0.072881	-2.437866	0.000196	0.002675	-0.003625	0.245365	0.007897	0.969399	0.063577	-0.997945	-0.007963	0.967344	0.063586	-0.245362
02430	9.522624	-0.075662	-2.402272	0.000469	0.002813	-0.002071	0.245359	0.007896	0.969400	0.063583	-0.997945	-0.007965	0.967345	0.063592	-0.245357
02431	9.483201	-0.086782	-2.411809	0.000567	0.004151	-0.003883	0.245338	0.007912	0.969405	0.063595	-0.997944	-0.007950	0.967350	0.063600	-0.245336
02432	9.534624	-0.092228	-2.429125	0.000196	0.002675	-0.003625	0.245330	0.007926	0.969407	0.063603	-0.997944	-0.007936	0.967351	0.063604	-0.245330
02433	9.542911	-0.087799	-2.406332	0.000098	0.001338	-0.001812	0.245337	0.007924	0.969405	0.063605	-0.997944	-0.007940	0.967349	0.063607	-0.245337
02434	9.514639	-0.078878	-2.423910	0.001840	0.001045	-0.000421	0.245347	0.007908	0.969403	0.063619	-0.997942	-0.007961	0.967346	0.063626	-0.245345
02435	9.534729	-0.091740	-2.428731	0.001296	0.000770	-0.003528	0.245358	0.007923	0.969400	0.063637	-0.997941	-0.007951	0.967342	0.063641	-0.245357
02436	9.522931	-0.074383	-2.401094	-0.001100	0.001906	-0.000096	0.245361	0.007903	0.969400	0.063624	-0.997942	-0.007968	0.967342	0.063632	-0.245359
02437	9.534809	-0.091456	-2.428429	-0.001372	0.001768	-0.001650	0.245364	0.007898	0.969399	0.063611	-0.997943	-0.007970	0.967342	0.063620	-0.245362
02438	9.514821	-0.078162	-2.423220	-0.000903	0.004581	-0.003721	0.245339	0.007912	0.969405	0.063610	-0.997943	-0.007953	0.967348	0.063615	-0.245338
02439	9.534950	-0.090896	-2.427896	-0.001742	0.000292	-0.001392	0.245357	0.007906	0.969401	0.063593	-0.997944	-0.007956	0.967345	0.063599	-0.245355
02440	9.531364	-0.069453	-2.377722	0.001840	0.001046	-0.000421	0.245367	0.007889	0.969398	0.063610	-0.997943	-0.007979	0.967341	0.063621	-0.245364
02441	9.514953	-0.077779	-2.422715	-0.000729	0.003381	-0.000355	0.245355	0.007871	0.969401	0.063601	-0.997943	-0.007995	0.967345	0.063616	-0.245351
02442	9.546263	-0.070296	-2.435298	-0.000816	-0.000414	-0.004661	0.245379	0.007898	0.969395	0.063601	-0.997944	-0.007968	0.967339	0.063610	-0.245376
02443	9.532131	-0.106398	-2.396893	-0.001928	0.003949	0.001361	0.245363	0.007862	0.969400	0.063576	-0.997945	-0.007998	0.967344	0.063593	-0.245358
02444	9.543381	-0.086129	-2.404530	-0.000272	-0.000138	-0.001554	0.245384	0.007858	0.969394	0.063574	-0.997945	-0.008004	0.967339	0.063592	-0.245379
02445	9.520376	-0.088923	-2.369064	-0.001274	0.003105	-0.003462	0.245373	0.007871	0.969397	0.063567	-0.997946	-0.007988	0.967342	0.063582	-0.245369
02446	9.535249	-0.089692	-2.426767	-0.001644	0.001629	-0.003204	0.245375	0.007881	0.969396	0.063558	-0.997946	-0.007975	0.967343	0.063570	-0.245372
02447	9.532336	-0.105477	-2.396117	-0.001002	0.003243	-0.001908	0.245363	0.007878	0.969399	0.063550	-0.997947	-0.007975	0.967346	0.063562	-0.245360
02448	9.532404	-0.105136	-2.395862	0.001395	0.002107	-0.005340	0.245360	0.007910	0.969400	0.063573	-0.997946	-0.007947	0.967345	0.063577	-0.245359
02449	9.535389	-0.088923	-2.426243	-0.000098	-0.001338	0.001812	0.245396	0.007873	0.969391	0.063564	-0.997946	-0.007986	0.967337	0.063578	-0.245392
02450	9.515344	-0.075736	-2.421242	-0.003016	0.003397	-0.004854	0.245381	0.007900	0.969394	0.063543	-0.997947	-0.007952	0.967342	0.063550	-0.245380
02451	9.535506	-0.088514	-2.425799	-0.001928	0.003949	0.001361	0.245365	0.007864	0.969399	0.063518	-0.997949	-0.007982	0.967348	0.063533	-0.245361
02452	9.543801	-0.084209	-2.402930	-0.001644	0.001629	-0.003204	0.245368	0.007875	0.969398	0.063506	-0.997950	-0.007967	0.967348	0.063517	-0.245365
02453	9.524429	-0.108354	-2.417510	0.000468	0.002813	-0.002070	0.245360	0.007874	0.969400	0.063512	-0.997949	-0.007969	0.967349	0.063524	-0.245357
02454	9.535696	-0.087941	-2.425074	0.001939	0.002383	-0.002232	0.245358	0.007875	0.969401	0.063534	-0.997948	-0.007974	0.967349	0.063546	-0.245354
02455	9.535760	-0.087765	-2.424825	0.000469	0.002813	-0.002070	0.245350	0.007874	0.969403	0.063540	-0.997947	-0.007976	0.967350	0.063553	-0.245347
02456	9.492695	-0.077788	-2.384374	-0.000828	0.002043	0.001458	0.245350	0.007838	0.969403	0.063526	-0.997948	-0.008009	0.967351	0.063548	-0.245345
02457	9.535859	-0.087551	-2.424446	-0.000445	0.001062	-0.004920	0.245358	0.007867	0.969401	0.063531	-0.997948	-0.007981	0.967349	0.063545	-0.245354
02458	9.547087	-0.067076	-2.432158	0.001840	0.001046	-0.000420	0.245369	0.007850	0.969398	0.063547	-0.997947	-0.008003	0.967345	0.063566	-0.245364
02459	9.532931	-0.103281	-2.393844	-0.003212	0.000721	-0.001230	0.245383	0.007842	0.969395	0.063516	-0.997949	-0.008004	0.967343	0.063536	-0.245377
02460	9.535988	-0.086935	-2.423960	0.000937	0.005626	-0.004140	0.245347	0.007860	0.969403	0.063530	-0.997948	-0.007987	0.967351	0.063546	-0.245343
02461	9.516010	-0.073643	-2.418688	-0.002842	0.002197	-0.001488	0.245346	0.007854	0.969404	0.063503	-0.997950	-0.007987	0.967353	0.063520	-0.245342
02462	9.572664	-0.091094	-2.383037	0.000469	0.002813	-0.002070	0.245340	0.007853	0.969405	0.063509	-0.997949	-0.007989	0.967355	0.063526	-0.245335
02463	9.527324	-0.053105	-2.426057	0.000370	0.001476	-0.000258	0.245346	0.007835	0.969404	0.063510	-0.997949	-0.008008	0.967353	0.063532	-0.245341
02464	9.564531	-0.095075	-2.405303	0.000098	0.001338	-0.001812	0.245353	0.007832	0.969402	0.063513	-0.997949	-0.008012	0.967351	0.063536	-0.245347
02465	9.484903	-0.080242	-2.405334	-0.002013	0.000154	-0.002946	0.245371	0.007842	0.969398	0.063498	-0.997950	-0.008000	0.967347	0.063517	-0.245366
02466	9.528041	-0.090089	-2.445534	0.000272	0.000138	0.001554	0.245392	0.007806	0.969392	0.063492	-0.997950	-0.008036	0.967342	0.063520	-0.245385
02467	9.525095	-0.105983	-2.414990	-0.000075	0.002537	-0.005177	0.245386	0.007837	0.969394	0.063500	-0.997950	-0.008007	0.967344	0.063522	-0.245380
02468	9.547542	-0.065170	-2.430424	0.000098	0.001338	-0.001812	0.245391	0.007834	0.969392	0.063502	-0.997950	-0.008010	0.967342	0.063524	-0.245386
02469	9.508082	-0.076418	-2.440197	0.000098	0.001338	-0.001812	0.245398	0.007831	0.969391	0.063505	-0.997949	-0.008014	0.967340	0.063527	-0.245393
02470	9.528232	-0.089307	-2.444819	0.001110	0.004427	-0.000774	0.245377	0.007816	0.969396	0.063514	-0.997949	-0.008030	0.967345	0.063541	-0.245370
02471	9.525344	-0.105168	-2.414044	-0.001273	0.003105	-0.003462	0.245366	0.007829	0.969399	0.063507	-0.997949	-0.008015	0.967348	0.063530	-0.245360
02472	9.524768	-0.067396	-2.394004	0.000567	0.004151	-0.003882	0.245345	0.007846	0.969404	0.063517	-0.997949	-0.007999	0.967353	0.063536	-0.245340
02473	9.516610	-0.071384	-2.416394	-0.001470	0.000429	0.000162	0.245362	0.007824	0.969400	0.063499	-0.997950	-0.008018	0.967350	0.063524	-0.245356
02474	9.544946	-0.080255	-2.398513	0.001011	0.003089	0.001038	0.245355	0.007792	0.969402	0.063504	-0.997949	-0.008052	0.967351	0.063536	-0.245347
02475	9.533796	-0.100405	-2.390521	0.001297	0.000770	-0.003527	0.245367	0.007807	0.969399	0.063522	-0.997948	-0.008042	0.967347	0.063551	-0.245359
02476	9.516731	-0.071021	-2.415929	-0.001643	0.001629	-0.003204	0.245370	0.007818	0.969398	0.063509	-0.997949	-0.008027	0.967347	0.063535	-0.245363
02477	9.517464	-0.108159	-2.435393	-0.001002	0.003242	-0.001908	0.245359	0.007815	0.969401	0.063501	-0.997950	-0.008027	0.967350	0.063527	-0.245352
02478	9.496772	-0.057554	-2.410567	-0.001372	0.001767	-0.001650	0.245361	0.007811	0.969400	0.063488	-0.997950	-0.008028	0.967351	0.063515	-0.245353
02479	9.537629	-0.120705	-2.439979	-0.000543	-0.000276	-0.003108	0.245382	0.007822	0.969395	0.063487	-0.997950	-0.008018	0.967345	0.063511	-0.245376
02480	9.516881	-0.070124	-2.415363	-0.002941	0.000859	0.000323	0.245397	0.007798	0.969391	0.063457	-0.997952	-0.008036	0.967344	0.063487	-0.245389
02481	9.576512	-0.071413	-2.410114	0.000296	0.004013	-0.005435	0.245376	0.007830	0.969396	0.063470	-0.997952	-0.008005	0.967348	0.063492	-0.245370
02482	9.514010	-0.085682	-2.384516	0.004781	0.000188	-0.000743	0.245394	0.007818	0.969392	0.063512	-0.997949	-0.008030	0.967341	0.063539	-0.245387
02483	9.557220	-0.095433	-2.424486	-0.000903	0.004580	-0.003720	0.245369	0.007832	0.969398	0.063510	-0.997949	-0.008012	0.967347	0.063532	-0.245363
02484	9.537199	-0.082243	-2.419356	-0.001470	0.000429	0.000162	0.245386	0.007810	0.969394	0.063493	-0.997950	-0.008032	0.967344	0.063520	-0.245379
02485	9.508937	-0.073237	-2.436958	-0.003113	0.002058	-0.003042	0.245386	0.007820	0.969394	0.063467	-0.997952	-0.008016	0.967346	0.063491	-0.245379
02486	9.526085	-0.102017	-2.411255	-0.001372	0.001767	-0.001650	0.245389	0.007815	0.969393	0.063454	-0.997953	-0.008017	0.967346	0.063479	-0.245383
02487	9.509025	-0.072780	-2.436631	0.000099	0.001338	-0.001812	0.245396	0.007812	0.969391	0.063456	-0.997952	-0.008021	0.967344	0.063482	-0.245390
02488	9.545554	-0.077332	-2.396187	0.001840	0.001046	-0.000419	0.245407	0.007796	0.969389	0.063472	-0.997951	-0.008043	0.967340	0.063503	-0.245399
02489	9.503113	-0.104749	-2.375575	0.000099	0.001338	-0.001812	0.245414	0.007793	0.969387	0.063474	-0.997951	-0.008046	0.967338	0.063506	-0.245406
02490	9.517375	-0.068144	-2.413471	-0.003844	0.005438	-0.003396	0.245380	0.007804	0.969396	0.063443	-0.997953	-0.008025	0.967349	0.063470	-0.245373
02491	9.506272	-0.087955	-2.405331	0.002867	0.001679	-0.005500	0.245381	0.007838	0.969395	0.063481	-0.997951	-0.008000	0.967346	0.063501	-0.245376
02492	9.537591	-0.080461	-2.417870	0.000370	0.001476	-0.000258	0.245387	0.007820	0.969394	0.063482	-0.997951	-0.008020	0.967344	0.063507	-0.245381
02493	9.537649	-0.080350	-2.417646	-0.001002	0.003242	-0.001908	0.245376	0.007817	0.969396	0.063474	-0.997951	-0.008020	0.967348	0.063499	-0.245369
02494	9.526542	-0.100381	-2.409516	-0.002472	0.003671	-0.001746	0.245362	0.007811	0.969400	0.063453	-0.997953	-0.008019	0.967353	0.063479	-0.245355
02495	9.543033	-0.091886	-2.363957	-0.000731	0.003380	-0.000354	0.245350	0.007793	0.969403	0.063444	-0.997953	-0.008035	0.967356	0.063474	-0.245342
02496	9.529668	-0.084049	-2.439401	-0.003212	0.000720	-0.001231	0.245364	0.007785	0.969400	0.063412	-0.997955	-0.008036	0.967355	0.063444	-0.245356
02497	9.537932	-0.079674	-2.416550	0.000838	0.004289	-0.002327	0.245342	0.007786	0.969405	0.063423	-0.997954	-0.008036	0.967360	0.063454	-0.245334
02498	9.538019	-0.079480	-2.416211	0.000469	0.002813	-0.002069	0.245336	0.007785	0.969407	0.063428	-0.997954	-0.008038	0.967361	0.063460	-0.245328
02499	9.526200	-0.062131	-2.388444	0.000469	0.002813	-0.002069	0.245328	0.007784	0.969409	0.063435	-0.997954	-0.008040	0.967362	0.063467	-0.245320
02500	9.506844	-0.086464	-2.403124	0.000000	0.000000	0.000000	0.245330	0.007783	0.969408	0.063436	-0.997953	-0.008041	0.967362	0.063469	-0.245322
02501	9.506896	-0.086363	-2.402920	0.000838	0.004289	-0.002327	0.245308	0.007784	0.969414	0.063447	-0.997953	-0.008042	0.967367	0.063479	-0.245300
02502	9.558381	-0.091784	-2.420044	-0.002373	0.005009	-0.003558	0.245277	0.007797	0.969422	0.063429	-0.997954	-0.008023	0.967376	0.063458	-0.245270
02503	9.498906	-0.090041	-2.424735	0.002210	0.002522	-0.000677	0.245274	0.007782	0.969423	0.063449	-0.997953	-0.008042	0.967375	0.063482	-0.245265
02504	9.507166	-0.085609	-2.401879	-0.000073	0.002537	-0.005177	0.245266	0.007812	0.969424	0.063458	-0.997952	-0.008013	0.967377	0.063483	-0.245260
02505	9.519146	-0.102478	-2.429055	-0.003672	0.004238	-0.000031	0.245247	0.007790	0.969429	0.063420	-0.997955	-0.008025	0.967384	0.063449	-0.245239
02506	9.518465	-0.064885	-2.409259	0.000559	-0.002181	-0.003011	0.245288	0.007801	0.969419	0.063430	-0.997954	-0.008018	0.967373	0.063457	-0.245281
02507	9.533379	-0.065879	-2.467083	-0.001931	0.003947	0.001361	0.245272	0.007765	0.969423	0.063404	-0.997955	-0.008048	0.967379	0.063439	-0.245262
02508	9.519295	-0.102064	-2.428491	0.000568	0.004151	-0.003880	0.245248	0.007781	0.969429	0.063417	-0.997955	-0.008033	0.967384	0.063448	-0.245240
02509	9.527539	-0.097630	-2.405684	-0.000271	-0.000138	-0.001554	0.245270	0.007777	0.969424	0.063415	-0.997955	-0.008038	0.967379	0.063448	-0.245262
02510	9.518674	-0.064219	-2.408452	-0.001002	0.003242	-0.001908	0.245259	0.007774	0.969426	0.063407	-0.997955	-0.008038	0.967382	0.063439	-0.245250
02511	9.527641	-0.097329	-2.405293	-0.001101	0.001904	-0.000096	0.245261	0.007754	0.969426	0.063393	-0.997956	-0.008056	0.967382	0.063430	-0.245252
02512	9.510607	-0.068079	-2.430586	-0.001272	0.003104	-0.003461	0.245250	0.007767	0.969429	0.063386	-0.997957	-0.008040	0.967385	0.063420	-0.245242
02513	9.507663	-0.083732	-2.399979	-0.000442	0.001061	-0.004919	0.245258	0.007796	0.969426	0.063390	-0.997957	-0.008012	0.967383	0.063417	-0.245251
02514	9.559067	-0.089200	-2.417429	0.001840	0.001047	-0.000419	0.245271	0.007780	0.969423	0.063403	-0.997956	-0.008033	0.967379	0.063434	-0.245263
02515	9.530818	-0.080385	-2.435026	-0.001101	0.001904	-0.000096	0.245273	0.007760	0.969423	0.063389	-0.997956	-0.008050	0.967379	0.063425	-0.245264
02516	9.527865	-0.096268	-2.404449	-0.001642	0.001628	-0.003204	0.245276	0.007771	0.969422	0.063378	-0.997957	-0.008036	0.967379	0.063411	-0.245268
02517	9.499641	-0.087194	-2.421957	-0.001002	0.003242	-0.001907	0.245265	0.007768	0.969425	0.063369	-0.997958	-0.008036	0.967383	0.063403	-0.245256
02518	9.531016	-0.079638	-2.434276	0.000568	0.004151	-0.003880	0.245244	0.007784	0.969430	0.063380	-0.997957	-0.008020	0.967387	0.063410	-0.245236
02519	9.548178	-0.108435	-2.408501	0.001570	0.000909	-0.001972	0.245255	0.007784	0.969427	0.063397	-0.997956	-0.008026	0.967384	0.063427	-0.245247
02520	9.519186	-0.062067	-2.406482	-0.001741	0.000291	-0.001393	0.245273	0.007778	0.969423	0.063378	-0.997957	-0.008028	0.967380	0.063409	-0.245264
02521	9.559401	-0.087846	-2.416159	0.000099	0.001338	-0.001811	0.245280	0.007776	0.969421	0.063380	-0.997957	-0.008032	0.967378	0.063412	-0.245271
02522	9.499160	-0.048742	-2.401331	0.000469	0.002813	-0.002069	0.245274	0.007775	0.969423	0.063385	-0.997957	-0.008033	0.967380	0.063417	-0.245265
02523	9.551315	-0.091757	-2.438392	0.001840	0.001047	-0.000418	0.245284	0.007759	0.969420	0.063401	-0.997956	-0.008055	0.967376	0.063437	-0.245275
02524	9.511143	-0.065657	-2.428553	0.001299	0.000771	-0.003526	0.245296	0.007774	0.969417	0.063417	-0.997955	-0.008044	0.967372	0.063451	-0.245288
02525	9.528270	-0.094545	-2.402911	0.000370	0.001476	-0.000257	0.245303	0.007756	0.969415	0.063418	-0.997954	-0.008063	0.967370	0.063456	-0.245293
02526	9.542472	-0.058132	-2.441049	-0.000270	-0.000138	-0.001554	0.245327	0.007751	0.969409	0.063415	-0.997955	-0.008069	0.967364	0.063455	-0.245317
02527	9.505203	-0.097320	-2.367513	-0.000171	0.001199	-0.003365	0.245335	0.007764	0.969407	0.063419	-0.997954	-0.008057	0.967362	0.063455	-0.245325
02528	9.559628	-0.086671	-2.415303	-0.002842	0.002195	-0.001489	0.245333	0.007758	0.969408	0.063390	-0.997956	-0.008056	0.967364	0.063427	-0.245323
02529	9.488958	-0.105210	-2.412283	0.000838	0.004289	-0.002326	0.245311	0.007759	0.969413	0.063400	-0.997956	-0.008056	0.967369	0.063437	-0.245301
02530	9.523272	-0.081771	-2.455242	0.001101	-0.001904	0.000096	0.245351	0.007739	0.969403	0.063407	-0.997955	-0.008081	0.967359	0.063450	-0.245340
02531	9.531499	-0.077399	-2.432456	-0.003844	0.005436	-0.003397	0.245317	0.007750	0.969412	0.063375	-0.997957	-0.008059	0.967369	0.063414	-0.245307
02532	9.531604	-0.077253	-2.432051	0.001009	0.003089	0.001039	0.245308	0.007718	0.969414	0.063378	-0.997957	-0.008092	0.967371	0.063425	-0.245296
02533	9.539834	-0.073058	-2.409240	0.001570	0.000909	-0.001972	0.245319	0.007717	0.969412	0.063395	-0.997956	-0.008098	0.967367	0.063442	-0.245307
02534	9.528697	-0.093146	-2.401273	0.000469	0.002813	-0.002068	0.245312	0.007716	0.969413	0.063401	-0.997955	-0.008100	0.967369	0.063449	-0.245300
02535	9.500472	-0.084169	-2.418803	-0.001371	0.001766	-0.001650	0.245315	0.007712	0.969413	0.063388	-0.997956	-0.008102	0.967369	0.063437	-0.245303
02536	9.500521	-0.083969	-2.418617	-0.002842	0.002194	-0.001489	0.245313	0.007706	0.969413	0.063361	-0.997958	-0.008101	0.967371	0.063411	-0.245301
02537	9.511746	-0.063368	-2.426251	-0.000441	0.001061	-0.004918	0.245321	0.007734	0.969411	0.063366	-0.997958	-0.008073	0.967369	0.063408	-0.245310
02538	9.531876	-0.076100	-2.431021	0.001840	0.001047	-0.000418	0.245333	0.007718	0.969408	0.063381	-0.997957	-0.008095	0.967365	0.063428	-0.245321
02539	9.509582	-0.116429	-2.415177	-0.000903	0.004579	-0.003718	0.245308	0.007732	0.969414	0.063378	-0.997957	-0.008078	0.967371	0.063421	-0.245297
02540	9.543199	-0.055360	-2.438269	-0.004682	0.001147	-0.001071	0.245316	0.007722	0.969412	0.063332	-0.997960	-0.008077	0.967372	0.063376	-0.245305
02541	9.529049	-0.091492	-2.399939	-0.001371	0.001766	-0.001650	0.245319	0.007718	0.969412	0.063320	-0.997961	-0.008078	0.967372	0.063364	-0.245308
02542	9.520169	-0.057999	-2.402694	-0.001641	0.001628	-0.003204	0.245322	0.007729	0.969411	0.063309	-0.997961	-0.008065	0.967372	0.063351	-0.245311
02543	9.512783	-0.099319	-2.444861	-0.001371	0.001766	-0.001650	0.245325	0.007724	0.969410	0.063297	-0.997962	-0.008066	0.967372	0.063340	-0.245314
02544	9.540385	-0.070512	-2.407134	0.002309	0.003861	-0.002486	0.245308	0.007727	0.969414	0.063323	-0.997960	-0.008069	0.967375	0.063365	-0.245297
02545	9.489773	-0.102086	-2.409210	-0.000639	-0.001614	-0.001297	0.245344	0.007721	0.969405	0.063316	-0.997961	-0.008076	0.967366	0.063361	-0.245333
02546	9.529318	-0.090473	-2.398907	-0.002565	0.008663	-0.000803	0.245281	0.007704	0.969421	0.063289	-0.997962	-0.008083	0.967384	0.063337	-0.245269
02547	9.541332	-0.107568	-2.426076	0.001101	-0.001904	0.000096	0.245321	0.007684	0.969412	0.063297	-0.997962	-0.008107	0.967373	0.063349	-0.245307
02548	9.512305	-0.061158	-2.424114	0.001399	0.002109	-0.005336	0.245319	0.007716	0.969412	0.063320	-0.997961	-0.008080	0.967372	0.063365	-0.245307
02549	9.541388	-0.107016	-2.425880	-0.001371	0.001766	-0.001650	0.245322	0.007712	0.969411	0.063307	-0.997961	-0.008082	0.967372	0.063353	-0.245310
02550	9.513190	-0.098027	-2.443328	-0.000633	0.004717	-0.002164	0.245296	0.007711	0.969418	0.063302	-0.997962	-0.008080	0.967379	0.063348	-0.245284
02551	9.540810	-0.069189	-2.405486	-0.001002	0.003241	-0.001907	0.245285	0.007708	0.969420	0.063294	-0.997962	-0.008080	0.967383	0.063340	-0.245273
02552	9.510373	-0.113535	-2.412200	0.000298	0.004013	-0.005432	0.245264	0.007740	0.969425	0.063306	-0.997962	-0.008049	0.967387	0.063345	-0.245254
02553	9.543975	-0.052465	-2.435294	-0.004412	0.001284	0.000482	0.245273	0.007714	0.969423	0.063259	-0.997965	-0.008064	0.967388	0.063302	-0.245262
02554	9.521644	-0.092806	-2.419635	0.001300	0.000771	-0.003525	0.245284	0.007729	0.969421	0.063278	-0.997963	-0.008054	0.967384	0.063318	-0.245273
02555	9.524674	-0.076475	-2.449970	-0.003211	0.000718	-0.001232	0.245297	0.007721	0.969417	0.063246	-0.997965	-0.008055	0.967383	0.063288	-0.245286
02556	9.521728	-0.092435	-2.419321	0.001108	0.004427	-0.000771	0.245277	0.007706	0.969422	0.063257	-0.997965	-0.008072	0.967387	0.063302	-0.245266
02557	9.501694	-0.079356	-2.414162	-0.001371	0.001766	-0.001650	0.245280	0.007701	0.969422	0.063244	-0.997965	-0.008074	0.967387	0.063290	-0.245269
02558	9.521866	-0.092119	-2.418789	-0.001002	0.003241	-0.001907	0.245269	0.007698	0.969425	0.063236	-0.997966	-0.008074	0.967391	0.063283	-0.245257
02559	9.530106	-0.087742	-2.395876	0.000469	0.002813	-0.002068	0.245261	0.007698	0.969426	0.063242	-0.997966	-0.008076	0.967392	0.063289	-0.245249
02560	9.524992	-0.075661	-2.448758	-0.001740	0.000290	-0.001393	0.245280	0.007691	0.969422	0.063227	-0.997966	-0.008080	0.967388	0.063275	-0.245267
02561	9.542146	-0.104360	-2.423012	0.000298	0.004013	-0.005432	0.245259	0.007723	0.969427	0.063240	-0.997966	-0.008049	0.967393	0.063280	-0.245248
02562	9.510183	-0.073893	-2.390298	-0.002473	0.003669	-0.001746	0.245244	0.007718	0.969431	0.063217	-0.997967	-0.008047	0.967398	0.063258	-0.245233
02563	9.522165	-0.090863	-2.417658	0.002672	-0.000994	-0.001875	0.245273	0.007718	0.969423	0.063244	-0.997966	-0.008056	0.967389	0.063286	-0.245263
02564	9.514015	-0.095047	-2.440233	-0.000832	0.002042	0.001457	0.245277	0.007682	0.969423	0.063229	-0.997966	-0.008090	0.967389	0.063280	-0.245263
02565	9.553518	-0.083512	-2.430045	-0.002842	0.002194	-0.001489	0.245276	0.007676	0.969423	0.063202	-0.997968	-0.008089	0.967391	0.063254	-0.245262
02566	9.510322	-0.073413	-2.389759	-0.000170	0.001200	-0.003364	0.245285	0.007689	0.969421	0.063203	-0.997968	-0.008077	0.967389	0.063252	-0.245273
02567	9.502196	-0.077261	-2.412252	-0.001641	0.001627	-0.003204	0.245288	0.007700	0.969420	0.063192	-0.997969	-0.008062	0.967388	0.063237	-0.245277
02568	9.525410	-0.073785	-2.447190	0.002408	0.005199	-0.004295	0.245256	0.007720	0.969427	0.063222	-0.997967	-0.008047	0.967395	0.063263	-0.245246
02569	9.530625	-0.085502	-2.393892	-0.001471	0.000428	0.000161	0.245274	0.007698	0.969423	0.063204	-0.997968	-0.008066	0.967391	0.063250	-0.245262
02570	9.513541	-0.056300	-2.419378	0.001301	0.000772	-0.003525	0.245284	0.007713	0.969420	0.063221	-0.997967	-0.008056	0.967388	0.063264	-0.245273
02571	9.561997	-0.077687	-2.406214	-0.000903	0.004579	-0.003717	0.245259	0.007728	0.969427	0.063218	-0.997967	-0.008039	0.967394	0.063257	-0.245249
02572	9.494374	-0.080273	-2.433592	-0.000463	0.003517	0.001201	0.245269	0.007844	0.969423	0.063392	-0.997957	-0.007963	0.967380	0.063407	-0.245265
02573	9.533899	-0.068737	-2.423295	0.000469	0.002813	-0.002067	0.245262	0.007844	0.969425	0.063399	-0.997956	-0.007965	0.967382	0.063414	-0.245258
02574	9.502678	-0.075865	-2.410396	0.000469	0.002813	-0.002067	0.245254	0.007843	0.969427	0.063406	-0.997956	-0.007968	0.967383	0.063421	-0.245250
02575	9.522864	-0.088556	-2.414991	0.000199	0.002675	-0.003621	0.245247	0.007857	0.969429	0.063414	-0.997956	-0.007954	0.967384	0.063426	-0.245244
02576	9.534094	-0.068100	-2.422547	-0.001102	0.001904	-0.000096	0.245250	0.007837	0.969428	0.063402	-0.997956	-0.007972	0.967384	0.063419	-0.245246
02577	9.522964	-0.088365	-2.414602	0.005150	0.001668	-0.000995	0.245255	0.007826	0.969427	0.063451	-0.997953	-0.007996	0.967380	0.063472	-0.245249
02578	9.523018	-0.088132	-2.414399	-0.000070	0.002537	-0.005175	0.245249	0.007857	0.969428	0.063460	-0.997953	-0.007966	0.967381	0.063474	-0.245245
02579	9.514906	-0.091972	-2.436874	-0.003211	0.000717	-0.001233	0.245262	0.007849	0.969425	0.063429	-0.997955	-0.007967	0.967380	0.063444	-0.245258
02580	9.546228	-0.084461	-2.449385	-0.001371	0.001765	-0.001650	0.245266	0.007844	0.969424	0.063416	-0.997955	-0.007969	0.967379	0.063432	-0.245262
02581	9.514996	-0.091668	-2.436534	0.000738	0.002951	-0.000513	0.245259	0.007828	0.969426	0.063422	-0.997955	-0.007987	0.967381	0.063442	-0.245254
02582	9.540314	-0.116421	-2.388101	0.001939	0.002386	-0.002227	0.245256	0.007829	0.969427	0.063444	-0.997953	-0.007992	0.967380	0.063464	-0.245250
02583	9.503160	-0.074261	-2.408549	0.000469	0.002813	-0.002067	0.245248	0.007828	0.969429	0.063451	-0.997953	-0.007993	0.967382	0.063471	-0.245243
02584	9.534519	-0.066679	-2.420912	0.000200	0.002675	-0.003621	0.245241	0.007843	0.969430	0.063457	-0.997953	-0.007979	0.967383	0.063475	-0.245237
02585	9.543543	-0.099701	-2.417703	-0.000733	0.003379	-0.000353	0.245229	0.007825	0.969434	0.063448	-0.997953	-0.007995	0.967387	0.063469	-0.245224
02586	9.539771	-0.078260	-2.367398	-0.003211	0.000717	-0.001233	0.245242	0.007816	0.969430	0.063418	-0.997955	-0.007997	0.967385	0.063440	-0.245236
02587	9.535464	-0.103513	-2.440069	0.001301	0.000772	-0.003524	0.245254	0.007831	0.969427	0.063436	-0.997954	-0.007987	0.967381	0.063455	-0.245249
02588	9.495249	-0.077303	-2.430273	-0.000169	0.001199	-0.003364	0.245259	0.007844	0.969426	0.063440	-0.997954	-0.007975	0.967380	0.063457	-0.245255
02589	9.523564	-0.085743	-2.412329	0.001670	0.002247	-0.003781	0.245256	0.007861	0.969427	0.063463	-0.997952	-0.007963	0.967379	0.063476	-0.245253
02590	9.546753	-0.082360	-2.447409	0.000100	0.001338	-0.001810	0.245263	0.007858	0.969425	0.063465	-0.997952	-0.007967	0.967377	0.063479	-0.245260
02591	9.534812	-0.065057	-2.419801	0.000100	0.001337	-0.001810	0.245271	0.007856	0.969423	0.063468	-0.997952	-0.007971	0.967375	0.063482	-0.245267
02592	9.535666	-0.102293	-2.439332	0.001939	0.002386	-0.002227	0.245267	0.007857	0.969424	0.063487	-0.997951	-0.007974	0.967375	0.063502	-0.245263
02593	9.503613	-0.072047	-2.406825	0.000100	0.001337	-0.001810	0.245274	0.007854	0.969422	0.063490	-0.997951	-0.007978	0.967373	0.063505	-0.245270
02594	9.543912	-0.097760	-2.416324	0.000469	0.002813	-0.002067	0.245267	0.007853	0.969424	0.063497	-0.997950	-0.007980	0.967374	0.063512	-0.245263
02595	9.511879	-0.067497	-2.383729	0.000469	0.002813	-0.002067	0.245260	0.007853	0.969426	0.063503	-0.997950	-0.007982	0.967375	0.063519	-0.245256
02596	9.532872	-0.117658	-2.408067	-0.001371	0.001765	-0.001650	0.245263	0.007848	0.969425	0.063490	-0.997951	-0.007984	0.967375	0.063507	-0.245258
02597	9.535143	-0.063894	-2.418529	-0.001271	0.003102	-0.003460	0.245252	0.007861	0.969428	0.063483	-0.997951	-0.007968	0.967379	0.063496	-0.245248
02598	9.512053	-0.066684	-2.383057	-0.001640	0.001627	-0.003204	0.245255	0.007872	0.969427	0.063472	-0.997952	-0.007954	0.967379	0.063482	-0.245252
02599	9.544185	-0.096419	-2.415299	-0.002009	0.000151	-0.002947	0.245273	0.007882	0.969422	0.063457	-0.997953	-0.007941	0.967375	0.063464	-0.245271
02600	9.535268	-0.062936	-2.418060	-0.001002	0.003241	-0.001907	0.245261	0.007879	0.969425	0.063447	-0.997954	-0.007941	0.967379	0.063455	-0.245259
02601	9.525013	-0.120254	-2.429658	0.000300	0.004012	-0.005430	0.245240	0.007911	0.969430	0.063460	-0.997953	-0.007910	0.967383	0.063460	-0.245240
02602	9.527281	-0.066512	-2.440105	0.001840	0.001048	-0.000417	0.245250	0.007895	0.969428	0.063475	-0.997952	-0.007931	0.967380	0.063479	-0.245249
02603	9.532454	-0.078301	-2.386848	-0.002473	0.003668	-0.001747	0.245235	0.007891	0.969432	0.063452	-0.997953	-0.007929	0.967385	0.063457	-0.245234
02604	9.536376	-0.099343	-2.436677	0.001671	0.002248	-0.003780	0.245232	0.007907	0.969432	0.063474	-0.997952	-0.007917	0.967384	0.063476	-0.245231
02605	9.524451	-0.081963	-2.408957	0.000469	0.002813	-0.002067	0.245224	0.007906	0.969434	0.063481	-0.997952	-0.007919	0.967386	0.063482	-0.245224
02606	9.516363	-0.085897	-2.431400	-0.000169	0.001199	-0.003364	0.245233	0.007919	0.969432	0.063484	-0.997952	-0.007907	0.967383	0.063483	-0.245233
02607	9.516414	-0.085642	-2.431208	0.000469	0.002813	-0.002067	0.245226	0.007919	0.969434	0.063491	-0.997951	-0.007909	0.967385	0.063490	-0.245226
02608	9.524614	-0.081123	-2.408340	0.001402	0.002109	-0.005334	0.245223	0.007951	0.969434	0.063515	-0.997950	-0.007882	0.967384	0.063506	-0.245225
02609	9.532829	-0.076651	-2.385404	-0.003676	0.004233	-0.000033	0.245203	0.007929	0.969439	0.063476	-0.997952	-0.007893	0.967391	0.063472	-0.245204
02610	9.524754	-0.080642	-2.407801	0.001302	0.000772	-0.003524	0.245214	0.007944	0.969436	0.063493	-0.997951	-0.007883	0.967387	0.063486	-0.245216
02611	9.516677	-0.084721	-2.430211	-0.001936	0.003944	0.001361	0.245198	0.007908	0.969441	0.063468	-0.997953	-0.007912	0.967393	0.063469	-0.245198
02612	9.513717	-0.100678	-2.399549	-0.001640	0.001626	-0.003204	0.245200	0.007919	0.969440	0.063457	-0.997953	-0.007898	0.967394	0.063454	-0.245201
02613	9.524912	-0.080154	-2.407192	0.001571	0.000910	-0.001970	0.245211	0.007918	0.969437	0.063474	-0.997952	-0.007904	0.967390	0.063472	-0.245212
02614	9.521935	-0.096064	-2.376596	-0.001002	0.003240	-0.001907	0.245199	0.007915	0.969440	0.063466	-0.997953	-0.007904	0.967393	0.063465	-0.245200
02615	9.513894	-0.100050	-2.398873	0.000837	0.004289	-0.002323	0.245178	0.007916	0.969446	0.063477	-0.997952	-0.007905	0.967398	0.063476	-0.245178
02616	9.528166	-0.063478	-2.436726	-0.002842	0.002192	-0.001490	0.245178	0.007910	0.969446	0.063450	-0.997954	-0.007904	0.967399	0.063449	-0.245179
02617	9.556510	-0.072016	-2.418620	0.000837	0.004289	-0.002323	0.245157	0.007911	0.969451	0.063460	-0.997953	-0.007904	0.967404	0.063459	-0.245157
02618	9.525278	-0.079108	-2.405778	0.001303	0.000772	-0.003523	0.245169	0.007926	0.969448	0.063479	-0.997952	-0.007895	0.967400	0.063475	-0.245170
02619	9.537353	-0.096045	-2.432983	-0.000365	0.004854	-0.000609	0.245143	0.007909	0.969455	0.063474	-0.997952	-0.007909	0.967407	0.063474	-0.245143
02620	9.497183	-0.070044	-2.422926	-0.001002	0.003240	-0.001907	0.245130	0.007906	0.969458	0.063464	-0.997953	-0.007908	0.967411	0.063464	-0.245130
02621	9.514324	-0.098886	-2.397217	-0.000268	-0.000138	-0.001554	0.245152	0.007902	0.969453	0.063462	-0.997953	-0.007913	0.967405	0.063463	-0.245151
02622	9.536695	-0.058072	-2.412547	0.000569	0.004151	-0.003876	0.245131	0.007919	0.969458	0.063474	-0.997952	-0.007898	0.967410	0.063472	-0.245132
02623	9.506317	-0.102559	-2.419402	0.000100	0.001337	-0.001810	0.245138	0.007916	0.969456	0.063477	-0.997952	-0.007902	0.967408	0.063475	-0.245138
02624	9.537662	-0.094932	-2.431817	-0.004581	0.002480	-0.002885	0.245135	0.007924	0.969457	0.063434	-0.997955	-0.007883	0.967411	0.063429	-0.245136
02625	9.525702	-0.077633	-2.404147	0.005150	0.001671	-0.000991	0.245139	0.007913	0.969456	0.063483	-0.997952	-0.007907	0.967407	0.063483	-0.245139
02626	9.506506	-0.101912	-2.418687	-0.003844	0.005431	-0.003397	0.245105	0.007924	0.969464	0.063453	-0.997954	-0.007886	0.967418	0.063448	-0.245106
02627	9.505717	-0.064226	-2.398724	-0.000268	-0.000138	-0.001554	0.245126	0.007920	0.969459	0.063451	-0.997954	-0.007891	0.967413	0.063447	-0.245127
02628	9.526755	-0.114365	-2.423104	-0.002473	0.003667	-0.001747	0.245110	0.007914	0.969463	0.063429	-0.997955	-0.007890	0.967418	0.063426	-0.245111
02629	9.497712	-0.068031	-2.420909	0.001940	0.002386	-0.002225	0.245106	0.007916	0.969464	0.063450	-0.997954	-0.007894	0.967418	0.063447	-0.245107
02630	9.538064	-0.093692	-2.430285	-0.002473	0.003667	-0.001747	0.245091	0.007911	0.969468	0.063427	-0.997955	-0.007892	0.967423	0.063425	-0.245092
02631	9.517981	-0.080499	-2.425242	0.001303	0.000772	-0.003523	0.245102	0.007926	0.969465	0.063445	-0.997954	-0.007882	0.967419	0.063440	-0.245104
02632	9.526123	-0.076136	-2.402526	-0.002942	0.000854	0.000319	0.245117	0.007903	0.969461	0.063411	-0.997956	-0.007898	0.967417	0.063411	-0.245118
02633	9.523123	-0.091894	-2.371997	0.001135	0.001971	-0.006886	0.245115	0.007951	0.969461	0.063436	-0.997955	-0.007855	0.967416	0.063424	-0.245118
02634	9.510016	-0.083815	-2.447307	-0.003308	0.005708	-0.000290	0.245082	0.007930	0.969470	0.063403	-0.997957	-0.007866	0.967427	0.063395	-0.245084
02635	9.510060	-0.083625	-2.447141	0.000567	-0.002179	-0.003011	0.245123	0.007942	0.969460	0.063413	-0.997956	-0.007859	0.967416	0.063402	-0.245125
02636	9.535294	-0.108300	-2.398898	0.000737	0.002952	-0.000512	0.245115	0.007925	0.969462	0.063417	-0.997956	-0.007876	0.967418	0.063411	-0.245117
02637	9.518241	-0.079028	-2.424272	-0.000436	0.001061	-0.004917	0.245123	0.007954	0.969459	0.063422	-0.997956	-0.007848	0.967415	0.063409	-0.245127
02638	9.546562	-0.087352	-2.406233	0.002040	0.003724	-0.004035	0.245105	0.007972	0.969464	0.063447	-0.997954	-0.007834	0.967418	0.063430	-0.245110
02639	9.526483	-0.074177	-2.401162	0.000100	0.001337	-0.001810	0.245112	0.007970	0.969462	0.063449	-0.997954	-0.007838	0.967416	0.063433	-0.245117
02640	9.530428	-0.095391	-2.451137	0.000368	0.001476	-0.000256	0.245119	0.007952	0.969460	0.063449	-0.997954	-0.007857	0.967415	0.063438	-0.245122
02641	9.538623	-0.090915	-2.428195	-0.002641	0.004866	-0.005110	0.245090	0.007980	0.969468	0.063433	-0.997955	-0.007822	0.967423	0.063413	-0.245095
02642	9.526658	-0.073548	-2.400484	0.004782	0.000196	-0.000734	0.245109	0.007967	0.969463	0.063482	-0.997952	-0.007849	0.967415	0.063467	-0.245113
02643	9.507437	-0.097937	-2.415186	-0.002474	0.003666	-0.001747	0.245093	0.007962	0.969467	0.063459	-0.997954	-0.007847	0.967420	0.063444	-0.245097
02644	9.518670	-0.077368	-2.422640	0.000201	0.002675	-0.003619	0.245087	0.007977	0.969468	0.063466	-0.997953	-0.007833	0.967421	0.063448	-0.245092
02645	9.535839	-0.106129	-2.396828	0.001940	0.002387	-0.002225	0.245084	0.007978	0.969469	0.063487	-0.997952	-0.007837	0.967421	0.063470	-0.245089
02646	9.507644	-0.097073	-2.414410	-0.000067	0.002536	-0.005173	0.245078	0.008008	0.969470	0.063498	-0.997951	-0.007809	0.967422	0.063473	-0.245084
02647	9.538996	-0.089285	-2.426790	-0.001639	0.001625	-0.003204	0.245081	0.008019	0.969469	0.063486	-0.997952	-0.007794	0.967422	0.063458	-0.245088
02648	9.506859	-0.059010	-2.394328	0.003411	0.001960	-0.002384	0.245083	0.008022	0.969469	0.063523	-0.997950	-0.007801	0.967419	0.063495	-0.245090
02649	9.550212	-0.068745	-2.434301	-0.003043	-0.000484	0.002128	0.245111	0.007982	0.969462	0.063485	-0.997952	-0.007835	0.967414	0.063467	-0.245115
02650	9.527076	-0.071952	-2.398875	-0.000367	0.004854	-0.000609	0.245084	0.007965	0.969469	0.063479	-0.997952	-0.007849	0.967421	0.063465	-0.245088
02651	9.499774	-0.100443	-2.436139	0.001304	0.000772	-0.003522	0.245096	0.007980	0.969466	0.063497	-0.997951	-0.007839	0.967417	0.063480	-0.245100
02652	9.538323	-0.051241	-2.406258	0.000100	0.001337	-0.001810	0.245103	0.007977	0.969464	0.063500	-0.997951	-0.007843	0.967415	0.063483	-0.245108
02653	9.527211	-0.071349	-2.398358	-0.001371	0.001764	-0.001650	0.245106	0.007973	0.969463	0.063488	-0.997952	-0.007844	0.967415	0.063472	-0.245110
02654	9.520039	-0.112665	-2.440535	-0.003110	0.002052	-0.003045	0.245105	0.007982	0.969464	0.063462	-0.997954	-0.007828	0.967417	0.063443	-0.245110
02655	9.527276	-0.070745	-2.398115	0.000936	-0.000703	-0.003266	0.245131	0.007996	0.969457	0.063476	-0.997953	-0.007819	0.967410	0.063454	-0.245137
02656	9.516176	-0.090702	-2.390179	-0.000902	0.004577	-0.003716	0.245107	0.008010	0.969463	0.063474	-0.997953	-0.007803	0.967416	0.063448	-0.245114
02657	9.519270	-0.074430	-2.420376	0.001471	-0.000426	-0.000159	0.245132	0.007992	0.969457	0.063486	-0.997952	-0.007826	0.967409	0.063465	-0.245138
02658	9.538552	-0.049708	-2.405382	-0.000067	0.002536	-0.005172	0.245126	0.008022	0.969458	0.063495	-0.997952	-0.007797	0.967410	0.063467	-0.245133
02659	9.517219	-0.127347	-2.409340	0.000468	0.002813	-0.002065	0.245119	0.008021	0.969460	0.063502	-0.997951	-0.007799	0.967411	0.063474	-0.245126
02660	9.539554	-0.086586	-2.424693	-0.001739	0.000288	-0.001394	0.245137	0.008015	0.969455	0.063487	-0.997952	-0.007803	0.967408	0.063460	-0.245144
02661	9.528438	-0.106684	-2.416828	-0.002842	0.002190	-0.001491	0.245136	0.008009	0.969456	0.063460	-0.997954	-0.007802	0.967410	0.063434	-0.245143
02662	9.499325	-0.060302	-2.414776	-0.000167	0.001199	-0.003363	0.245145	0.008022	0.969453	0.063462	-0.997954	-0.007789	0.967407	0.063433	-0.245153
02663	9.528519	-0.106082	-2.416534	-0.001638	0.001625	-0.003204	0.245149	0.008034	0.969452	0.063451	-0.997955	-0.007775	0.967407	0.063418	-0.245157
02664	9.519569	-0.072614	-2.419252	0.000468	0.002813	-0.002065	0.245143	0.008033	0.969454	0.063456	-0.997954	-0.007777	0.967408	0.063425	-0.245151
02665	9.519607	-0.072357	-2.419111	-0.002006	0.000149	-0.002948	0.245160	0.008043	0.969449	0.063441	-0.997955	-0.007764	0.967405	0.063407	-0.245169
02666	9.520550	-0.109497	-2.438688	0.000468	0.002813	-0.002065	0.245154	0.008042	0.969451	0.063447	-0.997955	-0.007766	0.967406	0.063412	-0.245162
02667	9.527816	-0.067719	-2.396058	0.000468	0.002813	-0.002065	0.245146	0.008041	0.969453	0.063453	-0.997955	-0.007768	0.967407	0.063419	-0.245155
02668	9.519766	-0.071737	-2.418505	0.000100	0.001337	-0.001809	0.245153	0.008038	0.969451	0.063455	-0.997954	-0.007772	0.967406	0.063422	-0.245161
02669	9.539972	-0.084467	-2.423125	0.000468	0.002813	-0.002065	0.245145	0.008037	0.969453	0.063462	-0.997954	-0.007774	0.967407	0.063429	-0.245154
02670	9.500624	-0.095871	-2.433008	0.000101	0.001337	-0.001809	0.245153	0.008035	0.969451	0.063465	-0.997954	-0.007778	0.967405	0.063433	-0.245161
02671	9.524980	-0.083095	-2.364854	-0.001003	0.003239	-0.001906	0.245142	0.008032	0.969454	0.063457	-0.997954	-0.007778	0.967408	0.063425	-0.245150
02672	9.519989	-0.070942	-2.417650	0.003144	0.001823	-0.003937	0.245143	0.008050	0.969453	0.063492	-0.997952	-0.007768	0.967406	0.063457	-0.245152
02673	9.548248	-0.079432	-2.399810	-0.000635	-0.001614	-0.001298	0.245179	0.008045	0.969444	0.063486	-0.997952	-0.007775	0.967397	0.063453	-0.245188
02674	9.520009	-0.070561	-2.417582	0.000468	0.002813	-0.002065	0.245171	0.008043	0.969447	0.063495	-0.997952	-0.007778	0.967398	0.063461	-0.245179
02675	9.520124	-0.070340	-2.417134	-0.001739	0.006617	-0.002258	0.245127	0.008042	0.969458	0.063480	-0.997953	-0.007772	0.967411	0.063447	-0.245135
02676	9.500976	-0.094552	-2.431683	0.001305	0.000773	-0.003522	0.245141	0.008057	0.969454	0.063499	-0.997952	-0.007763	0.967406	0.063463	-0.245150
02677	9.548501	-0.078441	-2.398836	-0.001638	0.001625	-0.003204	0.245144	0.008068	0.969453	0.063488	-0.997953	-0.007749	0.967406	0.063448	-0.245154
02678	9.532372	-0.086639	-2.443892	-0.000736	0.003378	-0.000352	0.245133	0.008050	0.969456	0.063480	-0.997953	-0.007765	0.967409	0.063445	-0.245143
02679	9.540543	-0.082322	-2.420950	0.000468	0.002813	-0.002065	0.245126	0.008049	0.969458	0.063487	-0.997952	-0.007767	0.967410	0.063451	-0.245135
02680	9.509288	-0.089470	-2.408221	0.001305	0.000773	-0.003522	0.245137	0.008064	0.969455	0.063503	-0.997952	-0.007757	0.967406	0.063465	-0.245147
02681	9.532555	-0.085923	-2.443201	-0.004213	0.003952	-0.003142	0.245118	0.008073	0.969460	0.063467	-0.997954	-0.007737	0.967414	0.063425	-0.245129
02682	9.540735	-0.081585	-2.420219	0.001003	0.003090	0.001042	0.245110	0.008041	0.969462	0.063471	-0.997953	-0.007770	0.967415	0.063437	-0.245118
02683	9.540794	-0.081420	-2.419990	0.002877	0.001684	-0.005489	0.245111	0.008075	0.969461	0.063509	-0.997951	-0.007745	0.967413	0.063468	-0.245122
02684	9.512588	-0.072473	-2.437655	-0.001104	0.001902	-0.000097	0.245112	0.008055	0.969461	0.063496	-0.997952	-0.007762	0.967413	0.063459	-0.245122
02685	9.537830	-0.097170	-2.389272	0.000101	0.001337	-0.001809	0.245120	0.008052	0.969459	0.063498	-0.997952	-0.007766	0.967411	0.063462	-0.245129
02686	9.512679	-0.072116	-2.437311	0.000201	0.002675	-0.003618	0.245111	0.008067	0.969461	0.063503	-0.997952	-0.007751	0.967413	0.063464	-0.245121
02687	9.520837	-0.067654	-2.414401	0.000468	0.002813	-0.002065	0.245104	0.008067	0.969463	0.063510	-0.997951	-0.007753	0.967414	0.063471	-0.245114
02688	9.541990	-0.117763	-2.438708	-0.001371	0.001763	-0.001650	0.245106	0.008062	0.969463	0.063496	-0.997952	-0.007754	0.967415	0.063457	-0.245116
02689	9.541095	-0.080185	-2.418845	0.000101	0.001337	-0.001809	0.245113	0.008060	0.969461	0.063498	-0.997952	-0.007758	0.967413	0.063460	-0.245123
02690	9.541123	-0.079948	-2.418744	0.001305	0.000773	-0.003521	0.245125	0.008074	0.969458	0.063517	-0.997951	-0.007748	0.967408	0.063477	-0.245136
02691	9.512927	-0.070984	-2.436374	-0.002475	0.003665	-0.001747	0.245110	0.008070	0.969462	0.063495	-0.997952	-0.007746	0.967414	0.063454	-0.245120
02692	9.521077	-0.066586	-2.413487	0.000101	0.001337	-0.001809	0.245117	0.008067	0.969460	0.063498	-0.997952	-0.007751	0.967412	0.063459	-0.245127
02693	9.542223	-0.116690	-2.437845	-0.002842	0.002189	-0.001492	0.245116	0.008061	0.969460	0.063471	-0.997954	-0.007750	0.967414	0.063432	-0.245126
02694	9.513084	-0.070342	-2.435779	0.003144	0.001823	-0.003935	0.245119	0.008080	0.969459	0.063507	-0.997951	-0.007740	0.967411	0.063465	-0.245130
02695	9.533313	-0.082986	-2.440344	-0.001003	0.003239	-0.001906	0.245108	0.008077	0.969462	0.063499	-0.997952	-0.007740	0.967414	0.063457	-0.245119
02696	9.518230	-0.081789	-2.382310	-0.003210	0.000713	-0.001236	0.245121	0.008069	0.969459	0.063467	-0.997954	-0.007741	0.967413	0.063426	-0.245132
02697	9.522286	-0.102733	-2.432194	0.000302	0.004012	-0.005427	0.245100	0.008101	0.969464	0.063480	-0.997953	-0.007710	0.967417	0.063432	-0.245113
02698	9.533463	-0.082120	-2.439788	0.002676	-0.000990	-0.001871	0.245131	0.008101	0.969456	0.063508	-0.997951	-0.007719	0.967408	0.063460	-0.245143
02699	9.538518	-0.093870	-2.386659	0.000468	0.002813	-0.002064	0.245123	0.008100	0.969458	0.063514	-0.997951	-0.007721	0.967409	0.063467	-0.245135
02700	9.533503	-0.081809	-2.439643	-0.000634	-0.001615	-0.001298	0.245159	0.008093	0.969449	0.063511	-0.997951	-0.007730	0.967400	0.063465	-0.245171
02701	9.510299	-0.084853	-2.404390	0.000468	0.002813	-0.002064	0.245152	0.008093	0.969451	0.063517	-0.997951	-0.007732	0.967402	0.063472	-0.245164
02702	9.533570	-0.081391	-2.439394	-0.000166	0.001199	-0.003362	0.245160	0.008106	0.969449	0.063521	-0.997951	-0.007720	0.967399	0.063472	-0.245173
02703	9.521521	-0.063962	-2.411805	-0.001638	0.001624	-0.003204	0.245163	0.008117	0.969448	0.063509	-0.997951	-0.007705	0.967399	0.063458	-0.245177
02704	9.525550	-0.084998	-2.461822	-0.001738	0.000287	-0.001395	0.245182	0.008111	0.969443	0.063493	-0.997952	-0.007709	0.967396	0.063443	-0.245195
02705	9.507415	-0.099919	-2.373370	0.000836	0.004289	-0.002320	0.245160	0.008112	0.969449	0.063504	-0.997952	-0.007709	0.967401	0.063454	-0.245173
02706	9.521699	-0.063302	-2.411119	-0.002475	0.003664	-0.001747	0.245143	0.008106	0.969453	0.063483	-0.997953	-0.007708	0.967406	0.063433	-0.245156
02707	9.522689	-0.100527	-2.430710	0.002676	-0.000990	-0.001871	0.245173	0.008106	0.969446	0.063510	-0.997951	-0.007717	0.967397	0.063462	-0.245185
02708	9.530743	-0.096112	-2.408168	-0.002372	-0.001328	-0.002693	0.245205	0.008114	0.969437	0.063490	-0.997953	-0.007706	0.967390	0.063439	-0.245218
02709	9.502513	-0.087175	-2.425947	0.000468	0.002813	-0.002064	0.245198	0.008113	0.969439	0.063497	-0.997952	-0.007708	0.967392	0.063446	-0.245211
02710	9.541960	-0.075383	-2.415586	0.001940	0.002388	-0.002223	0.245194	0.008114	0.969440	0.063519	-0.997951	-0.007713	0.967391	0.063469	-0.245207
02711	9.522800	-0.099635	-2.430310	-0.001637	0.001624	-0.003204	0.245198	0.008125	0.969439	0.063508	-0.997952	-0.007699	0.967391	0.063455	-0.245211
02712	9.530922	-0.095164	-2.407498	-0.001371	0.001763	-0.001650	0.245200	0.008121	0.969439	0.063494	-0.997953	-0.007700	0.967391	0.063441	-0.245213
02713	9.522919	-0.099171	-2.429862	0.000836	0.004289	-0.002319	0.245178	0.008122	0.969444	0.063504	-0.997952	-0.007700	0.967396	0.063452	-0.245191
02714	9.518988	-0.077686	-2.379417	0.000468	0.002813	-0.002064	0.245170	0.008121	0.969446	0.063510	-0.997951	-0.007702	0.967398	0.063458	-0.245184
02715	9.523018	-0.098750	-2.429493	0.000571	-0.002179	-0.003010	0.245211	0.008132	0.969436	0.063520	-0.997951	-0.007695	0.967387	0.063466	-0.245225
02716	9.502850	-0.085645	-2.424681	0.001940	0.002388	-0.002223	0.245207	0.008133	0.969437	0.063542	-0.997949	-0.007700	0.967386	0.063489	-0.245221
02717	9.534199	-0.077981	-2.437046	-0.000166	0.001198	-0.003362	0.245215	0.008146	0.969435	0.063546	-0.997949	-0.007688	0.967384	0.063489	-0.245229
02718	9.519095	-0.076661	-2.379020	0.000202	0.002674	-0.003618	0.245209	0.008161	0.969436	0.063554	-0.997949	-0.007675	0.967385	0.063494	-0.245225
02719	9.523176	-0.097690	-2.428915	-0.001371	0.001762	-0.001650	0.245212	0.008156	0.969435	0.063542	-0.997950	-0.007676	0.967385	0.063482	-0.245228
02720	9.511112	-0.080267	-2.401329	-0.000432	0.001060	-0.004916	0.245219	0.008185	0.969433	0.063546	-0.997950	-0.007648	0.967383	0.063479	-0.245237
02721	9.514201	-0.063995	-2.431590	0.000634	0.001615	0.001298	0.245226	0.008152	0.969432	0.063546	-0.997949	-0.007683	0.967381	0.063487	-0.245241
02722	9.531371	-0.092857	-2.405807	-0.004581	0.002474	-0.002887	0.245221	0.008159	0.969433	0.063506	-0.997952	-0.007665	0.967385	0.063444	-0.245237
02723	9.511202	-0.079646	-2.400996	0.000572	-0.002179	-0.003010	0.245262	0.008171	0.969423	0.063516	-0.997951	-0.007658	0.967374	0.063452	-0.245278
02724	9.523334	-0.096573	-2.428341	0.001102	0.004428	-0.000766	0.245240	0.008155	0.969428	0.063527	-0.997951	-0.007675	0.967379	0.063467	-0.245256
02725	9.511294	-0.079311	-2.400640	0.001306	0.000773	-0.003520	0.245252	0.008170	0.969425	0.063545	-0.997950	-0.007665	0.967375	0.063482	-0.245268
02726	9.523437	-0.096063	-2.427959	-0.003109	0.002049	-0.003045	0.245251	0.008180	0.969425	0.063518	-0.997951	-0.007649	0.967376	0.063452	-0.245268
02727	9.499285	-0.061694	-2.372818	0.000734	0.002952	-0.000510	0.245244	0.008163	0.969427	0.063523	-0.997951	-0.007666	0.967378	0.063461	-0.245260
02728	9.523565	-0.095768	-2.427466	0.001940	0.002388	-0.002222	0.245241	0.008164	0.969428	0.063544	-0.997950	-0.007671	0.967377	0.063483	-0.245256
02729	9.511535	-0.078400	-2.399714	-0.004213	0.003950	-0.003142	0.245222	0.008174	0.969433	0.063508	-0.997952	-0.007651	0.967385	0.063443	-0.245238
02730	9.542887	-0.070692	-2.412063	-0.000266	-0.000139	-0.001553	0.245244	0.008169	0.969427	0.063506	-0.997952	-0.007656	0.967379	0.063442	-0.245260
02731	9.523725	-0.094882	-2.426872	-0.000065	0.002536	-0.005171	0.245237	0.008200	0.969428	0.063515	-0.997952	-0.007626	0.967380	0.063444	-0.245255
02732	9.523754	-0.094723	-2.426764	0.001738	-0.000286	0.001395	0.245264	0.008167	0.969422	0.063524	-0.997951	-0.007665	0.967373	0.063462	-0.245280
02733	9.514712	-0.061537	-2.429650	0.000101	0.001337	-0.001809	0.245271	0.008164	0.969420	0.063526	-0.997951	-0.007668	0.967371	0.063465	-0.245287
02734	9.523821	-0.094702	-2.426502	0.001001	0.003091	0.001043	0.245261	0.008132	0.969423	0.063528	-0.997950	-0.007701	0.967373	0.063474	-0.245275
02735	9.522915	-0.057257	-2.406462	-0.002475	0.003663	-0.001747	0.245246	0.008128	0.969427	0.063505	-0.997952	-0.007699	0.967379	0.063452	-0.245260
02736	9.524001	-0.094360	-2.425810	0.000569	0.004150	-0.003872	0.245224	0.008144	0.969432	0.063518	-0.997951	-0.007684	0.967383	0.063461	-0.245239
02737	9.524069	-0.094152	-2.425553	-0.004415	0.001275	0.000475	0.245233	0.008119	0.969430	0.063471	-0.997954	-0.007699	0.967384	0.063419	-0.245247
02738	9.515065	-0.060994	-2.428283	0.001000	0.003091	0.001043	0.245226	0.008087	0.969432	0.063474	-0.997954	-0.007732	0.967386	0.063430	-0.245237
02739	9.555474	-0.086658	-2.437684	0.001307	0.000773	-0.003520	0.245237	0.008102	0.969429	0.063493	-0.997952	-0.007722	0.967382	0.063445	-0.245249
02740	9.488849	-0.079929	-2.362389	0.001674	0.002250	-0.003775	0.245233	0.008118	0.969430	0.063515	-0.997951	-0.007711	0.967381	0.063465	-0.245247
02741	9.532341	-0.089313	-2.402098	-0.001004	0.003238	-0.001905	0.245222	0.008115	0.969433	0.063507	-0.997952	-0.007711	0.967385	0.063457	-0.245235
02742	9.535476	-0.072934	-2.432203	0.000202	0.002674	-0.003617	0.245215	0.008130	0.969435	0.063515	-0.997951	-0.007697	0.967386	0.063461	-0.245228
02743	9.512282	-0.075910	-2.396835	0.000101	0.001337	-0.001808	0.245222	0.008127	0.969433	0.063518	-0.997951	-0.007701	0.967384	0.063464	-0.245235
02744	9.524444	-0.092889	-2.424129	-0.001105	0.001901	-0.000097	0.245225	0.008107	0.969432	0.063504	-0.997952	-0.007718	0.967384	0.063455	-0.245237
02745	9.481088	-0.082975	-2.383883	0.000303	0.004012	-0.005425	0.245204	0.008139	0.969437	0.063517	-0.997951	-0.007687	0.967389	0.063461	-0.245218
02746	9.544730	-0.105253	-2.428536	0.001105	-0.001901	0.000097	0.245244	0.008120	0.969428	0.063523	-0.997951	-0.007711	0.967378	0.063472	-0.245257
02747	9.523577	-0.054816	-2.403900	-0.000903	0.004575	-0.003714	0.245218	0.008134	0.969434	0.063520	-0.997951	-0.007694	0.967385	0.063465	-0.245232
02748	9.524660	-0.092004	-2.423312	-0.001105	0.001901	-0.000097	0.245222	0.008114	0.969433	0.063506	-0.997952	-0.007711	0.967385	0.063456	-0.245235
02749	9.496463	-0.083226	-2.441009	-0.001371	0.001762	-0.001650	0.245225	0.008110	0.969432	0.063494	-0.997952	-0.007713	0.967385	0.063444	-0.245238
02750	9.552974	-0.100373	-2.405171	-0.001738	0.000286	-0.001395	0.245243	0.008104	0.969428	0.063477	-0.997953	-0.007716	0.967381	0.063429	-0.245255
02751	9.487446	-0.049685	-2.443774	0.000101	0.001337	-0.001808	0.245250	0.008102	0.969426	0.063480	-0.997953	-0.007719	0.967379	0.063432	-0.245262
02752	9.545009	-0.104221	-2.427485	0.000835	0.004289	-0.002318	0.245230	0.008102	0.969431	0.063490	-0.997953	-0.007720	0.967384	0.063443	-0.245242
02753	9.504739	-0.078179	-2.417520	-0.004213	0.003949	-0.003143	0.245211	0.008111	0.969436	0.063454	-0.997955	-0.007700	0.967391	0.063403	-0.245224
02754	9.516894	-0.094919	-2.444883	0.000573	-0.002178	-0.003010	0.245250	0.008123	0.969426	0.063462	-0.997955	-0.007693	0.967380	0.063408	-0.245264
02755	9.536091	-0.070301	-2.429865	-0.001944	0.003940	0.001360	0.245234	0.008087	0.969430	0.063437	-0.997956	-0.007722	0.967386	0.063391	-0.245246
02756	9.501776	-0.093669	-2.386753	0.001041	0.000635	-0.005073	0.245246	0.008118	0.969427	0.063455	-0.997955	-0.007696	0.967382	0.063403	-0.245260
02757	9.525066	-0.090095	-2.421789	-0.002842	0.002187	-0.001492	0.245245	0.008112	0.969427	0.063428	-0.997957	-0.007696	0.967384	0.063376	-0.245258
02758	9.525105	-0.089915	-2.421642	0.001573	0.000913	-0.001966	0.245257	0.008111	0.969424	0.063446	-0.997956	-0.007702	0.967380	0.063395	-0.245271
02759	9.516069	-0.056560	-2.424452	-0.001371	0.001762	-0.001650	0.245261	0.008107	0.969423	0.063434	-0.997956	-0.007703	0.967380	0.063383	-0.245274
02760	9.525173	-0.089575	-2.421387	0.001573	0.000913	-0.001966	0.245273	0.008106	0.969420	0.063452	-0.997955	-0.007710	0.967375	0.063402	-0.245285
02761	9.513097	-0.072226	-2.393711	-0.004213	0.003948	-0.003143	0.245254	0.008115	0.969425	0.063416	-0.997958	-0.007690	0.967383	0.063363	-0.245267
02762	9.517242	-0.093154	-2.443595	0.001307	0.000774	-0.003519	0.245266	0.008130	0.969422	0.063434	-0.997956	-0.007680	0.967378	0.063378	-0.245280
02763	9.494067	-0.096194	-2.408120	-0.003315	0.005702	-0.000291	0.245231	0.008109	0.969431	0.063400	-0.997959	-0.007690	0.967389	0.063348	-0.245245
02764	9.525436	-0.088543	-2.420389	0.000941	-0.000702	-0.003265	0.245256	0.008122	0.969424	0.063415	-0.997958	-0.007682	0.967382	0.063360	-0.245270
02765	9.533518	-0.084012	-2.397613	-0.001269	0.003099	-0.003458	0.245245	0.008135	0.969427	0.063408	-0.997958	-0.007666	0.967385	0.063350	-0.245260
02766	9.525542	-0.087947	-2.419994	0.000468	0.002813	-0.002063	0.245236	0.008133	0.969429	0.063416	-0.997958	-0.007670	0.967387	0.063358	-0.245251
02767	9.505397	-0.074916	-2.415033	0.001573	0.000913	-0.001966	0.245247	0.008133	0.969426	0.063433	-0.997957	-0.007675	0.967383	0.063376	-0.245262
02768	9.536768	-0.067208	-2.427294	0.000569	0.004151	-0.003871	0.245226	0.008149	0.969432	0.063443	-0.997956	-0.007659	0.967388	0.063382	-0.245242
02769	9.514570	-0.107600	-2.411732	-0.000632	-0.001615	-0.001299	0.245262	0.008144	0.969423	0.063437	-0.997956	-0.007666	0.967379	0.063378	-0.245278
02770	9.545894	-0.099980	-2.424177	0.000468	0.002813	-0.002063	0.245258	0.008143	0.969424	0.063445	-0.997956	-0.007669	0.967380	0.063386	-0.245273
02771	9.497532	-0.078280	-2.437009	0.000468	0.002813	-0.002063	0.245250	0.008142	0.969426	0.063451	-0.997955	-0.007671	0.967381	0.063392	-0.245266
02772	9.545001	-0.062219	-2.403916	0.000468	0.002813	-0.002063	0.245272	0.007910	0.969422	0.063404	-0.997957	-0.007899	0.967379	0.063402	-0.245273
02773	9.525915	-0.086475	-2.418577	-0.001269	0.003099	-0.003458	0.245261	0.007923	0.969425	0.063397	-0.997957	-0.007883	0.967382	0.063392	-0.245263
02774	9.502707	-0.089462	-2.383205	0.000101	0.001337	-0.001808	0.245269	0.007920	0.969423	0.063399	-0.997957	-0.007887	0.967380	0.063395	-0.245270
02775	9.526010	-0.086030	-2.418220	-0.001371	0.001762	-0.001650	0.245272	0.007916	0.969422	0.063387	-0.997958	-0.007888	0.967380	0.063383	-0.245273
02776	9.526072	-0.085832	-2.417983	-0.001004	0.003238	-0.001905	0.245260	0.007913	0.969425	0.063379	-0.997958	-0.007889	0.967383	0.063376	-0.245261
02777	9.535210	-0.118671	-2.414839	-0.000429	0.001059	-0.004915	0.245268	0.007942	0.969423	0.063383	-0.997958	-0.007861	0.967381	0.063373	-0.245270
02778	9.514025	-0.068245	-2.390138	0.000999	0.003091	0.001044	0.245260	0.007909	0.969425	0.063389	-0.997958	-0.007895	0.967383	0.063387	-0.245260
02779	9.518199	-0.089512	-2.440002	0.003412	0.001965	-0.002378	0.245260	0.007912	0.969425	0.063424	-0.997955	-0.007902	0.967380	0.063423	-0.245261
02780	9.517162	-0.051981	-2.420261	-0.000632	-0.001615	-0.001299	0.245296	0.007906	0.969416	0.063418	-0.997956	-0.007909	0.967372	0.063419	-0.245296
02781	9.538387	-0.102071	-2.444826	-0.001737	0.000285	-0.001396	0.245314	0.007900	0.969412	0.063402	-0.997957	-0.007912	0.967368	0.063403	-0.245313
02782	9.534298	-0.080611	-2.394624	-0.001371	0.001761	-0.001650	0.245318	0.007894	0.969411	0.063391	-0.997957	-0.007915	0.967368	0.063393	-0.245317
02783	9.526314	-0.084633	-2.417071	0.000468	0.002813	-0.002063	0.245310	0.007893	0.969412	0.063397	-0.997957	-0.007917	0.967369	0.063400	-0.245310
02784	9.523306	-0.100494	-2.386447	0.001675	0.002250	-0.003774	0.245306	0.007910	0.969414	0.063420	-0.997956	-0.007906	0.967369	0.063419	-0.245306
02785	9.506249	-0.071340	-2.411784	-0.000739	0.003376	-0.000352	0.245294	0.007891	0.969417	0.063410	-0.997956	-0.007921	0.967373	0.063414	-0.245293
02786	9.534538	-0.079808	-2.393697	0.001308	0.000774	-0.003519	0.245304	0.007906	0.969414	0.063428	-0.997955	-0.007912	0.967369	0.063429	-0.245304
02787	9.565914	-0.071998	-2.405933	-0.000903	0.004575	-0.003713	0.245279	0.007920	0.969420	0.063426	-0.997955	-0.007894	0.967376	0.063422	-0.245280
02788	9.510550	-0.091914	-2.461220	0.000000	0.000000	-0.000000	0.245299	0.007900	0.969415	0.063423	-0.997955	-0.007916	0.967371	0.063425	-0.245299
02789	9.526634	-0.083471	-2.415851	-0.002944	0.000848	0.000315	0.245312	0.007877	0.969412	0.063391	-0.997957	-0.007933	0.967369	0.063398	-0.245311
02790	9.526691	-0.083283	-2.415633	0.002041	0.003726	-0.004028	0.245295	0.007895	0.969416	0.063415	-0.997956	-0.007919	0.967372	0.063418	-0.245294
02791	9.514614	-0.066025	-2.387855	-0.000739	0.003376	-0.000352	0.245283	0.007877	0.969419	0.063406	-0.997956	-0.007935	0.967376	0.063413	-0.245281
02792	9.518783	-0.087198	-2.437806	-0.000265	-0.000139	-0.001553	0.245304	0.007872	0.969414	0.063403	-0.997956	-0.007939	0.967371	0.063411	-0.245301
02793	9.506645	-0.069898	-2.410267	0.001675	0.002250	-0.003773	0.245301	0.007889	0.969415	0.063425	-0.997955	-0.007928	0.967370	0.063430	-0.245299
02794	9.547099	-0.095425	-2.419614	-0.001105	0.001900	-0.000097	0.245305	0.007868	0.969414	0.063413	-0.997956	-0.007947	0.967370	0.063423	-0.245303
02795	9.518898	-0.086615	-2.437380	0.001308	0.000774	-0.003519	0.245317	0.007883	0.969411	0.063432	-0.997955	-0.007937	0.967366	0.063438	-0.245315
02796	9.538067	-0.061841	-2.422327	0.000101	0.001337	-0.001808	0.245325	0.007880	0.969409	0.063433	-0.997955	-0.007941	0.967363	0.063440	-0.245324
02797	9.518965	-0.086199	-2.437132	-0.001371	0.001761	-0.001650	0.245329	0.007876	0.969408	0.063420	-0.997955	-0.007942	0.967363	0.063429	-0.245326
02798	9.498820	-0.073160	-2.432144	0.000468	0.002813	-0.002062	0.245322	0.007874	0.969410	0.063428	-0.997955	-0.007945	0.967364	0.063437	-0.245320
02799	9.519081	-0.085901	-2.436691	-0.001106	0.001900	-0.000097	0.245325	0.007854	0.969409	0.063414	-0.997956	-0.007963	0.967365	0.063428	-0.245322
02800	9.514986	-0.064512	-2.386413	-0.001371	0.001761	-0.001650	0.245328	0.007849	0.969408	0.063403	-0.997956	-0.007965	0.967365	0.063418	-0.245324
02801	9.539344	-0.098398	-2.441238	0.000942	-0.000702	-0.003264	0.245354	0.007863	0.969402	0.063417	-0.997955	-0.007957	0.967357	0.063429	-0.245351
02802	9.506996	-0.068250	-2.408929	0.000468	0.002813	-0.002062	0.245347	0.007861	0.969404	0.063426	-0.997955	-0.007960	0.967358	0.063438	-0.245343
02803	9.538400	-0.060646	-2.421046	-0.000373	0.004852	-0.000606	0.245320	0.007844	0.969410	0.063420	-0.997955	-0.007974	0.967365	0.063437	-0.245316
02804	9.527369	-0.080855	-2.413039	0.000102	0.001337	-0.001808	0.245327	0.007841	0.969409	0.063423	-0.997955	-0.007978	0.967363	0.063440	-0.245323
02805	9.547635	-0.093428	-2.417577	-0.002741	0.003522	-0.003301	0.245312	0.007852	0.969412	0.063401	-0.997956	-0.007960	0.967369	0.063414	-0.245309
02806	9.496173	-0.087718	-2.400125	0.001309	0.000774	-0.003518	0.245324	0.007867	0.969409	0.063420	-0.997955	-0.007951	0.967364	0.063431	-0.245322
02807	9.547742	-0.092907	-2.417174	-0.000739	0.003376	-0.000352	0.245313	0.007848	0.969412	0.063411	-0.997956	-0.007967	0.967368	0.063426	-0.245309
02808	9.539786	-0.097012	-2.439567	0.001940	0.002389	-0.002219	0.245312	0.007849	0.969412	0.063430	-0.997954	-0.007971	0.967367	0.063445	-0.245308
02809	9.527653	-0.079785	-2.411953	0.000102	0.001337	-0.001808	0.245319	0.007847	0.969411	0.063432	-0.997954	-0.007975	0.967365	0.063448	-0.245315
02810	9.508582	-0.103975	-2.426688	-0.003006	0.003383	-0.004854	0.245307	0.007873	0.969414	0.063411	-0.997956	-0.007941	0.967369	0.063419	-0.245305
02811	9.519779	-0.083366	-2.434047	0.002571	0.004005	-0.000920	0.245289	0.007860	0.969418	0.063435	-0.997954	-0.007959	0.967372	0.063447	-0.245286
02812	9.540021	-0.096041	-2.438685	-0.002368	-0.001330	-0.002695	0.245321	0.007868	0.969410	0.063414	-0.997956	-0.007948	0.967366	0.063424	-0.245319
02813	9.507615	-0.065981	-2.406549	0.000000	0.000000	0.000000	0.245321	0.007868	0.969410	0.063414	-0.997956	-0.007948	0.967366	0.063424	-0.245319
02814	9.519814	-0.082877	-2.433927	-0.000163	0.001198	-0.003361	0.245329	0.007880	0.969408	0.063418	-0.997955	-0.007937	0.967363	0.063425	-0.245327
02815	9.546988	-0.053892	-2.396216	0.003046	0.000490	-0.002122	0.245344	0.007881	0.969404	0.063450	-0.997953	-0.007945	0.967357	0.063458	-0.245342
02816	9.508744	-0.102753	-2.426105	-0.002002	0.000146	-0.002949	0.245362	0.007891	0.969399	0.063434	-0.997954	-0.007933	0.967354	0.063439	-0.245361
02817	9.548113	-0.090881	-2.415782	0.002205	0.002529	-0.000666	0.245358	0.007876	0.969400	0.063454	-0.997953	-0.007953	0.967354	0.063464	-0.245356
02818	9.540167	-0.094977	-2.438157	-0.002476	0.003661	-0.001748	0.245344	0.007871	0.969404	0.063431	-0.997955	-0.007951	0.967359	0.063441	-0.245341
02819	9.528055	-0.077614	-2.410434	-0.004579	0.002469	-0.002889	0.245339	0.007879	0.969405	0.063391	-0.997957	-0.007932	0.967363	0.063397	-0.245337
02820	9.520096	-0.081630	-2.432867	0.002205	0.002529	-0.000666	0.245335	0.007864	0.969407	0.063411	-0.997956	-0.007952	0.967362	0.063422	-0.245332
02821	9.528167	-0.077161	-2.410005	-0.001900	0.001483	-0.004757	0.245339	0.007890	0.969405	0.063401	-0.997957	-0.007923	0.967362	0.063405	-0.245338
02822	9.528204	-0.076827	-2.409872	0.000102	0.001337	-0.001808	0.245345	0.007887	0.969404	0.063404	-0.997956	-0.007927	0.967360	0.063409	-0.245344
02823	9.528238	-0.076657	-2.409744	0.000102	0.001337	-0.001808	0.245352	0.007885	0.969402	0.063406	-0.997956	-0.007931	0.967358	0.063412	-0.245351
02824	9.528264	-0.076343	-2.409650	0.001045	0.000635	-0.005071	0.245364	0.007915	0.969399	0.063425	-0.997955	-0.007905	0.967354	0.063424	-0.245364
02825	9.529386	-0.113571	-2.429268	0.000631	0.001615	0.001299	0.245370	0.007881	0.969397	0.063425	-0.997955	-0.007940	0.967352	0.063432	-0.245368
02826	9.520300	-0.080216	-2.432117	-0.003738	0.000430	-0.004346	0.245382	0.007904	0.969394	0.063396	-0.997957	-0.007910	0.967351	0.063397	-0.245382
02827	9.528394	-0.075695	-2.409156	-0.003318	0.005699	-0.000291	0.245348	0.007884	0.969403	0.063362	-0.997959	-0.007920	0.967362	0.063366	-0.245346
02828	9.517375	-0.095901	-2.401137	0.001574	0.000914	-0.001965	0.245360	0.007883	0.969400	0.063378	-0.997958	-0.007926	0.967358	0.063383	-0.245358
02829	9.520490	-0.079534	-2.431393	-0.001635	0.001622	-0.003204	0.245363	0.007894	0.969399	0.063367	-0.997959	-0.007912	0.967358	0.063369	-0.245363
02830	9.529654	-0.112428	-2.428270	-0.002843	0.002184	-0.001493	0.245364	0.007888	0.969399	0.063339	-0.997961	-0.007911	0.967360	0.063342	-0.245363
02831	9.517516	-0.095025	-2.400614	-0.000061	0.002535	-0.005168	0.245357	0.007918	0.969400	0.063348	-0.997960	-0.007882	0.967361	0.063343	-0.245358
02832	9.539792	-0.054017	-2.415716	0.002306	0.003866	-0.002473	0.245340	0.007920	0.969405	0.063374	-0.997959	-0.007886	0.967363	0.063370	-0.245341
02833	9.481403	-0.090030	-2.440704	-0.002001	0.000145	-0.002950	0.245358	0.007930	0.969400	0.063359	-0.997960	-0.007873	0.967360	0.063352	-0.245360
02834	9.540960	-0.090831	-2.435209	0.001310	0.000775	-0.003518	0.245370	0.007944	0.969397	0.063377	-0.997959	-0.007863	0.967356	0.063367	-0.245373
02835	9.516588	-0.056562	-2.380218	-0.001106	0.001900	-0.000097	0.245373	0.007924	0.969396	0.063363	-0.997959	-0.007881	0.967356	0.063358	-0.245374
02836	9.517733	-0.093768	-2.399800	-0.000163	0.001198	-0.003361	0.245381	0.007937	0.969394	0.063366	-0.997959	-0.007869	0.967353	0.063357	-0.245384
02837	9.549080	-0.086095	-2.412134	0.000366	0.001476	-0.000254	0.245388	0.007919	0.969393	0.063367	-0.997959	-0.007888	0.967352	0.063363	-0.245389
02838	9.506729	-0.113826	-2.391746	-0.001004	0.003237	-0.001904	0.245377	0.007916	0.969395	0.063359	-0.997960	-0.007888	0.967355	0.063355	-0.245378
02839	9.500761	-0.064350	-2.424799	0.001940	0.002390	-0.002218	0.245373	0.007917	0.969396	0.063380	-0.997958	-0.007893	0.967355	0.063377	-0.245374
02840	9.549312	-0.085520	-2.411236	-0.000537	0.006050	-0.003966	0.245334	0.007933	0.969406	0.063379	-0.997958	-0.007874	0.967365	0.063372	-0.245336
02841	9.530277	-0.109889	-2.425940	0.001472	-0.000423	-0.000157	0.245359	0.007915	0.969400	0.063391	-0.997958	-0.007897	0.967357	0.063389	-0.245360
02842	9.500965	-0.063807	-2.424016	0.000468	0.002813	-0.002061	0.245353	0.007913	0.969402	0.063398	-0.997957	-0.007899	0.967359	0.063396	-0.245353
02843	9.518109	-0.092684	-2.398351	0.001106	-0.001899	0.000097	0.245393	0.007894	0.969392	0.063405	-0.997956	-0.007924	0.967348	0.063409	-0.245392
02844	9.522332	-0.113777	-2.448378	-0.002741	0.003521	-0.003301	0.245379	0.007905	0.969395	0.063382	-0.997958	-0.007906	0.967353	0.063383	-0.245379
02845	9.521296	-0.076185	-2.428343	0.000732	0.002952	-0.000508	0.245372	0.007888	0.969397	0.063388	-0.997958	-0.007924	0.967355	0.063392	-0.245371
02846	9.510273	-0.096416	-2.420367	0.000468	0.002813	-0.002061	0.245364	0.007887	0.969399	0.063395	-0.997957	-0.007927	0.967356	0.063400	-0.245362
02847	9.510330	-0.096229	-2.420150	-0.001370	0.001760	-0.001650	0.245367	0.007882	0.969398	0.063382	-0.997958	-0.007928	0.967356	0.063388	-0.245365
02848	9.549689	-0.084244	-2.409788	-0.000162	0.001198	-0.003361	0.245375	0.007895	0.969396	0.063387	-0.997958	-0.007917	0.967354	0.063390	-0.245374
02849	9.501296	-0.062463	-2.422753	-0.001269	0.003097	-0.003458	0.245364	0.007907	0.969399	0.063380	-0.997958	-0.007902	0.967357	0.063379	-0.245364
02850	9.530697	-0.108281	-2.424362	0.001838	0.001053	-0.000411	0.245375	0.007891	0.969396	0.063393	-0.997957	-0.007923	0.967353	0.063397	-0.245374
02851	9.521592	-0.074965	-2.427220	0.001310	0.000775	-0.003517	0.245387	0.007906	0.969393	0.063411	-0.997956	-0.007913	0.967349	0.063412	-0.245387
02852	9.532753	-0.054363	-2.434658	-0.000639	0.004713	-0.002158	0.245361	0.007905	0.969400	0.063407	-0.997956	-0.007911	0.967356	0.063408	-0.245361
02853	9.530871	-0.107664	-2.423704	-0.001370	0.001760	-0.001651	0.245364	0.007900	0.969399	0.063395	-0.997957	-0.007913	0.967356	0.063397	-0.245364
02854	9.521779	-0.074240	-2.426511	-0.000162	0.001198	-0.003360	0.245371	0.007913	0.969397	0.063399	-0.997957	-0.007901	0.967354	0.063398	-0.245371
02855	9.510720	-0.094334	-2.418692	0.000102	0.001337	-0.001807	0.245378	0.007910	0.969395	0.063401	-0.997957	-0.007905	0.967352	0.063401	-0.245378
02856	9.521880	-0.073731	-2.426129	0.000570	0.004150	-0.003868	0.245356	0.007926	0.969401	0.063413	-0.997956	-0.007890	0.967357	0.063409	-0.245357
02857	9.539047	-0.102431	-2.400383	-0.000630	-0.001615	-0.001299	0.245392	0.007920	0.969392	0.063407	-0.997957	-0.007897	0.967348	0.063404	-0.245393
02858	9.501728	-0.060557	-2.421105	-0.000375	0.004852	-0.000605	0.245365	0.007903	0.969398	0.063403	-0.997957	-0.007912	0.967355	0.063404	-0.245365
02859	9.510966	-0.093577	-2.417753	-0.002477	0.003659	-0.001748	0.245350	0.007899	0.969402	0.063380	-0.997958	-0.007910	0.967360	0.063381	-0.245350
02860	9.542320	-0.085801	-2.430059	0.000945	-0.000701	-0.003263	0.245375	0.007912	0.969396	0.063393	-0.997957	-0.007901	0.967353	0.063392	-0.245375
02861	9.522099	-0.072759	-2.425299	0.001574	0.000914	-0.001964	0.245386	0.007911	0.969393	0.063410	-0.997956	-0.007907	0.967349	0.063410	-0.245386
02862	9.542352	-0.085345	-2.429946	-0.000162	0.001198	-0.003360	0.245393	0.007923	0.969391	0.063417	-0.997956	-0.007897	0.967347	0.063414	-0.245394
02863	9.530193	-0.068041	-2.402259	0.000833	0.004290	-0.002315	0.245371	0.007924	0.969397	0.063427	-0.997955	-0.007897	0.967352	0.063424	-0.245372
02864	9.522294	-0.071994	-2.424554	0.002042	0.003727	-0.004025	0.245353	0.007942	0.969401	0.063454	-0.997954	-0.007885	0.967355	0.063447	-0.245355
02865	9.491044	-0.079419	-2.411856	0.000629	0.001615	0.001299	0.245359	0.007908	0.969400	0.063454	-0.997953	-0.007920	0.967353	0.063455	-0.245359
02866	9.522412	-0.071719	-2.424101	-0.000060	0.002535	-0.005167	0.245353	0.007937	0.969401	0.063465	-0.997953	-0.007892	0.967354	0.063459	-0.245354
02867	9.539615	-0.100322	-2.398216	0.000468	0.002813	-0.002061	0.245345	0.007936	0.969403	0.063471	-0.997952	-0.007894	0.967356	0.063466	-0.245347
02868	9.499227	-0.074498	-2.388459	0.000468	0.002813	-0.002061	0.245338	0.007935	0.969405	0.063478	-0.997952	-0.007896	0.967357	0.063473	-0.245339
02869	9.522601	-0.071018	-2.423380	0.000102	0.001337	-0.001807	0.245345	0.007932	0.969403	0.063480	-0.997952	-0.007900	0.967355	0.063476	-0.245346
02870	9.539782	-0.099714	-2.397577	0.001677	0.002251	-0.003771	0.245341	0.007948	0.969404	0.063504	-0.997950	-0.007889	0.967355	0.063496	-0.245343
02871	9.502484	-0.057694	-2.418204	-0.001005	0.003236	-0.001904	0.245330	0.007945	0.969407	0.063496	-0.997951	-0.007890	0.967358	0.063489	-0.245332
02872	9.563249	-0.095874	-2.432150	0.000204	0.002674	-0.003614	0.245323	0.007960	0.969409	0.063502	-0.997951	-0.007875	0.967359	0.063491	-0.245326
02873	9.522841	-0.070139	-2.422461	0.000629	0.001616	0.001299	0.245330	0.007926	0.969407	0.063502	-0.997950	-0.007911	0.967358	0.063500	-0.245330
02874	9.543148	-0.082838	-2.426908	-0.000903	0.004573	-0.003711	0.245303	0.007940	0.969414	0.063500	-0.997951	-0.007894	0.967364	0.063494	-0.245305
02875	9.511884	-0.089948	-2.414275	-0.000791	-0.000418	-0.004660	0.245326	0.007967	0.969408	0.063501	-0.997951	-0.007868	0.967359	0.063488	-0.245329
02876	9.522989	-0.069353	-2.421900	-0.001107	0.001899	-0.000097	0.245329	0.007947	0.969407	0.063487	-0.997952	-0.007886	0.967359	0.063479	-0.245331
02877	9.532189	-0.102337	-2.418748	0.001677	0.002251	-0.003770	0.245326	0.007963	0.969408	0.063509	-0.997950	-0.007874	0.967358	0.063498	-0.245329
02878	9.520000	-0.085034	-2.391118	-0.002843	0.002182	-0.001494	0.245325	0.007957	0.969408	0.063481	-0.997952	-0.007873	0.967360	0.063470	-0.245328
02879	9.531142	-0.064576	-2.398587	0.002204	0.002530	-0.000664	0.245322	0.007942	0.969409	0.063500	-0.997951	-0.007893	0.967360	0.063494	-0.245323
02880	9.509038	-0.105172	-2.382945	0.000468	0.002813	-0.002061	0.245313	0.007941	0.969411	0.063505	-0.997950	-0.007895	0.967362	0.063500	-0.245314
02881	9.543481	-0.081280	-2.425649	0.000946	-0.000701	-0.003263	0.245339	0.007955	0.969405	0.063519	-0.997949	-0.007887	0.967354	0.063511	-0.245341
02882	9.532427	-0.101545	-2.417841	0.000994	0.003092	0.001046	0.245331	0.007922	0.969407	0.063525	-0.997949	-0.007921	0.967356	0.063525	-0.245331
02883	9.523357	-0.068179	-2.420489	-0.003004	0.003380	-0.004855	0.245317	0.007948	0.969410	0.063505	-0.997950	-0.007888	0.967361	0.063497	-0.245318
02884	9.524555	-0.105240	-2.440101	0.002682	-0.000984	-0.001866	0.245347	0.007948	0.969403	0.063532	-0.997949	-0.007898	0.967351	0.063526	-0.245348
02885	9.523411	-0.067706	-2.420287	0.000468	0.002813	-0.002061	0.245339	0.007947	0.969405	0.063538	-0.997948	-0.007900	0.967353	0.063533	-0.245341
02886	9.504396	-0.092103	-2.435078	0.000102	0.001337	-0.001807	0.245347	0.007944	0.969403	0.063541	-0.997948	-0.007904	0.967351	0.063536	-0.245348
02887	9.492182	-0.074809	-2.407520	-0.001634	0.001620	-0.003204	0.245350	0.007955	0.969402	0.063530	-0.997949	-0.007890	0.967351	0.063522	-0.245353
02888	9.540682	-0.096015	-2.394145	-0.001107	0.001899	-0.000097	0.245354	0.007934	0.969401	0.063519	-0.997949	-0.007909	0.967350	0.063516	-0.245355
02889	9.543796	-0.079729	-2.424461	0.000946	-0.000701	-0.003263	0.245380	0.007947	0.969394	0.063533	-0.997948	-0.007901	0.967343	0.063527	-0.245381
02890	9.532765	-0.099747	-2.416585	-0.000903	0.004573	-0.003711	0.245356	0.007961	0.969400	0.063531	-0.997949	-0.007884	0.967349	0.063522	-0.245358
02891	9.515694	-0.070475	-2.441968	0.001312	0.000775	-0.003516	0.245367	0.007976	0.969397	0.063549	-0.997948	-0.007874	0.967345	0.063537	-0.245370
02892	9.543968	-0.078715	-2.423816	-0.002741	0.003519	-0.003301	0.245351	0.007987	0.969401	0.063527	-0.997949	-0.007856	0.967351	0.063511	-0.245356
02893	9.512734	-0.085964	-2.411071	-0.001005	0.003236	-0.001904	0.245340	0.007984	0.969404	0.063519	-0.997950	-0.007857	0.967354	0.063503	-0.245344
02894	9.544109	-0.078233	-2.423278	0.000102	0.001337	-0.001807	0.245347	0.007981	0.969403	0.063521	-0.997950	-0.007860	0.967352	0.063506	-0.245351
02895	9.504858	-0.089837	-2.433359	0.001940	0.002391	-0.002216	0.245343	0.007982	0.969403	0.063542	-0.997948	-0.007865	0.967352	0.063527	-0.245347
02896	9.523970	-0.065236	-2.418154	-0.000844	0.002038	0.001456	0.245345	0.007946	0.969403	0.063528	-0.997949	-0.007899	0.967352	0.063522	-0.245347
02897	9.525169	-0.102536	-2.437817	0.000946	-0.000701	-0.003262	0.245371	0.007959	0.969397	0.063542	-0.997948	-0.007890	0.967345	0.063534	-0.245373
02898	9.532014	-0.060592	-2.395223	-0.000903	0.004572	-0.003711	0.245346	0.007973	0.969403	0.063539	-0.997948	-0.007873	0.967351	0.063527	-0.245349
02899	9.525323	-0.101903	-2.437242	-0.002478	0.003658	-0.001748	0.245331	0.007968	0.969407	0.063516	-0.997950	-0.007871	0.967356	0.063504	-0.245334
02900	9.505121	-0.088918	-2.432364	0.001210	-0.000562	-0.001709	0.245356	0.007966	0.969400	0.063528	-0.997949	-0.007878	0.967349	0.063517	-0.245359
02901	9.516228	-0.068407	-2.439945	0.000468	0.002813	-0.002060	0.245349	0.007965	0.969402	0.063534	-0.997949	-0.007880	0.967351	0.063523	-0.245351
02902	9.513195	-0.084270	-2.409311	0.000205	0.002674	-0.003613	0.245341	0.007979	0.969404	0.063542	-0.997948	-0.007867	0.967352	0.063528	-0.245344
02903	9.533510	-0.096724	-2.413767	-0.001268	0.003096	-0.003457	0.245330	0.007992	0.969407	0.063535	-0.997949	-0.007852	0.967355	0.063518	-0.245334
02904	9.513381	-0.083546	-2.408603	-0.000537	0.006049	-0.003964	0.245293	0.008008	0.969416	0.063537	-0.997949	-0.007833	0.967365	0.063515	-0.245298
02905	9.525743	-0.100296	-2.435665	0.000102	0.001337	-0.001807	0.245300	0.008005	0.969414	0.063539	-0.997949	-0.007837	0.967363	0.063518	-0.245305
02906	9.532571	-0.058507	-2.393055	0.000468	0.002813	-0.002060	0.245294	0.008004	0.969416	0.063545	-0.997948	-0.007840	0.967364	0.063525	-0.245299
02907	9.533824	-0.095626	-2.412571	-0.001633	0.001620	-0.003204	0.245297	0.008015	0.969415	0.063534	-0.997949	-0.007826	0.967364	0.063511	-0.245304
02908	9.536956	-0.079263	-2.442841	0.003048	0.000493	-0.002118	0.245312	0.008016	0.969411	0.063567	-0.997947	-0.007834	0.967358	0.063544	-0.245318
02909	9.513648	-0.082432	-2.407584	0.000468	0.002813	-0.002060	0.245305	0.008015	0.969413	0.063573	-0.997946	-0.007836	0.967359	0.063551	-0.245311
02910	9.546231	-0.112063	-2.439486	-0.002843	0.002181	-0.001495	0.245306	0.008008	0.969413	0.063545	-0.997948	-0.007836	0.967361	0.063523	-0.245311
02911	9.516859	-0.065918	-2.437552	0.000102	0.001337	-0.001807	0.245313	0.008006	0.969411	0.063547	-0.997948	-0.007839	0.967359	0.063526	-0.245318
02912	9.513827	-0.081772	-2.406901	-0.000903	0.004572	-0.003711	0.245288	0.008020	0.969417	0.063544	-0.997948	-0.007822	0.967366	0.063519	-0.245294
02913	9.537255	-0.078326	-2.441702	0.000628	0.001616	0.001300	0.245294	0.007986	0.969416	0.063544	-0.997948	-0.007858	0.967364	0.063528	-0.245298
02914	9.526258	-0.098564	-2.433723	-0.000903	0.004572	-0.003711	0.245269	0.008000	0.969422	0.063542	-0.997948	-0.007841	0.967370	0.063522	-0.245274
02915	9.501729	-0.064186	-2.378788	0.000582	-0.002177	-0.003009	0.245309	0.008012	0.969412	0.063552	-0.997948	-0.007834	0.967360	0.063530	-0.245315
02916	9.506085	-0.085098	-2.428733	-0.003848	0.005416	-0.003399	0.245276	0.008022	0.969420	0.063522	-0.997950	-0.007814	0.967370	0.063496	-0.245283
02917	9.525215	-0.060232	-2.413377	0.003413	0.001969	-0.002371	0.245277	0.008024	0.969420	0.063557	-0.997948	-0.007821	0.967367	0.063532	-0.245284
02918	9.531334	-0.109335	-2.379850	-0.002843	0.002181	-0.001495	0.245277	0.008018	0.969420	0.063530	-0.997949	-0.007820	0.967369	0.063506	-0.245283
02919	9.533269	-0.055645	-2.390345	0.001575	0.000915	-0.001962	0.245288	0.008017	0.969417	0.063547	-0.997948	-0.007826	0.967365	0.063523	-0.245294
02920	9.542491	-0.088553	-2.387213	0.000205	0.002674	-0.003613	0.245281	0.008031	0.969419	0.063554	-0.997948	-0.007813	0.967366	0.063527	-0.245288
02921	9.525366	-0.059546	-2.412797	-0.000102	-0.001337	0.001806	0.245317	0.007994	0.969410	0.063545	-0.997948	-0.007851	0.967358	0.063527	-0.245321
02922	9.523489	-0.112895	-2.402098	-0.000058	0.002534	-0.005166	0.245311	0.008024	0.969411	0.063556	-0.997948	-0.007822	0.967359	0.063530	-0.245317
02923	9.514377	-0.079403	-2.404804	0.000468	0.002813	-0.002060	0.245304	0.008023	0.969413	0.063562	-0.997947	-0.007825	0.967360	0.063537	-0.245310
02924	9.534697	-0.092012	-2.409256	0.000468	0.002813	-0.002060	0.245298	0.008022	0.969415	0.063568	-0.997947	-0.007827	0.967361	0.063543	-0.245304
02925	9.514516	-0.079034	-2.404268	0.000468	0.002813	-0.002060	0.245291	0.008021	0.969416	0.063574	-0.997946	-0.007829	0.967363	0.063550	-0.245297
02926	9.517676	-0.062652	-2.434446	-0.000160	0.001197	-0.003360	0.245299	0.008034	0.969414	0.063579	-0.997946	-0.007818	0.967360	0.063552	-0.245306
02927	9.534868	-0.091240	-2.408612	0.000205	0.002674	-0.003613	0.245292	0.008048	0.969416	0.063587	-0.997946	-0.007804	0.967362	0.063557	-0.245300
02928	9.498743	-0.086746	-2.449092	0.001838	0.001055	-0.000409	0.245302	0.008032	0.969413	0.063602	-0.997945	-0.007826	0.967358	0.063576	-0.245309
02929	9.531856	-0.107023	-2.377865	-0.001268	0.003095	-0.003457	0.245291	0.008044	0.969416	0.063595	-0.997945	-0.007810	0.967361	0.063566	-0.245299
02930	9.525855	-0.057472	-2.410916	0.000468	0.002813	-0.002060	0.245285	0.008043	0.969418	0.063602	-0.997945	-0.007813	0.967363	0.063573	-0.245292
02931	9.514858	-0.077802	-2.402954	0.000992	0.003092	0.001047	0.245277	0.008011	0.969420	0.063605	-0.997944	-0.007847	0.967364	0.063585	-0.245282
02932	9.525983	-0.057254	-2.410417	-0.001895	0.001479	-0.004757	0.245281	0.008038	0.969419	0.063595	-0.997945	-0.007817	0.967364	0.063567	-0.245288
02933	9.495913	-0.101872	-2.417665	-0.001735	0.000282	-0.001398	0.245299	0.008032	0.969414	0.063578	-0.997946	-0.007820	0.967360	0.063552	-0.245306
02934	9.538325	-0.073766	-2.437664	0.000103	0.001337	-0.001806	0.245307	0.008029	0.969412	0.063582	-0.997946	-0.007824	0.967358	0.063556	-0.245314
02935	9.538339	-0.073527	-2.437614	-0.000525	-0.000279	-0.003106	0.245329	0.008040	0.969407	0.063581	-0.997946	-0.007814	0.967353	0.063553	-0.245336
02936	9.503922	-0.097067	-2.394792	0.000365	0.001476	-0.000253	0.245337	0.008021	0.969405	0.063582	-0.997946	-0.007834	0.967351	0.063559	-0.245343
02937	9.507068	-0.080846	-2.425028	0.000103	0.001337	-0.001806	0.245344	0.008019	0.969403	0.063585	-0.997946	-0.007838	0.967349	0.063562	-0.245350
02938	9.507130	-0.080649	-2.424791	-0.002478	0.003656	-0.001748	0.245330	0.008014	0.969406	0.063563	-0.997947	-0.007837	0.967354	0.063541	-0.245336
02939	9.527452	-0.093150	-2.429257	-0.001632	0.001619	-0.003204	0.245334	0.008025	0.969406	0.063552	-0.997948	-0.007823	0.967353	0.063527	-0.245340
02940	9.530574	-0.076791	-2.459595	0.002683	-0.000983	-0.001864	0.245364	0.008024	0.969398	0.063578	-0.997946	-0.007832	0.967344	0.063554	-0.245370
02941	9.504127	-0.096096	-2.394016	-0.002478	0.003656	-0.001748	0.245349	0.008019	0.969402	0.063555	-0.997948	-0.007830	0.967349	0.063532	-0.245355
02942	9.538643	-0.072260	-2.436462	0.000730	0.002953	-0.000506	0.245342	0.008003	0.969404	0.063560	-0.997947	-0.007848	0.967351	0.063541	-0.245347
02943	9.530744	-0.076393	-2.458949	0.000103	0.001337	-0.001806	0.245349	0.008000	0.969402	0.063563	-0.997947	-0.007852	0.967349	0.063544	-0.245354
02944	9.527670	-0.092343	-2.428434	-0.001370	0.001758	-0.001651	0.245352	0.007996	0.969401	0.063549	-0.997948	-0.007853	0.967349	0.063531	-0.245357
02945	9.527711	-0.092317	-2.428273	0.000627	0.001616	0.001300	0.245359	0.007962	0.969400	0.063549	-0.997948	-0.007888	0.967347	0.063539	-0.245361
02946	9.507515	-0.079334	-2.423323	-0.003003	0.003377	-0.004855	0.245344	0.007988	0.969403	0.063527	-0.997949	-0.007854	0.967353	0.063510	-0.245348
02947	9.548134	-0.104602	-2.432358	-0.000378	0.004851	-0.000604	0.245317	0.007972	0.969410	0.063521	-0.997949	-0.007868	0.967359	0.063509	-0.245321
02948	9.507669	-0.078857	-2.422736	0.000949	-0.000701	-0.003262	0.245344	0.007985	0.969403	0.063535	-0.997949	-0.007860	0.967352	0.063520	-0.245348
02949	9.527975	-0.091474	-2.427269	0.001094	0.004429	-0.000759	0.245321	0.007969	0.969409	0.063544	-0.997948	-0.007877	0.967357	0.063533	-0.245324
02950	9.545189	-0.120280	-2.401338	0.000103	0.001337	-0.001806	0.245328	0.007966	0.969407	0.063548	-0.997948	-0.007881	0.967355	0.063537	-0.245331
02951	9.507850	-0.078332	-2.422042	0.002043	0.003728	-0.004021	0.245311	0.007984	0.969412	0.063574	-0.997946	-0.007868	0.967358	0.063560	-0.245314
02952	9.528189	-0.090832	-2.426451	-0.004316	0.002601	-0.001340	0.245306	0.007976	0.969413	0.063533	-0.997949	-0.007866	0.967362	0.063519	-0.245310
02953	9.515935	-0.073541	-2.398819	0.001679	0.002252	-0.003767	0.245303	0.007992	0.969413	0.063556	-0.997947	-0.007855	0.967361	0.063538	-0.245308
02954	9.528267	-0.090394	-2.426164	-0.001838	-0.001055	0.000408	0.245336	0.007969	0.969405	0.063534	-0.997949	-0.007876	0.967354	0.063522	-0.245339
02955	9.527057	-0.052823	-2.406268	-0.000903	0.004571	-0.003710	0.245311	0.007983	0.969412	0.063531	-0.997949	-0.007859	0.967361	0.063516	-0.245315
02956	9.548642	-0.102722	-2.430445	0.001576	0.000915	-0.001961	0.245322	0.007982	0.969409	0.063549	-0.997948	-0.007865	0.967356	0.063535	-0.245326
02957	9.508146	-0.077003	-2.420920	0.000103	0.001337	-0.001806	0.245329	0.007979	0.969407	0.063552	-0.997948	-0.007869	0.967355	0.063538	-0.245333
02958	9.500220	-0.081153	-2.443551	0.000000	0.000000	0.000000	0.245330	0.007979	0.969407	0.063552	-0.997947	-0.007869	0.967354	0.063538	-0.245334
02959	9.528466	-0.089595	-2.425411	-0.001005	0.003234	-0.001904	0.245319	0.007976	0.969410	0.063544	-0.997948	-0.007870	0.967358	0.063531	-0.245322
02960	9.520565	-0.093485	-2.447953	-0.002259	0.000002	-0.004504	0.245337	0.008001	0.969405	0.063530	-0.997949	-0.007841	0.967354	0.063510	-0.245343
02961	9.559854	-0.081488	-2.437561	0.000627	0.001616	0.001300	0.245344	0.007967	0.969403	0.063529	-0.997949	-0.007877	0.967352	0.063518	-0.245347
02962	9.508320	-0.076277	-2.420263	0.000468	0.002813	-0.002059	0.245338	0.007966	0.969405	0.063537	-0.997948	-0.007880	0.967353	0.063526	-0.245341
02963	9.505269	-0.092225	-2.389630	0.000468	0.002813	-0.002059	0.245331	0.007965	0.969407	0.063543	-0.997948	-0.007882	0.967355	0.063533	-0.245334
02964	9.548974	-0.101382	-2.429197	-0.001632	0.001618	-0.003204	0.245334	0.007975	0.969406	0.063534	-0.997949	-0.007869	0.967355	0.063520	-0.245337
02965	9.527500	-0.050883	-2.404557	0.000206	0.002674	-0.003612	0.245327	0.007990	0.969408	0.063541	-0.997948	-0.007855	0.967356	0.063524	-0.245331
02966	9.497495	-0.095591	-2.411701	-0.001370	0.001758	-0.001651	0.245330	0.007985	0.969407	0.063529	-0.997949	-0.007857	0.967356	0.063513	-0.245334
02967	9.539936	-0.067364	-2.431536	0.000206	0.002674	-0.003612	0.245323	0.008000	0.969408	0.063537	-0.997949	-0.007844	0.967357	0.063518	-0.245328
02968	9.517905	-0.107910	-2.415858	0.001094	0.004429	-0.000759	0.245300	0.007984	0.969414	0.063548	-0.997948	-0.007861	0.967362	0.063533	-0.245304
02969	9.516728	-0.070328	-2.395769	-0.001267	0.003095	-0.003457	0.245290	0.007997	0.969417	0.063541	-0.997948	-0.007846	0.967365	0.063522	-0.245294
02970	9.549387	-0.099914	-2.427635	-0.001108	0.001898	-0.000098	0.245294	0.007976	0.969416	0.063528	-0.997949	-0.007864	0.967365	0.063514	-0.245298
02971	9.504514	-0.053011	-2.367910	0.000468	0.002813	-0.002059	0.245287	0.007975	0.969418	0.063534	-0.997949	-0.007866	0.967366	0.063521	-0.245290
02972	9.521336	-0.091062	-2.445046	-0.000641	0.004711	-0.002156	0.245242	0.007915	0.969430	0.063420	-0.997956	-0.007896	0.967385	0.063418	-0.245243
02973	9.509072	-0.073869	-2.417380	0.001576	0.000916	-0.001961	0.245253	0.007914	0.969427	0.063437	-0.997955	-0.007901	0.967381	0.063435	-0.245254
02974	9.557560	-0.095093	-2.404021	-0.001473	0.000421	0.000155	0.245272	0.007893	0.969422	0.063418	-0.997956	-0.007920	0.967378	0.063421	-0.245271
02975	9.526265	-0.102445	-2.391532	0.001418	0.002113	-0.005320	0.245269	0.007925	0.969423	0.063442	-0.997954	-0.007893	0.967377	0.063438	-0.245270
02976	9.537355	-0.081749	-2.399085	-0.001735	0.000281	-0.001398	0.245287	0.007919	0.969418	0.063424	-0.997955	-0.007896	0.967374	0.063421	-0.245288
02977	9.532545	-0.069774	-2.452154	0.001473	-0.000421	-0.000155	0.245312	0.007901	0.969412	0.063435	-0.997955	-0.007919	0.967366	0.063437	-0.245312
02978	9.545326	-0.077333	-2.376241	-0.002479	0.003655	-0.001749	0.245297	0.007896	0.969416	0.063413	-0.997956	-0.007918	0.967372	0.063416	-0.245296
02979	9.541893	-0.102688	-2.448668	0.002567	0.004008	-0.000913	0.245279	0.007882	0.969421	0.063437	-0.997954	-0.007936	0.967375	0.063444	-0.245277
02980	9.528320	-0.048134	-2.401362	-0.000523	-0.000279	-0.003106	0.245301	0.007893	0.969415	0.063438	-0.997954	-0.007927	0.967369	0.063442	-0.245300
02981	9.537552	-0.080950	-2.398331	-0.001631	0.001618	-0.003204	0.245304	0.007904	0.969414	0.063427	-0.997955	-0.007913	0.967369	0.063428	-0.245304
02982	9.518602	-0.105302	-2.413223	0.000103	0.001337	-0.001806	0.245313	0.007902	0.969412	0.063428	-0.997955	-0.007916	0.967367	0.063429	-0.245312
02983	9.517397	-0.067718	-2.393185	-0.002114	0.005131	-0.002001	0.245283	0.007898	0.969419	0.063409	-0.997956	-0.007913	0.967376	0.063411	-0.245283
02984	9.521889	-0.088678	-2.442980	-0.000158	0.001197	-0.003359	0.245291	0.007911	0.969417	0.063413	-0.997956	-0.007901	0.967373	0.063411	-0.245291
02985	9.481380	-0.063050	-2.433450	0.000626	0.001616	0.001300	0.245297	0.007877	0.969416	0.063412	-0.997956	-0.007937	0.967372	0.063420	-0.245295
02986	9.550201	-0.096998	-2.424549	-0.000902	0.004571	-0.003709	0.245271	0.007892	0.969422	0.063406	-0.997956	-0.007918	0.967379	0.063409	-0.245271
02987	9.517674	-0.066946	-2.392105	0.000468	0.002813	-0.002058	0.245264	0.007891	0.969424	0.063412	-0.997956	-0.007920	0.967380	0.063416	-0.245263
02988	9.501872	-0.075244	-2.437306	0.000103	0.001337	-0.001806	0.245272	0.007888	0.969422	0.063415	-0.997956	-0.007924	0.967378	0.063420	-0.245271
02989	9.519069	-0.103970	-2.411441	0.000468	0.002813	-0.002058	0.245265	0.007887	0.969424	0.063421	-0.997955	-0.007927	0.967379	0.063426	-0.245264
02990	9.522280	-0.087705	-2.441490	-0.002217	0.003795	-0.000196	0.245251	0.007866	0.969428	0.063397	-0.997957	-0.007941	0.967384	0.063407	-0.245249
02991	9.521048	-0.050206	-2.421515	0.000103	0.001337	-0.001806	0.245258	0.007863	0.969426	0.063399	-0.997957	-0.007945	0.967382	0.063410	-0.245256
02992	9.517949	-0.066096	-2.391032	-0.000158	0.001197	-0.003359	0.245266	0.007876	0.969424	0.063402	-0.997957	-0.007933	0.967380	0.063409	-0.245265
02993	9.499004	-0.090463	-2.405949	0.000103	0.001337	-0.001806	0.245273	0.007874	0.969422	0.063404	-0.997956	-0.007937	0.967378	0.063412	-0.245271
02994	9.550646	-0.095360	-2.422859	-0.001631	0.001618	-0.003204	0.245278	0.007885	0.969421	0.063391	-0.997957	-0.007922	0.967378	0.063396	-0.245277
02995	9.506976	-0.085894	-2.383065	0.003207	-0.000702	0.001244	0.245307	0.007853	0.969414	0.063416	-0.997955	-0.007963	0.967369	0.063430	-0.245303
02996	9.530403	-0.082349	-2.418044	-0.004839	0.002320	-0.004448	0.245302	0.007876	0.969415	0.063378	-0.997958	-0.007930	0.967373	0.063385	-0.245301
02997	9.530463	-0.081996	-2.417821	0.001941	0.002392	-0.002213	0.245299	0.007876	0.969415	0.063399	-0.997957	-0.007934	0.967372	0.063407	-0.245297
02998	9.510242	-0.068969	-2.412918	-0.003104	0.002038	-0.003049	0.245300	0.007886	0.969415	0.063373	-0.997958	-0.007918	0.967374	0.063377	-0.245299
02999	9.519505	-0.101851	-2.409810	0.001576	0.000916	-0.001960	0.245311	0.007885	0.969412	0.063390	-0.997957	-0.007924	0.967370	0.063395	-0.245309
03000	9.502399	-0.072718	-2.435327	0.001680	0.002253	-0.003766	0.245307	0.007901	0.969413	0.063412	-0.997956	-0.007913	0.967369	0.063413	-0.245306
03001	9.519594	-0.101528	-2.409472	0.000625	0.001616	0.001301	0.245313	0.007867	0.969412	0.063411	-0.997956	-0.007948	0.967368	0.063421	-0.245310
03002	9.538640	-0.076794	-2.394136	-0.000902	0.004571	-0.003709	0.245287	0.007881	0.969418	0.063408	-0.997956	-0.007930	0.967375	0.063414	-0.245286
03003	9.543140	-0.097869	-2.444000	0.004784	0.000215	-0.000716	0.245306	0.007868	0.969414	0.063453	-0.997953	-0.007956	0.967367	0.063464	-0.245303
03004	9.510525	-0.067960	-2.411830	-0.001631	0.001618	-0.003204	0.245308	0.007879	0.969413	0.063442	-0.997954	-0.007943	0.967367	0.063450	-0.245306
03005	9.519822	-0.100836	-2.408598	0.002305	0.003869	-0.002465	0.245290	0.007882	0.969418	0.063467	-0.997952	-0.007945	0.967370	0.063475	-0.245288
03006	9.519886	-0.100585	-2.408355	-0.000158	0.001197	-0.003359	0.245299	0.007894	0.969415	0.063470	-0.997952	-0.007933	0.967368	0.063475	-0.245298
03007	9.518628	-0.062942	-2.388415	-0.001006	0.003234	-0.001903	0.245288	0.007892	0.969418	0.063461	-0.997953	-0.007934	0.967371	0.063467	-0.245286
03008	9.519998	-0.100056	-2.407935	-0.000158	0.001197	-0.003359	0.245296	0.007904	0.969416	0.063465	-0.997953	-0.007922	0.967369	0.063467	-0.245296
03009	9.550080	-0.054795	-2.400289	0.000832	0.004290	-0.002310	0.245275	0.007905	0.969421	0.063475	-0.997952	-0.007923	0.967373	0.063477	-0.245274
03010	9.512181	-0.103800	-2.430275	0.000587	-0.002177	-0.003008	0.245315	0.007916	0.969411	0.063484	-0.997951	-0.007916	0.967363	0.063484	-0.245315
03011	9.542225	-0.058630	-2.422763	-0.000381	0.004850	-0.000603	0.245289	0.007899	0.969418	0.063479	-0.997952	-0.007930	0.967369	0.063482	-0.245288
03012	9.531247	-0.078824	-2.414835	0.001316	0.000776	-0.003513	0.245302	0.007914	0.969414	0.063496	-0.997951	-0.007920	0.967365	0.063496	-0.245302
03013	9.531291	-0.078503	-2.414670	0.000207	0.002673	-0.003611	0.245295	0.007929	0.969416	0.063503	-0.997950	-0.007907	0.967366	0.063501	-0.245296
03014	9.540602	-0.111443	-2.411409	-0.000745	0.003373	-0.000350	0.245285	0.007909	0.969419	0.063495	-0.997951	-0.007924	0.967369	0.063497	-0.245285
03015	9.519069	-0.061192	-2.386700	0.000467	0.002813	-0.002058	0.245278	0.007908	0.969420	0.063501	-0.997950	-0.007926	0.967371	0.063504	-0.245278
03016	9.520463	-0.098308	-2.406168	0.000207	0.002673	-0.003611	0.245272	0.007923	0.969422	0.063509	-0.997950	-0.007913	0.967372	0.063508	-0.245272
03017	9.543923	-0.094745	-2.441067	-0.001473	0.000420	0.000154	0.245289	0.007901	0.969418	0.063491	-0.997951	-0.007931	0.967369	0.063495	-0.245288
03018	9.511304	-0.064891	-2.408842	0.000467	0.002813	-0.002058	0.245283	0.007899	0.969419	0.063498	-0.997950	-0.007935	0.967370	0.063503	-0.245281
03019	9.540886	-0.110615	-2.410321	0.003414	0.001972	-0.002366	0.245283	0.007902	0.969419	0.063534	-0.997948	-0.007941	0.967367	0.063539	-0.245282
03020	9.511412	-0.064397	-2.408429	-0.003365	0.001897	-0.004603	0.245283	0.007926	0.969419	0.063510	-0.997950	-0.007910	0.967369	0.063508	-0.245284
03021	9.552025	-0.089556	-2.417640	0.000103	0.001337	-0.001805	0.245290	0.007924	0.969417	0.063513	-0.997950	-0.007914	0.967367	0.063511	-0.245291
03022	9.512850	-0.101180	-2.427764	0.002044	0.003729	-0.004017	0.245274	0.007941	0.969421	0.063539	-0.997948	-0.007901	0.967369	0.063534	-0.245275
03023	9.531871	-0.076368	-2.412448	-0.001109	0.001897	-0.000098	0.245277	0.007921	0.969421	0.063526	-0.997949	-0.007919	0.967370	0.063525	-0.245277
03024	9.520843	-0.096589	-2.404734	0.000952	-0.000700	-0.003260	0.245304	0.007933	0.969414	0.063541	-0.997948	-0.007912	0.967362	0.063538	-0.245305
03025	9.503775	-0.067442	-2.430103	0.001559	0.007242	-0.002815	0.245254	0.007937	0.969426	0.063560	-0.997947	-0.007909	0.967373	0.063556	-0.245254
03026	9.552382	-0.088643	-2.416263	0.000989	0.003093	0.001048	0.245244	0.007905	0.969429	0.063563	-0.997946	-0.007943	0.967375	0.063568	-0.245243
03027	9.511875	-0.062959	-2.406638	-0.000053	0.002533	-0.005164	0.245238	0.007935	0.969430	0.063572	-0.997946	-0.007914	0.967376	0.063569	-0.245239
03028	9.532190	-0.075395	-2.411221	0.001213	-0.000560	-0.001707	0.245263	0.007932	0.969424	0.063586	-0.997945	-0.007922	0.967369	0.063585	-0.245263
03029	9.508788	-0.078547	-2.376081	0.000207	0.002673	-0.003611	0.245256	0.007946	0.969426	0.063594	-0.997945	-0.007909	0.967370	0.063589	-0.245257
03030	9.521229	-0.095201	-2.403261	-0.001630	0.001617	-0.003204	0.245262	0.007957	0.969424	0.063584	-0.997945	-0.007895	0.967369	0.063576	-0.245264
03031	9.521249	-0.094952	-2.403191	-0.000260	-0.000140	-0.001553	0.245284	0.007953	0.969419	0.063582	-0.997945	-0.007901	0.967364	0.063575	-0.245285
03032	9.512034	-0.061651	-2.406043	0.000467	0.002813	-0.002058	0.245277	0.007951	0.969420	0.063590	-0.997945	-0.007904	0.967365	0.063584	-0.245279
03033	9.546138	-0.128651	-2.457535	-0.000746	0.003373	-0.000350	0.245266	0.007932	0.969423	0.063581	-0.997945	-0.007920	0.967369	0.063579	-0.245266
03034	9.509005	-0.077414	-2.375247	-0.000781	-0.000420	-0.004659	0.245287	0.007959	0.969418	0.063582	-0.997945	-0.007895	0.967363	0.063574	-0.245289
03035	9.544824	-0.090706	-2.437694	-0.000260	-0.000140	-0.001553	0.245308	0.007955	0.969412	0.063580	-0.997945	-0.007900	0.967358	0.063573	-0.245310
03036	9.529330	-0.089595	-2.379810	-0.001266	0.003093	-0.003456	0.245298	0.007967	0.969415	0.063574	-0.997946	-0.007885	0.967361	0.063563	-0.245300
03037	9.504362	-0.064666	-2.427883	-0.002479	0.003653	-0.001749	0.245282	0.007962	0.969419	0.063551	-0.997947	-0.007883	0.967366	0.063541	-0.245285
03038	9.521598	-0.093334	-2.401871	-0.001006	0.003233	-0.001903	0.245271	0.007960	0.969422	0.063541	-0.997948	-0.007882	0.967370	0.063531	-0.245273
03039	9.532706	-0.072685	-2.409262	0.001681	0.002253	-0.003764	0.245268	0.007976	0.969423	0.063563	-0.997947	-0.007871	0.967369	0.063550	-0.245271
03040	9.505938	-0.101393	-2.446777	0.000728	0.002953	-0.000504	0.245262	0.007959	0.969424	0.063569	-0.997946	-0.007890	0.967371	0.063560	-0.245264
03041	9.493594	-0.084303	-2.419191	0.000104	0.001337	-0.001805	0.245269	0.007956	0.969423	0.063571	-0.997946	-0.007894	0.967369	0.063563	-0.245271
03042	9.553168	-0.084976	-2.413283	0.000467	0.002813	-0.002057	0.245264	0.007954	0.969424	0.063578	-0.997946	-0.007897	0.967369	0.063571	-0.245266
03043	9.493655	-0.083899	-2.418964	0.000589	-0.002176	-0.003008	0.245304	0.007966	0.969413	0.063588	-0.997945	-0.007890	0.967358	0.063579	-0.245307
03044	9.553187	-0.084440	-2.413228	0.000207	0.002673	-0.003610	0.245296	0.007980	0.969415	0.063596	-0.997945	-0.007877	0.967360	0.063583	-0.245300
03045	9.514043	-0.096231	-2.423286	0.002825	0.004150	0.000642	0.245278	0.007951	0.969420	0.063619	-0.997943	-0.007911	0.967363	0.063614	-0.245279
03046	9.501703	-0.079231	-2.395664	0.001577	0.000917	-0.001959	0.245289	0.007950	0.969418	0.063636	-0.997942	-0.007918	0.967359	0.063632	-0.245290
03047	9.504917	-0.062909	-2.425757	-0.000642	0.004709	-0.002156	0.245263	0.007949	0.969424	0.063632	-0.997942	-0.007916	0.967366	0.063628	-0.245264
03048	9.525310	-0.075359	-2.430056	-0.001266	0.003093	-0.003456	0.245252	0.007961	0.969427	0.063625	-0.997943	-0.007901	0.967369	0.063618	-0.245254
03049	9.542503	-0.103892	-2.404212	-0.001994	0.000140	-0.002952	0.245270	0.007971	0.969422	0.063610	-0.997944	-0.007889	0.967366	0.063600	-0.245273
03050	9.533302	-0.070412	-2.406970	-0.000902	0.004569	-0.003708	0.245245	0.007985	0.969428	0.063607	-0.997944	-0.007872	0.967372	0.063593	-0.245248
03051	9.494133	-0.082049	-2.417151	-0.000260	-0.000140	-0.001553	0.245266	0.007980	0.969423	0.063605	-0.997944	-0.007877	0.967367	0.063592	-0.245270
03052	9.530267	-0.086099	-2.376183	-0.000642	0.004709	-0.002155	0.245242	0.007979	0.969429	0.063601	-0.997944	-0.007876	0.967373	0.063588	-0.245246
03053	9.513184	-0.057038	-2.401606	0.001577	0.000917	-0.001959	0.245253	0.007978	0.969426	0.063618	-0.997943	-0.007882	0.967369	0.063606	-0.245256
03054	9.545926	-0.086592	-2.433524	-0.001370	0.001756	-0.001651	0.245258	0.007973	0.969425	0.063606	-0.997944	-0.007884	0.967369	0.063595	-0.245261
03055	9.511497	-0.110209	-2.390650	0.001941	0.002393	-0.002211	0.245255	0.007974	0.969426	0.063627	-0.997943	-0.007889	0.967369	0.063616	-0.245257
03056	9.517845	-0.077829	-2.451164	-0.001110	0.001896	-0.000098	0.245258	0.007953	0.969425	0.063613	-0.997943	-0.007906	0.967368	0.063607	-0.245260
03057	9.522660	-0.089600	-2.397800	0.000831	0.004289	-0.002309	0.245237	0.007954	0.969431	0.063624	-0.997943	-0.007907	0.967373	0.063618	-0.245238
03058	9.513432	-0.056217	-2.400643	-0.002357	-0.001337	-0.002700	0.245268	0.007961	0.969423	0.063606	-0.997944	-0.007897	0.967366	0.063598	-0.245270
03059	9.546190	-0.085747	-2.432518	-0.000383	0.004849	-0.000602	0.245242	0.007944	0.969429	0.063600	-0.997944	-0.007911	0.967373	0.063596	-0.245243
03060	9.482212	-0.063730	-2.387876	0.002097	0.001197	0.001147	0.245253	0.007912	0.969427	0.063615	-0.997943	-0.007949	0.967370	0.063620	-0.245251
03061	9.546312	-0.085782	-2.432037	0.000467	0.002813	-0.002057	0.245245	0.007911	0.969429	0.063622	-0.997942	-0.007952	0.967371	0.063627	-0.245244
03062	9.526069	-0.072860	-2.427155	-0.001370	0.001756	-0.001651	0.245248	0.007906	0.969428	0.063609	-0.997943	-0.007953	0.967371	0.063615	-0.245247
03063	9.551142	-0.097303	-2.378601	0.000104	0.001336	-0.001805	0.245256	0.007903	0.969426	0.063611	-0.997943	-0.007957	0.967369	0.063618	-0.245254
03064	9.515125	-0.092894	-2.419164	0.000467	0.002813	-0.002057	0.245249	0.007902	0.969428	0.063617	-0.997943	-0.007959	0.967371	0.063625	-0.245247
03065	9.534072	-0.068169	-2.403984	0.001474	-0.000420	-0.000154	0.245274	0.007884	0.969422	0.063629	-0.997942	-0.007983	0.967363	0.063641	-0.245271
03066	9.515217	-0.092615	-2.418813	-0.003849	0.005408	-0.003401	0.245242	0.007895	0.969430	0.063597	-0.997944	-0.007962	0.967374	0.063605	-0.245240
03067	9.546665	-0.084633	-2.430692	-0.002480	0.003652	-0.001750	0.245227	0.007890	0.969434	0.063574	-0.997945	-0.007960	0.967379	0.063583	-0.245225
03068	9.534277	-0.067480	-2.403190	0.002687	-0.000979	-0.001860	0.245256	0.007889	0.969426	0.063603	-0.997943	-0.007970	0.967370	0.063613	-0.245254
03069	9.515356	-0.091980	-2.418290	-0.001733	0.000279	-0.001399	0.245274	0.007883	0.969422	0.063587	-0.997944	-0.007974	0.967366	0.063598	-0.245271
03070	9.518553	-0.075648	-2.448482	-0.001006	0.003233	-0.001903	0.245265	0.007879	0.969424	0.063578	-0.997945	-0.007974	0.967369	0.063589	-0.245262
03071	9.514052	-0.054224	-2.398229	-0.001733	0.000279	-0.001399	0.245282	0.007873	0.969420	0.063561	-0.997946	-0.007977	0.967366	0.063574	-0.245279
03072	9.554676	-0.079524	-2.407494	0.001577	0.000917	-0.001958	0.245293	0.007872	0.969417	0.063578	-0.997945	-0.007983	0.967362	0.063592	-0.245289
03073	9.515489	-0.091280	-2.417794	0.000104	0.001336	-0.001805	0.245300	0.007870	0.969415	0.063581	-0.997945	-0.007987	0.967360	0.063595	-0.245296
03074	9.523422	-0.087005	-2.394869	0.000987	0.003093	0.001049	0.245292	0.007837	0.969417	0.063583	-0.997944	-0.008021	0.967362	0.063606	-0.245286
03075	9.526619	-0.070672	-2.425060	-0.003726	0.000419	-0.004352	0.245307	0.007860	0.969414	0.063555	-0.997946	-0.007991	0.967360	0.063571	-0.245303
