// General information: 
//  MT Manager version: 2019.2.0 
//  XDA version: 2019.2.0 build 3853 rev 94535 built on 2019-09-09
// Device information: 
//  DeviceId: 00B43FA9
//  ProductCode: MTW2-3A7G6
//  Firmware Version: 4.3.5
//  Hardware Version: 1.1.0
// Device settings: 
//  Filter Profile: human(46.1)
//  Option Flags: Orientation Smoother Disabled, AHS Disabled, ICC Disabled
// Coordinate system: ENU
PacketCounter	Acc_X	Acc_Y	Acc_Z	Gyr_X	Gyr_Y	Gyr_Z
24388	9.758883	0.058239	0.108203	-0.000273	0.003662	0.000726
24389	9.746888	0.075709	0.088698	0.000369	0.003696	-0.002320
24390	9.754431	0.084549	0.097274	0.001514	0.004250	0.001229
24391	9.753267	0.094157	0.125951	0.000531	0.004523	-0.000196
24392	9.762496	0.062377	0.103764	-0.000137	0.001831	0.000363
24393	9.757730	0.035739	0.089432	0.000457	0.003784	0.000268
24394	9.773353	0.022366	0.102617	-0.000154	0.003791	0.000141
24395	9.737027	0.054169	0.090838	0.000861	0.003560	-0.001607
24396	9.753513	0.062877	0.103184	-0.001330	0.003195	-0.000236
24397	9.739601	0.119892	0.090541	0.001170	0.005866	-0.000411
24398	9.766734	0.087621	0.076490	0.001604	0.003030	0.000988
24399	9.743137	0.071873	0.106139	-0.000246	0.005012	0.000382
24400	9.753135	0.010175	0.105296	-0.000080	0.004531	-0.000324
24401	9.751506	0.018305	0.086180	-0.000200	0.004402	0.000261
24402	9.757642	0.036048	0.098455	0.000130	0.003439	-0.001150
24403	9.749018	0.088961	0.097726	0.001141	0.004516	-0.000068
24404	9.770347	0.091755	0.074626	0.001261	0.004645	-0.000653
24405	9.747598	0.097945	0.103312	-0.000257	0.001702	0.000947
24406	9.752330	0.040365	0.090014	-0.000692	0.004538	-0.000452
24407	9.752319	0.040515	0.091059	0.001306	0.004035	-0.000773
24408	9.766525	0.036114	0.107905	0.000993	0.003038	0.000860
24409	9.739158	0.067436	0.099781	-0.000674	0.002578	-0.000230
24410	9.758431	0.058260	0.104823	0.000770	0.004782	-0.001365
24411	9.750343	0.080453	0.101204	-0.000766	0.003799	0.000012
24412	9.756273	0.097304	0.089559	0.001186	0.003906	-0.000188
24413	9.760668	0.071205	0.103200	-0.000349	0.002923	0.001189
24414	9.752936	0.061671	0.072519	0.000085	0.004050	-0.001029
24415	9.758733	0.026730	0.082555	-0.000395	0.003534	0.001309
24416	9.739627	0.036929	0.103320	0.000159	0.004789	-0.001493
24417	9.747148	0.045858	0.112006	0.000575	0.003914	-0.000316
24418	9.762883	0.084480	0.103672	0.000770	0.004782	-0.001365
24419	9.756203	0.097786	0.096436	-0.000081	0.004531	-0.000324
24420	9.745155	0.085868	0.122161	0.000882	0.006220	0.000880
24421	9.764791	0.044890	0.100854	-0.000738	0.005149	-0.000332
24422	9.744636	0.032588	0.098546	0.001306	0.004036	-0.000773
24423	9.737264	0.024808	0.115712	0.001843	0.003289	-0.000180
24424	9.761778	0.062385	0.087261	0.001426	0.004165	-0.001357
24425	9.742650	0.072683	0.108033	0.000409	0.004396	0.000389
24426	9.756119	0.098242	0.104104	-0.000646	0.003928	-0.000574
24427	9.751405	0.071770	0.090109	0.000529	0.004525	-0.000196
24428	9.756642	0.067620	0.103283	0.001750	0.004510	0.000062
24429	9.757180	0.036877	0.101271	-0.000110	0.003182	0.000019
24430	9.739307	0.037265	0.094236	0.001065	0.003778	0.000397
24431	9.748229	0.037054	0.099191	-0.000693	0.004539	-0.000453
24432	9.747672	0.067698	0.103050	-0.000351	0.002924	0.001188
24433	9.749941	0.080399	0.099428	0.000454	0.003785	0.000268
24434	9.746968	0.097396	0.083909	-0.000813	0.004410	0.000131
24435	9.740990	0.080764	0.097454	0.000251	0.003569	-0.001735
24436	9.751872	0.041034	0.095640	-0.001498	0.003678	0.000466
24437	9.748039	0.036326	0.080883	0.000038	0.004661	-0.000909
24438	9.755547	0.045016	0.089376	-0.000305	0.002313	0.001067
24439	9.755539	0.044880	0.090207	0.001750	0.004511	0.000062
24440	9.739402	0.088965	0.081920	-0.000082	0.004532	-0.000325
24441	9.738099	0.098698	0.110607	0.000408	0.004396	0.000389
24442	9.751143	0.070888	0.080584	-0.000036	0.003922	-0.000445
24443	9.752667	0.062865	0.101753	0.000575	0.003915	-0.000316
24444	9.748094	0.037330	0.111537	0.001473	0.003555	-0.001477
24445	9.760709	0.041169	0.108242	-0.000888	0.003671	0.000595
24446	9.757754	0.058123	0.092631	-0.000157	0.003793	0.000139
24447	9.751100	0.071400	0.085135	0.000862	0.003562	-0.001606
24448	9.748253	0.089478	0.093503	0.000528	0.004526	-0.000196
24449	9.754885	0.076360	0.102984	0.000407	0.004397	0.000389
24450	9.748789	0.058686	0.092568	-0.000721	0.003190	-0.000111
24451	9.756940	0.037454	0.122029	0.000453	0.003786	0.000268
24452	9.756831	0.036776	0.099091	0.001427	0.004166	-0.001356
24453	9.752465	0.062814	0.087362	-0.000982	0.004893	0.000835
24454	9.743626	0.063553	0.108332	0.000822	0.003521	0.001567
24455	9.749610	0.080273	0.096451	0.000713	0.002083	-0.000678
24456	9.736884	0.075777	0.077732	0.000999	0.006351	0.000296
24457	9.747300	0.067392	0.103224	-0.000814	0.004411	0.000130
24458	9.753842	0.053433	0.088794	-0.000204	0.004404	0.000259
24459	9.751547	0.040521	0.094079	0.000546	0.002565	0.000027
24460	9.747830	0.036538	0.102977	0.000453	0.003786	0.000268
24461	9.770232	0.062049	0.103254	0.000188	0.006142	-0.001838
24462	9.734054	0.094536	0.115407	-0.000400	0.003536	0.001308
24463	9.751813	0.093049	0.100480	0.000970	0.005001	0.000639
24464	9.740596	0.080340	0.101790	-0.000018	0.001961	-0.000223
24465	9.758983	0.049205	0.107581	0.001138	0.004519	-0.000066
24466	9.756619	0.035504	0.089198	-0.000815	0.004412	0.000129
24467	9.756669	0.036301	0.114107	-0.000768	0.003801	0.000009
24468	9.750897	0.071297	0.105984	0.000649	0.004656	-0.000780
24469	9.758321	0.079246	0.090759	-0.002111	0.003686	0.000333
24470	9.758315	0.079114	0.091582	0.000377	0.003047	0.000732
24471	9.745724	0.075979	0.120438	-0.001622	0.003550	0.001048
24472	9.747091	0.066161	0.093755	-0.000037	0.003923	-0.000446
24473	9.761751	0.031077	0.107905	-0.000815	0.004412	0.000129
24474	9.751396	0.040191	0.108766	-0.001472	0.005030	0.000120
24475	9.761125	0.061136	0.089059	-0.001042	0.002845	-0.001531
24476	9.750773	0.070509	0.089591	0.000574	0.003916	-0.000316
24477	9.739027	0.089475	0.117997	-0.000741	0.005152	-0.000335
24478	9.767116	0.078331	0.079474	0.001841	0.003291	-0.000176
24479	9.755930	0.066491	0.104841	-0.001473	0.005030	0.000119
24480	9.744681	0.053128	0.082409	0.000742	0.003434	-0.001020
24481	9.763202	-0.064407	-0.079205	0.000945	0.044577	-0.020264
24482	9.758217	0.143979	0.285272	0.001282	0.024483	-0.009807
24483	9.749016	0.088781	0.162830	0.000544	0.002566	0.000028
24484	9.747600	0.096252	0.142162	0.000986	-0.006200	0.005272
24485	9.775639	0.026970	-0.065118	0.002615	0.020634	-0.006512
24486	9.793068	0.112551	0.002032	0.003321	0.030004	-0.002441
24487	9.827856	0.061614	-0.193713	0.002569	0.180054	-0.011396
24488	9.785777	0.053884	0.000910	-0.002210	0.267893	-0.016046
24489	9.793873	0.035741	0.058495	-0.022257	0.358282	-0.022326
24490	9.787163	0.144155	0.238140	-0.048241	0.420969	-0.018723
24491	9.812953	0.099859	0.245106	-0.042361	0.493976	-0.014570
24492	9.759522	0.101029	0.493503	-0.046760	0.573551	-0.026202
24493	9.582402	0.051717	1.233776	-0.023525	0.493079	-0.029023
24494	9.700418	0.064775	0.907141	-0.003630	0.338458	-0.037007
24495	9.785877	0.061752	0.624890	0.004824	0.400813	-0.047149
24496	9.745699	0.101599	0.893079	-0.004170	0.513729	-0.057387
24497	9.643828	0.160649	1.287449	-0.013444	0.509766	-0.060920
24498	9.610554	0.176735	1.468063	-0.033710	0.439619	-0.061249
24499	9.663166	0.164627	1.344523	-0.012102	0.392758	-0.052528
24500	9.661921	0.175393	1.350754	-0.001502	0.443075	-0.060016
24501	9.628510	0.197810	1.595309	-0.001457	0.470059	-0.060741
24502	9.602715	0.220801	1.681120	-0.002266	0.456022	-0.061622
24503	9.627815	0.196554	1.674832	-0.004796	0.495194	-0.061139
24504	9.603326	0.313654	1.923207	-0.008176	0.548237	-0.057269
24505	9.515405	0.346213	2.217924	-0.017306	0.493026	0.004815
24506	9.500032	0.249054	2.168536	-0.011959	0.490152	0.003096
24507	9.463017	0.253481	2.343339	0.002492	0.453678	0.006908
24508	9.489798	0.261724	2.350717	0.009338	0.471889	0.008458
24509	9.416976	0.232417	2.532942	0.006151	0.462481	0.006401
24510	9.411824	0.212000	2.596191	0.027228	0.471830	0.014391
24511	9.348041	0.235139	2.791571	0.044026	0.466192	0.016998
24512	9.312815	0.247618	2.915035	0.050012	0.428680	0.021394
24513	9.392262	0.236690	2.711415	0.044140	0.466089	0.017214
24514	9.314403	0.260412	2.907183	0.043495	0.544474	0.018490
24515	9.236388	0.257961	3.134634	0.032095	0.578715	0.017877
24516	9.175013	0.227304	3.341201	-0.008003	0.591137	0.009078
24517	9.142294	0.222386	3.402781	-0.011928	0.594995	0.007292
24518	9.116953	0.212453	3.460185	-0.015324	0.636422	0.007753
24519	9.052171	0.230986	3.603932	-0.024948	0.693837	0.006234
24520	8.909323	0.241879	3.942330	-0.027897	0.720132	0.006060
24521	8.786941	0.217275	4.313646	-0.023830	0.666381	0.006490
24522	8.697435	0.219969	4.505000	-0.016511	0.539882	0.004989
24523	8.809890	0.213682	4.215208	-0.012442	0.479044	0.005601
24524	8.746687	0.206307	4.296596	-0.013972	0.542782	0.007517
24525	8.630837	0.194194	4.599212	-0.017424	0.560461	0.009381
24526	8.550303	0.205226	4.791341	-0.016425	0.519848	0.006825
24527	8.491679	0.188200	4.871430	-0.014870	0.475172	0.008596
24528	8.505156	0.219389	4.784194	-0.014980	0.453946	0.006385
24529	8.434003	0.212386	4.919315	-0.013467	0.501631	0.010361
24530	8.283845	0.210625	5.287910	0.001967	0.469138	0.015777
24531	8.269009	0.214116	5.286836	0.041421	0.368479	0.039402
24532	8.288111	0.176562	5.220990	0.074376	0.356021	0.061715
24533	8.262801	0.198605	5.268719	0.075746	0.354740	0.062693
24534	8.211501	0.189553	5.243117	0.113983	0.416530	0.090178
24535	8.119930	0.128970	5.467811	0.066899	0.442310	0.058270
24536	7.990333	0.176229	5.724709	0.036885	0.408519	0.039844
24537	8.047579	0.150363	5.540347	0.019177	0.391831	0.026834
24538	7.939917	0.143231	5.743028	0.004264	0.425997	0.018928
24539	7.911361	0.159136	5.752262	-0.005193	0.430023	0.011203
24540	7.849346	0.164203	5.804145	-0.003581	0.444123	0.013413
24541	7.817037	0.161974	5.809879	-0.002022	0.506029	0.017005
24542	7.704072	0.160432	5.943910	-0.012459	0.573123	0.010030
24543	7.589836	0.154674	6.168524	-0.017385	0.601215	0.011017
24544	7.412541	0.166142	6.506680	-0.013869	0.566703	0.011928
24545	7.342794	0.135257	6.605114	-0.008857	0.463705	0.010423
24546	7.424477	0.132198	6.293335	-0.011049	0.461285	0.011131
24547	7.297195	0.145134	6.536701	-0.004390	0.553487	0.020543
24548	7.060357	0.138837	7.004256	-0.004299	0.472978	0.023902
24549	6.697661	0.095032	7.857724	0.006581	0.171516	-0.003306
24550	7.314292	0.040027	6.334518	0.003591	0.014805	-0.000451
24551	7.138842	0.157774	6.725408	0.040830	0.142100	-0.015257
24552	6.957813	0.217108	7.108578	0.029811	0.071574	-0.003871
24553	7.005366	0.188264	6.973635	0.002768	-0.042124	0.019943
24554	7.128078	0.105796	6.757401	-0.007996	-0.067457	0.023121
24555	7.123176	0.119120	6.732382	-0.009436	-0.047042	0.014476
24556	7.155333	0.135797	6.673162	-0.005738	-0.021787	0.007297
24557	7.143076	0.104838	6.687380	0.000651	0.001125	0.002171
24558	7.119352	0.120682	6.741980	0.006215	0.038477	-0.007945
24559	7.164662	0.102586	6.684966	0.008705	0.045425	-0.010812
24560	7.090207	0.137488	6.796462	0.012769	0.067796	-0.014615
24561	7.072255	0.168653	6.873549	0.008272	0.043997	-0.007662
24562	7.060004	0.152628	6.838840	0.000627	0.007635	-0.000216
24563	7.065755	0.173635	6.846785	-0.003468	-0.017338	0.005266
24564	7.098884	0.151680	6.777314	-0.006238	-0.033803	0.010432
24565	7.119673	0.139377	6.744576	-0.004017	-0.019935	0.006598
24566	7.157626	0.104837	6.653526	-0.000163	0.003592	0.000651
24567	7.123618	0.108701	6.702575	0.011113	0.055542	-0.010823
24568	7.104557	0.127008	6.790693	0.009776	0.058041	-0.012698
24569	7.083146	0.149183	6.795762	0.012065	0.066005	-0.013238
24570	7.048721	0.185631	6.869278	0.009181	0.052880	-0.009695
24571	7.050728	0.182671	6.861622	0.001972	0.018775	-0.002220
24572	7.056218	0.169310	6.839739	0.001807	0.011390	0.000618
24573	7.046839	0.161021	6.864650	-0.002463	-0.009834	0.002276
24574	7.053393	0.150600	6.860065	-0.004667	-0.024745	0.007411
24575	7.091716	0.127971	6.798551	-0.007772	-0.040357	0.011789
24576	7.133816	0.105103	6.694120	-0.002297	-0.007104	0.003715
24577	7.100145	0.160577	6.793948	0.004871	0.025410	-0.003374
24578	7.088066	0.148991	6.738809	0.006207	0.037567	-0.006671
24579	7.038417	0.194749	6.890540	0.008164	0.046396	-0.008000
24580	7.081043	0.149118	6.792304	0.003673	0.028020	-0.002132
24581	7.064508	0.163890	6.812689	0.002513	0.027731	-0.001473
24582	7.058183	0.160323	6.839623	0.003400	0.034782	0.001367
24583	7.073173	0.141796	6.764069	0.008083	0.047547	-0.002557
24584	7.032871	0.168265	6.870992	0.004714	0.068998	-0.006339
24585	7.013563	0.162005	6.905779	0.005118	0.045869	-0.003420
24586	7.020555	0.184195	6.886574	0.005347	0.037338	-0.002054
24587	7.006334	0.172395	6.885209	0.003488	0.030674	-0.000203
24588	7.013651	0.163072	6.854238	0.001290	0.035903	-0.001351
24589	6.961950	0.171371	6.950878	0.001651	0.012152	0.000671
24590	7.016276	0.163007	6.877060	0.001948	-0.006856	0.005161
24591	7.005875	0.167561	6.880286	0.003866	-0.010630	0.006425
24592	7.046818	0.172945	6.810536	0.002879	-0.009026	0.005337
24593	7.054878	0.172018	6.776730	0.004386	0.025892	0.001653
24594	7.038755	0.165074	6.808259	0.005680	0.052011	-0.003282
24595	6.951746	0.167947	6.942909	0.005724	0.058121	-0.003479
24596	6.965885	0.180561	6.931433	0.001334	0.026512	0.000453
24597	6.994148	0.174678	6.922744	0.002528	0.019432	-0.000978
24598	7.013442	0.168656	6.834245	0.003278	0.036409	-0.002179
24599	6.932760	0.179660	6.984954	0.002576	0.035549	-0.002088
24600	6.938662	0.192642	6.994694	-0.000227	-0.007996	0.001940
24601	7.020377	0.176920	6.825088	-0.001199	-0.018460	0.004361
24602	7.015194	0.150732	6.836856	0.001362	0.009130	0.000587
24603	7.162259	0.131955	6.576037	0.009235	0.100779	-0.009503
24604	7.034208	0.136013	6.759426	0.019982	0.233735	-0.025634
24605	6.933092	0.166324	6.919770	0.021644	0.274622	-0.028882
24606	6.690961	0.227986	7.316177	0.006609	0.196808	-0.027712
24607	6.995702	0.135066	6.707815	-0.011667	0.251306	-0.061833
24608	6.763803	0.232933	7.154953	-0.008750	0.319933	-0.070606
24609	6.761960	0.234530	7.065596	-0.000758	0.323163	-0.061384
24610	6.679715	0.251665	7.232661	0.022873	0.348488	-0.040061
24611	6.535784	0.249301	7.355738	0.030843	0.309513	-0.027409
24612	6.561337	0.241456	7.317062	0.028311	0.293175	-0.028271
24613	6.476585	0.257454	7.384895	0.030038	0.299063	-0.029021
24614	6.457786	0.260800	7.360729	0.028013	0.302460	-0.031528
24615	6.393874	0.297948	7.432949	0.025530	0.323426	-0.036125
24616	6.278747	0.325302	7.590908	0.024134	0.318279	-0.037697
24617	6.235334	0.321281	7.623419	0.023351	0.278350	-0.030516
24618	6.225423	0.296821	7.563546	0.026547	0.275185	-0.028125
24619	6.120556	0.323243	7.730849	0.024562	0.276246	-0.031160
24620	6.095958	0.369519	7.722993	0.022602	0.240751	-0.022206
24621	6.087661	0.348178	7.678858	0.045424	0.231364	0.009255
24622	6.060993	0.319629	7.651920	0.042623	0.284358	-0.008028
24623	5.925938	0.352410	7.863696	0.027252	0.283330	-0.026893
24624	6.053286	0.318505	7.535187	0.027660	0.318635	-0.038449
24625	5.992912	0.226601	7.553795	0.031365	0.501500	-0.078850
24626	5.809330	0.238996	7.820566	-0.058657	0.593147	-0.223163
24627	5.592265	0.535422	7.984906	-0.014600	0.656789	-0.178319
24628	5.276707	0.564121	8.470931	0.040283	0.623106	-0.108133
24629	5.148215	0.541726	8.612489	0.038167	0.459186	-0.069150
24630	5.240591	0.599287	8.351198	-0.005746	0.355468	-0.029260
24631	5.193329	0.507776	8.344895	-0.001953	0.341298	-0.007841
24632	5.169110	0.521859	8.314301	-0.011426	0.349639	0.004498
24633	5.123690	0.482073	8.309888	-0.003771	0.399679	0.022624
24634	4.941750	0.491532	8.519500	-0.005711	0.418051	0.021948
24635	4.849636	0.487145	8.521216	0.006468	0.403816	0.042010
24636	4.813371	0.455209	8.517695	0.005459	0.423784	0.039896
24637	4.683558	0.410445	8.650446	-0.004357	0.431563	0.015931
24638	4.650098	0.448154	8.618586	-0.022215	0.444056	-0.009579
24639	4.497131	0.503300	8.751362	-0.018093	0.459492	0.005666
24640	4.464149	0.530581	8.721164	0.007493	0.459991	0.060592
24641	4.333007	0.447912	8.774923	0.024571	0.487510	0.091860
24642	4.155753	0.368234	8.926806	0.010881	0.489875	0.064406
24643	4.030846	0.378304	8.986130	-0.009838	0.477831	0.010063
24644	4.020445	0.493199	8.954494	-0.010747	0.469934	0.011261
24645	3.899129	0.547488	9.049006	0.020128	0.470727	0.082794
24646	3.811643	0.411404	8.999111	0.039912	0.487499	0.125492
24647	3.696279	0.246433	9.038740	0.007523	0.528472	0.056705
24648	3.539141	0.380150	9.163033	-0.026212	0.562169	-0.017683
24649	3.413766	0.410405	9.231786	-0.032358	0.565864	-0.028932
24650	3.314352	0.416322	9.213692	-0.034726	0.570611	-0.026868
24651	3.159147	0.402517	9.288761	-0.037487	0.592574	-0.030004
24652	2.968676	0.420504	9.426447	-0.034846	0.581254	-0.023987
24653	2.893085	0.415930	9.407487	-0.031231	0.572192	-0.013460
24654	2.686214	0.447607	9.545118	-0.023137	0.552258	0.010488
24655	2.587499	0.379356	9.584866	-0.014518	0.508359	0.035128
24656	2.500075	0.302471	9.484160	-0.021631	0.496607	0.007100
24657	2.299084	0.282731	9.657818	-0.031625	0.483777	-0.039337
24658	2.207726	0.285407	9.668237	-0.040587	0.443612	-0.082864
24659	2.138416	0.393137	9.707081	-0.038520	0.387916	-0.097833
24660	2.137850	0.386442	9.598314	-0.031714	0.390523	-0.065650
24661	1.969868	0.266322	9.643313	-0.035483	0.403875	-0.081946
24662	1.876580	0.344405	9.704872	-0.039780	0.414778	-0.111662
24663	1.739067	0.336104	9.754105	-0.041248	0.387359	-0.115185
24664	1.677901	0.517584	9.877894	-0.030662	0.325471	-0.078344
24665	1.670498	0.474161	9.747037	-0.010149	0.287284	0.033371
24666	1.648903	0.335391	9.610491	-0.006172	0.308510	0.055371
24667	1.517346	0.258768	9.560288	-0.014296	0.394584	0.033655
24668	1.316360	0.290223	9.609918	-0.028112	0.490009	-0.014918
24669	1.241768	0.356353	9.946617	-0.032349	0.506199	0.005176
24670	1.201040	0.161334	9.839622	-0.027585	0.420052	-0.028701
24671	1.062346	0.381331	9.719547	-0.026267	0.440892	-0.043105
24672	0.858927	0.154247	9.812396	-0.021228	0.494289	-0.025810
24673	0.691756	0.170195	10.031858	-0.016133	0.446739	-0.097541
24674	0.742667	0.444666	10.199391	0.005827	0.317871	-0.093220
24675	0.838146	0.399457	9.721608	-0.003682	0.195495	-0.034624
24676	0.594879	0.153308	9.814264	0.012944	0.368057	-0.028995
24677	0.495013	0.259294	9.951804	0.006442	0.340048	-0.101158
24678	0.344225	0.356051	9.949088	-0.017393	0.294904	-0.106188
24679	0.321068	0.382799	9.939835	-0.017110	0.269268	-0.059374
24680	0.362889	0.371485	9.807283	-0.019243	0.264661	-0.005189
24681	0.124134	0.247601	10.083215	-0.032329	0.250395	0.006508
24682	0.039588	0.217648	10.124824	0.005958	0.011262	-0.047596
24683	0.198485	0.457927	9.847388	-0.006533	0.005312	0.001595
24684	0.193316	0.337900	9.886445	-0.038298	0.005793	0.073192
24685	0.243179	0.200463	9.895940	-0.040830	0.007292	0.068517
24686	0.237651	0.188951	9.883601	-0.017037	0.005490	0.030138
24687	0.200974	0.231305	9.858351	-0.000609	0.002298	-0.006093
24688	0.213267	0.294421	9.886436	-0.013280	0.002563	-0.012818
24689	0.204389	0.276048	9.893542	-0.028775	0.004339	0.009645
24690	0.194815	0.238537	9.868204	-0.032594	0.003907	0.000271
24691	0.222518	0.298223	9.882283	-0.044998	0.004848	0.006679
24692	0.227612	0.128686	9.871246	-0.020443	0.004664	0.001876
24693	0.199148	0.165915	9.860170	-0.001513	0.001551	-0.022526
24694	0.191519	0.221465	9.890255	-0.004450	0.001276	-0.055687
24695	0.219412	0.317262	9.872795	-0.000849	0.002198	0.003811
24696	0.154957	0.225107	9.885499	-0.003326	-0.000328	0.048598
24697	0.256899	0.203925	9.896298	-0.016068	-0.017292	-0.005893
24698	0.261703	0.230375	9.886379	-0.019611	-0.020447	-0.000644
24699	0.258120	0.173711	9.860105	-0.020833	-0.021609	0.008633
24700	0.258365	0.172436	9.860120	0.010727	0.019785	0.000623
24701	0.146156	0.278703	9.962668	-0.020994	-0.028013	0.003404
24702	0.316702	0.145467	9.796311	-0.020206	-0.025246	0.005274
24703	0.317828	0.143917	9.796298	0.007826	0.016177	0.003315
24704	0.189617	0.249709	9.918465	0.052909	0.074840	-0.003848
24705	0.151161	0.257991	9.958201	-0.015359	-0.017703	0.001950
24706	0.274416	0.153229	9.805919	-0.007049	-0.002869	0.002245
24707	0.268932	0.188206	9.826559	0.011563	0.019945	0.000792
24708	0.209277	0.275637	9.923924	0.040989	0.059119	-0.005329
24709	0.164616	0.185501	9.905820	0.000474	0.002614	0.001359
24710	0.203557	0.229898	9.870880	0.001257	0.005389	0.003229
24711	0.226474	0.220771	9.881114	-0.000292	0.003004	0.000279
24712	0.209795	0.225272	9.884976	0.000941	0.003646	0.002323
24713	0.200856	0.221231	9.881398	0.000418	0.003638	0.002665
24714	0.219791	0.208001	9.879091	-0.000198	0.003317	0.001643
24715	0.215046	0.216796	9.877592	0.000110	0.003478	0.002154
24716	0.194650	0.229921	9.879929	-0.001037	0.001567	0.001080
24717	0.217834	0.238521	9.869235	-0.000254	0.004341	0.002950
24718	0.204788	0.225091	9.885085	0.000026	0.004746	0.001185
24719	0.204042	0.225285	9.885096	0.001605	0.001360	0.001644
24720	0.215011	0.217040	9.868725	0.000026	0.004745	0.001185
24721	0.202050	0.212731	9.874097	0.000633	0.003484	0.001812
24722	0.205257	0.216996	9.886660	0.001529	0.004209	0.001069
24723	0.216286	0.221666	9.881323	0.000848	0.003331	0.000958
24724	0.199388	0.226343	9.885166	0.001165	0.005073	0.001864
24725	0.202307	0.235934	9.865757	0.002136	0.002948	0.001697
24726	0.205533	0.218267	9.877762	-0.000786	0.002752	0.002896
24727	0.204862	0.218320	9.877775	0.001306	0.002780	0.001528
24728	0.203973	0.209667	9.888257	0.001622	0.004522	0.002433
24729	0.190675	0.210861	9.861645	0.001622	0.004521	0.002433
24730	0.209709	0.210693	9.870392	0.000633	0.003483	0.001811
24731	0.221140	0.228059	9.876088	0.000783	0.002772	0.001870
24732	0.204259	0.219879	9.868890	0.000941	0.003643	0.002322
24733	0.199586	0.219861	9.877849	0.000475	0.002612	0.001358
24734	0.218948	0.228375	9.876130	-0.000786	0.002751	0.002896
24735	0.197925	0.207123	9.866850	0.001987	0.003657	0.001638
24736	0.213183	0.203111	9.863044	0.001605	0.001358	0.001644
24737	0.201203	0.224575	9.890436	-0.000047	0.002605	0.001700
24738	0.204349	0.215725	9.891981	-0.000104	0.003628	0.003006
24739	0.195358	0.220573	9.877917	0.000485	0.004192	0.001753
24740	0.218642	0.224348	9.899232	0.001306	0.002778	0.001528
24741	0.209616	0.216370	9.874140	-0.000935	0.003461	0.002837
24742	0.216787	0.211543	9.888244	0.000942	0.003642	0.002322
24743	0.212035	0.220510	9.886728	0.000327	0.003321	0.001300
24744	0.203152	0.216500	9.883130	0.001157	0.003488	0.001469
24745	0.214355	0.212060	9.888286	0.000476	0.002611	0.001358
24746	0.197741	0.225813	9.881617	0.001988	0.003655	0.001639
24747	0.208709	0.221576	9.886775	0.001316	0.004358	0.001922
24748	0.203665	0.226830	9.863758	0.000850	0.003328	0.000958
24749	0.202687	0.205159	9.863223	0.000476	0.002611	0.001358
24750	0.206009	0.218211	9.865320	-0.000038	0.004184	0.002094
24751	0.212942	0.218594	9.847457	0.000327	0.003321	0.001299
24752	0.216242	0.213703	9.870505	0.000543	0.003167	0.000446
24753	0.191718	0.226918	9.881711	0.000419	0.003633	0.002664
24754	0.222632	0.217977	9.874158	-0.000504	0.003154	0.001129
24755	0.209811	0.231445	9.858551	-0.000776	0.004330	0.003288
24756	0.216790	0.208640	9.893618	0.001059	0.003708	0.005962
24757	0.216339	0.248593	9.873227	0.000394	0.003120	0.013984
24758	0.267227	0.269928	9.864549	0.001393	0.008732	0.079996
24759	0.227184	0.186892	9.857447	-0.003535	0.018710	0.071314
24760	0.256819	0.237592	9.825287	-0.045188	0.104339	0.004422
24761	0.164884	0.207254	9.882950	-0.055423	0.123273	-0.003514
24762	0.150570	0.189186	9.880013	-0.054305	0.121067	-0.000073
24763	0.225363	0.243353	9.824554	-0.072884	0.156228	0.001279
24764	-0.192706	0.033376	9.973147	-0.013382	0.031722	0.001758
24765	0.120495	0.177353	9.896303	-0.002388	0.006347	0.010554
24766	0.090707	0.160837	9.872402	0.000882	0.008823	0.030192
24767	0.270138	0.045934	9.827669	0.040564	0.075484	0.053622
24768	-0.071654	0.206792	9.910892	0.069542	0.124944	0.011920
24769	0.108587	0.162435	9.865303	0.051274	0.090530	0.006455
24770	0.075587	0.177116	9.843800	0.098949	0.180009	0.022023
24771	-0.001072	0.188275	9.863945	0.134031	0.242441	0.001754
24772	-0.322855	0.456529	9.963776	0.103932	0.182007	0.004212
24773	-0.150685	0.293475	9.884882	0.007845	0.062499	0.041093
24774	-0.130016	0.293646	9.894850	0.001283	0.124070	0.013965
24775	-0.172345	0.284901	9.877775	-0.006290	0.125856	0.017520
24776	-0.176562	0.278719	9.892568	-0.001507	0.162090	0.022757
24777	-0.293507	0.272996	9.854319	0.006321	0.183982	0.024832
24778	-0.237398	0.241004	9.882059	0.039331	0.185175	-0.009699
24779	-0.350687	0.313326	9.883534	0.042554	0.255695	-0.025773
24780	-0.406007	0.312849	9.874026	0.025832	0.257723	-0.003758
24781	-0.490567	0.331491	9.871637	0.015363	0.267885	0.014786
24782	-0.567258	0.292985	9.839707	0.019497	0.266973	0.013850
24783	-0.519189	0.309308	9.855835	0.029159	0.306303	-0.015255
24784	-0.595820	0.312533	9.856913	0.039208	0.405653	-0.056448
24785	-0.724534	0.310444	9.827562	0.053037	0.488830	-0.064521
24786	-0.827279	0.323017	9.855747	0.067904	0.568323	-0.069660
24787	-1.009082	0.321287	9.801185	0.106256	0.680614	-0.119385
24788	-1.366161	0.415647	9.811726	0.105197	0.684398	-0.106131
24789	-1.390440	0.426471	9.784349	0.088082	0.630957	-0.061785
24790	-1.547122	0.444497	9.751086	0.080509	0.690717	-0.077936
24791	-1.831969	0.515328	9.709889	0.056726	0.663488	-0.078291
24792	-1.950642	0.498675	9.705117	0.008143	0.600001	-0.027969
24793	-2.079700	0.462135	9.649243	-0.017956	0.581205	0.010039
24794	-2.223183	0.448675	9.637452	-0.030165	0.540750	0.030645
24795	-2.290496	0.434382	9.606544	-0.028511	0.536191	0.029799
24796	-2.403750	0.446405	9.575834	-0.040493	0.549772	0.068699
24797	-2.608867	0.415323	9.516849	-0.046576	0.540179	0.088565
24798	-2.721086	0.419370	9.493290	-0.034012	0.523060	0.063619
24799	-2.835061	0.415407	9.450813	-0.036310	0.499676	0.062128
24800	-2.891378	0.413996	9.457924	-0.046770	0.504630	0.079693
24801	-3.011420	0.403683	9.407429	-0.061194	0.522866	0.100613
24802	-3.204533	0.390092	9.353334	-0.055472	0.523974	0.094842
24803	-3.294497	0.384718	9.313325	-0.038021	0.504174	0.054308
24804	-3.369569	0.399796	9.288002	-0.035392	0.531909	0.014197
24805	-3.593004	0.388821	9.236557	-0.043295	0.527602	-0.001520
24806	-3.662234	0.347738	9.183294	-0.044880	0.472067	0.009219
24807	-3.727621	0.359612	9.129497	-0.043702	0.483521	0.007972
24808	-3.956824	0.349329	9.094889	-0.033854	0.455644	0.010145
24809	-3.935110	0.323448	9.042261	-0.026445	0.429596	-0.000450
24810	-4.044528	0.309818	9.015297	-0.010374	0.432200	-0.011853
24811	-4.162438	0.354739	8.975537	-0.017146	0.415855	0.004700
24812	-4.241104	0.312445	8.932536	-0.007419	0.397817	-0.004938
24813	-4.285714	0.322218	8.914864	-0.001601	0.410307	-0.013230
24814	-4.413078	0.321794	8.841396	0.000968	0.423084	-0.015791
24815	-4.429800	0.318103	8.815541	0.004133	0.440004	-0.029380
24816	-4.526399	0.331774	8.773193	0.004293	0.510020	-0.048433
24817	-4.674357	0.323232	8.700228	-0.011118	0.531440	-0.024677
24818	-4.788720	0.304835	8.625569	-0.018253	0.571500	-0.013807
24819	-4.922307	0.261944	8.542935	-0.001606	0.598362	-0.016099
24820	-5.085719	0.274295	8.469000	0.021686	0.617920	-0.035045
24821	-5.267196	0.339565	8.399627	0.012807	0.606070	-0.029455
24822	-5.347597	0.302021	8.315030	-0.007791	0.564455	-0.014566
24823	-5.475668	0.294421	8.237385	-0.010433	0.547815	-0.007786
24824	-5.511895	0.302032	8.196923	-0.010893	0.560424	-0.019132
24825	-5.776743	0.302263	8.089932	-0.021787	0.550791	-0.016932
24826	-5.831457	0.279433	8.022732	-0.031838	0.478335	0.024125
24827	-5.922513	0.256477	7.955294	-0.022736	0.434130	0.034681
24828	-6.006320	0.258370	7.869352	-0.005380	0.399639	0.019231
24829	-6.075754	0.285514	7.821109	0.003241	0.351591	-0.000632
24830	-6.018275	0.283832	7.801937	-0.008009	0.355121	0.008224
24831	-6.162656	0.261842	7.754509	-0.007146	0.398684	0.006655
24832	-6.276070	0.280710	7.657026	-0.010455	0.362947	0.015831
24833	-6.211345	0.269571	7.636111	-0.003513	0.384042	-0.004533
24834	-6.284915	0.267289	7.564389	0.000924	0.482816	-0.022269
24835	-6.643564	0.261822	7.455701	-0.002100	0.450698	-0.019798
24836	-6.596164	0.253637	7.399817	0.004490	0.341708	-0.018896
24837	-6.466820	0.271422	7.354424	-0.002179	0.379169	-0.019535
24838	-6.675936	0.237902	7.271585	-0.002771	0.466420	-0.020315
24839	-7.160521	0.322125	7.200538	-0.008870	0.354934	-0.015010
24840	-6.835258	0.227542	7.158070	-0.025707	0.096661	-0.026143
24841	-6.834883	0.198856	7.164252	-0.033355	0.120503	-0.034458
24842	-6.791615	0.244239	7.150370	-0.030266	0.109979	-0.030804
24843	-6.775454	0.228444	7.156341	-0.055029	0.184174	-0.054750
24844	-7.084106	0.114246	7.014799	-0.042357	0.136731	-0.038992
24845	-6.948637	0.171438	7.067533	-0.001811	-0.002322	0.007169
24846	-6.870490	0.183570	7.112740	-0.002869	0.011539	0.001150
24847	-6.879171	0.186676	7.096581	-0.009881	0.035383	-0.007279
24848	-6.879636	0.181770	7.084025	-0.020769	0.072717	-0.019887
24849	-7.003116	0.111621	7.044040	-0.010113	0.035712	-0.008582
24850	-6.892171	0.187727	7.075178	-0.002970	0.012743	0.000903
24851	-6.901217	0.180798	7.060927	-0.018027	0.056091	-0.012299
24852	-6.924053	0.170753	7.045490	-0.020269	0.064746	-0.015705
24853	-6.943969	0.166839	7.043919	-0.033530	0.089167	-0.020028
24854	-6.996240	0.132578	7.009642	-0.031632	0.076300	-0.012488
24855	-6.996440	0.095865	6.998445	-0.019909	0.049563	-0.006765
24856	-6.970206	0.112829	7.001768	-0.018187	0.047364	-0.008479
24857	-7.047509	0.097161	6.969056	-0.009817	0.023814	0.000920
24858	-7.029077	0.101134	6.994009	0.004217	-0.014119	0.009952
24859	-7.012942	0.137962	6.970507	0.017258	-0.060096	0.025956
24860	-6.935331	0.156145	7.029085	0.014199	-0.035977	0.018076
24861	-6.985568	0.134862	7.021142	0.009181	-0.029813	0.012516
24862	-6.948276	0.134510	7.028762	0.012169	-0.029920	0.011400
24863	-6.954345	0.113022	7.028599	0.012657	-0.037130	0.016050
24864	-6.922859	0.173077	7.053267	0.006084	-0.014109	0.009634
24865	-6.948022	0.153130	7.038841	-0.000207	0.009129	0.001222
24866	-6.914887	0.164796	7.051117	-0.006675	0.026917	-0.005977
24867	-6.965609	0.127166	7.007274	-0.015899	0.054835	-0.015543
24868	-7.000627	0.132440	7.007391	-0.002719	0.012211	-0.001556
24869	-6.955597	0.135970	7.021489	0.000030	0.009945	-0.000895
24870	-6.976331	0.134854	7.025686	-0.005612	0.016290	-0.002587
24871	-6.948601	0.138303	7.021647	-0.002866	0.015365	-0.001582
24872	-6.993301	0.128771	6.989902	-0.007616	0.031136	-0.006736
24873	-6.979760	0.127209	7.004404	0.000368	0.001869	0.002701
24874	-6.967338	0.144458	7.013164	-0.002338	0.010054	0.000114
24875	-6.966861	0.125987	7.018290	-0.003196	0.018254	-0.002786
24876	-6.991728	0.129465	6.984639	-0.009356	0.028565	-0.006523
24877	-7.021120	0.108996	6.997185	-0.005569	0.024886	-0.003825
24878	-6.993304	0.112894	6.993289	0.000553	0.005974	0.001148
24879	-6.985632	0.134764	6.989482	-0.002477	0.010524	-0.000599
24880	-6.972785	0.132586	7.003403	-0.008212	0.029781	-0.006979
24881	-7.015352	0.116572	6.981405	-0.013047	0.042912	-0.009651
24882	-7.033704	0.109069	6.969882	-0.010822	0.029065	-0.003861
24883	-7.023065	0.103366	6.976022	-0.001971	0.004052	0.004515
24884	-6.990723	0.124456	6.985647	-0.006940	0.022839	-0.001257
24885	-6.963991	0.107721	6.985486	-0.019747	0.053941	-0.012829
24886	-7.102062	0.072580	6.930738	-0.019133	0.057959	-0.011900
24887	-7.028203	0.104319	6.949360	-0.003258	0.012502	0.002900
24888	-7.048194	0.104162	6.954118	-0.003078	0.004902	0.005774
24889	-7.019953	0.096249	6.947509	-0.000500	0.006220	0.002539
24890	-7.039563	0.096256	6.952647	0.000594	0.006705	0.001623
24891	-6.982909	0.074236	6.973641	0.001742	0.036440	0.001358
24892	-6.986561	0.086689	6.986999	-0.000017	0.100697	0.000452
24893	-7.024770	0.108826	6.948309	0.000257	0.150335	-0.003970
24894	-7.072887	0.082727	6.891393	-0.002008	0.189420	-0.003827
24895	-7.113153	0.098542	6.871582	-0.001233	0.216496	-0.004116
24896	-7.146488	0.080784	6.815068	-0.000793	0.236505	-0.004732
24897	-7.192256	0.087952	6.791149	-0.000906	0.252781	-0.001939
24898	-7.256653	0.079994	6.709460	0.001123	0.263796	-0.003385
24899	-7.312634	0.078298	6.688614	-0.000812	0.256157	-0.002756
24900	-7.306170	0.082617	6.636508	-0.000760	0.257848	-0.003161
24901	-7.364868	0.086720	6.576072	0.000557	0.295091	-0.002587
24902	-7.409096	0.085525	6.540709	0.001161	0.315589	-0.003355
24903	-7.482031	0.086225	6.441299	0.000146	0.326973	-0.005099
24904	-7.546702	0.074738	6.409864	-0.003011	0.326122	-0.007716
24905	-7.565771	0.072086	6.361421	-0.005926	0.335283	-0.010648
24906	-7.587035	0.072764	6.316430	-0.006254	0.382440	-0.012671
24907	-7.667556	0.065559	6.210671	-0.007371	0.436251	-0.015434
24908	-7.758093	0.069541	6.122965	-0.008514	0.476733	-0.018485
24909	-7.834648	0.056586	6.011654	-0.009372	0.486668	-0.017500
24910	-7.974036	0.057134	5.873175	-0.008001	0.467306	-0.016052
24911	-7.968801	0.042815	5.842176	-0.011487	0.423079	-0.013175
24912	-8.021104	0.055895	5.766173	-0.016534	0.457137	-0.007638
24913	-8.130808	0.030924	5.637039	-0.022293	0.448273	-0.003476
24914	-8.149651	0.022241	5.574528	-0.024775	0.446990	-0.002465
24915	-8.181291	0.034775	5.509894	-0.030963	0.493178	-0.001423
24916	-8.274463	0.039404	5.380448	-0.032099	0.540326	-0.002181
24917	-8.379176	0.043309	5.244451	-0.035435	0.551436	-0.004474
24918	-8.459825	0.016827	5.110220	-0.042385	0.518054	0.001662
24919	-8.482081	0.005693	5.053066	-0.051026	0.522627	0.004081
24920	-8.589094	-0.011580	4.896123	-0.044706	0.520278	0.001807
24921	-8.679684	-0.025114	4.771934	-0.031009	0.480993	-0.004628
24922	-8.654965	-0.012872	4.724187	-0.025050	0.456312	-0.006428
24923	-8.729581	-0.007870	4.598485	-0.025333	0.469781	-0.007448
24924	-8.763098	-0.025747	4.511610	-0.022325	0.474563	-0.008528
24925	-8.798519	-0.021986	4.421217	-0.015935	0.509641	-0.014133
24926	-8.987936	-0.056809	4.226628	-0.010554	0.480598	-0.016127
24927	-8.948118	-0.031336	4.191036	-0.016718	0.404459	-0.010112
24928	-8.980414	-0.038524	4.090594	-0.037162	0.414071	0.003763
24929	-8.975495	-0.046656	4.032189	-0.051868	0.429643	0.007036
24930	-9.058380	-0.045387	3.892735	-0.059872	0.484096	0.007855
24931	-9.143720	-0.015665	3.789631	-0.081210	0.455971	0.016806
24932	-9.120074	-0.055017	3.727406	-0.106529	0.456428	0.025126
24933	-9.172449	-0.054127	3.605146	-0.099711	0.492911	0.022840
24934	-9.253044	-0.066378	3.470266	-0.111706	0.490667	0.026458
24935	-9.312595	-0.122633	3.357485	-0.097123	0.472504	0.022232
24936	-9.401069	-0.096879	3.192971	-0.062904	0.406537	0.010259
24937	-9.254644	-0.086176	3.248150	-0.038870	0.377855	0.000797
24938	-9.332997	-0.075214	3.101283	-0.009933	0.501268	-0.015865
24939	-9.562083	-0.088895	2.849990	-0.010386	0.402317	-0.009010
24940	-9.480420	-0.084046	2.847950	-0.015054	0.280154	-0.002204
24941	-9.432715	-0.100660	2.854530	-0.024248	0.274866	0.004960
24942	-9.470652	-0.105584	2.774042	-0.021098	0.302500	0.002178
24943	-9.568934	-0.105709	2.646676	0.014497	0.275300	-0.010933
24944	-9.506469	-0.091429	2.637284	0.010644	0.237094	-0.017981
24945	-9.549741	-0.042674	2.600074	0.011794	0.289239	-0.035881
24946	-9.598764	-0.088370	2.493720	-0.032740	0.271004	-0.131887
24947	-9.569305	-0.126158	2.453479	-0.044766	0.252191	-0.129998
24948	-9.600712	-0.237795	2.351333	-0.033770	0.218986	-0.105220
24949	-9.550203	-0.282677	2.377099	-0.023038	0.227300	-0.054314
24950	-9.572094	-0.226030	2.299207	-0.025097	0.262399	-0.017079
24951	-9.590480	-0.259196	2.239194	-0.028978	0.329476	-0.020880
24952	-9.656967	-0.231849	2.071371	-0.028746	0.310190	0.013714
24953	-9.646280	-0.219657	2.058564	-0.022100	0.266162	0.009521
24954	-9.624394	-0.219627	2.045050	-0.016493	0.297150	0.013522
24955	-9.699203	-0.223477	1.889971	-0.014877	0.326434	0.014847
24956	-9.709862	-0.240843	1.744609	0.001320	0.225945	0.018187
24957	-9.706108	-0.229035	1.797623	0.005656	0.157434	0.017947
24958	-9.698619	-0.206973	1.808023	-0.000732	0.180496	0.003659
24959	-9.692166	-0.199299	1.703851	-0.006044	0.232509	-0.010577
24960	-9.742114	-0.202194	1.643583	-0.005099	0.242821	-0.031969
24961	-9.729257	-0.246492	1.557283	-0.000349	0.194700	-0.033646
24962	-9.712054	-0.251825	1.595810	-0.010864	0.191414	-0.010065
24963	-9.720739	-0.253243	1.541838	-0.010482	0.252421	0.001834
24964	-9.728028	-0.249009	1.458052	0.026206	0.337207	-0.013488
24965	-9.762095	-0.247703	1.373623	0.025029	0.376971	-0.008314
24966	-9.768575	-0.255834	1.263482	0.003627	0.386492	-0.001815
24967	-9.792330	-0.262854	1.146225	0.011003	0.381094	0.008154
24968	-9.801964	-0.219671	1.103288	0.006804	0.380369	0.008843
24969	-9.819521	-0.232918	0.995221	0.015409	0.433822	-0.012848
24970	-9.830464	-0.246695	0.816372	0.008996	0.401122	-0.030284
24971	-9.806606	-0.285573	0.730103	0.002449	0.340757	-0.014386
24972	-9.842823	-0.284186	0.647236	0.006867	0.312062	0.003047
24973	-9.830778	-0.289697	0.582279	0.050589	0.307708	0.016656
24974	-9.848741	-0.229909	0.518149	0.066949	0.243558	0.008182
24975	-9.832924	-0.260748	0.540468	0.023772	0.242227	0.011451
24976	-9.854372	-0.223519	0.400516	-0.002676	0.229807	0.015322
24977	-9.838632	-0.251096	0.380788	0.001365	0.208829	0.015364
24978	-9.846491	-0.257993	0.277892	-0.000118	0.168727	0.014885
24979	-9.846579	-0.248337	0.287545	-0.000542	0.112398	0.010268
24980	-9.848100	-0.251572	0.220649	0.002676	0.071554	0.016713
24981	-9.828770	-0.258700	0.261016	0.029167	0.018746	0.042922
24982	-9.839151	-0.248997	0.318036	0.035578	0.068593	0.066131
24983	-9.868678	-0.158717	0.261298	0.027108	0.096183	0.059243
24984	-9.879908	-0.134458	0.195202	0.004979	0.056202	0.016450
24985	-9.862291	-0.193418	0.177268	-0.002831	0.003229	-0.009603
24986	-9.834009	-0.210415	0.232674	-0.006101	-0.001125	-0.012647
24987	-9.839878	-0.218467	0.261456	-0.005260	0.055619	-0.000428
24988	-9.866100	-0.188627	0.206944	-0.005311	0.071053	-0.009338
24989	-9.836780	-0.202740	0.176189	-0.004571	0.049441	-0.018166
24990	-9.843629	-0.219243	0.181665	-0.002322	0.028809	-0.000025
24991	-9.835089	-0.216197	0.174481	0.003823	0.063858	0.022342
24992	-9.851114	-0.199782	0.122759	0.003996	0.065390	0.032933
24993	-9.854029	-0.179991	0.113197	0.006232	0.049434	0.023931
24994	-9.866481	-0.194985	0.130115	0.004505	0.029838	0.012200
24995	-9.845032	-0.195474	0.123425	0.001166	0.028187	0.009845
24996	-9.855138	-0.171423	0.113324	0.002205	0.027717	0.010822
24997	-9.851216	-0.173712	0.097596	0.002753	0.034686	0.001212
24998	-9.852711	-0.182862	0.093530	0.002085	0.026923	-0.002469
24999	-9.849394	-0.194545	0.060668	0.002420	0.009257	0.001867
25000	-9.845373	-0.196564	0.055086	0.008317	-0.029067	0.012376
25001	-9.865509	-0.174158	0.108036	0.008623	-0.073754	0.015855
25002	-9.857220	-0.165589	0.193092	0.002059	-0.028803	0.006387
25003	-9.843120	-0.173598	0.099589	-0.000539	0.010028	-0.007297
25004	-9.854048	-0.190758	0.083168	0.003884	-0.047932	0.006900
25005	-9.855415	-0.155540	0.209194	0.002092	-0.054478	0.002716
25006	-9.830380	-0.167922	0.225400	-0.005716	0.054628	-0.036817
25007	-9.832674	-0.236805	0.046098	-0.007589	0.012877	0.017973
25008	-9.863211	-0.178238	0.195180	0.002913	-0.009883	0.030188
25009	-9.852126	-0.192809	0.145623	0.001874	0.050660	0.007301
25010	-9.854235	-0.176934	0.114001	-0.000344	0.049046	0.008396
25011	-9.847076	-0.183243	0.109322	0.001013	0.052157	0.011272
25012	-9.857119	-0.164481	0.053067	0.000925	0.018915	0.020634
25013	-9.874025	-0.152966	0.065690	0.001790	-0.025463	0.013322
25014	-9.847638	-0.144805	0.130830	0.000451	-0.039959	-0.007673
25015	-9.844505	-0.189691	0.114300	-0.002806	-0.036335	-0.012373
25016	-9.861123	-0.183541	0.139604	0.000122	-0.072935	0.002857
25017	-9.835653	-0.161430	0.167615	0.000095	-0.042887	-0.006513
25018	-9.867966	-0.170406	0.195393	-0.001189	0.002152	-0.008386
25019	-9.829788	-0.188008	0.139000	0.000048	0.003099	0.005766
25020	-9.865825	-0.151347	0.209347	0.002826	0.015092	0.014812
25021	-9.858165	-0.163992	0.140551	0.001504	0.053307	-0.001650
25022	-9.839719	-0.190735	0.093481	0.002174	0.030423	0.011517
25023	-9.854432	-0.164104	0.116031	0.001256	0.019589	0.008415
25024	-9.854088	-0.185764	0.133857	0.002202	0.021410	0.001867
25025	-9.842508	-0.166666	0.124718	0.001767	0.030391	0.005036
25026	-9.840783	-0.184993	0.092998	0.001486	0.025154	0.013721
25027	-9.859580	-0.153976	0.124211	0.000684	0.019479	0.010864
25028	-9.839490	-0.170646	0.081643	0.001308	-0.000309	0.008044
25029	-9.861833	-0.166298	0.107250	0.000970	-0.017872	0.009660
25030	-9.853804	-0.165801	0.137115	0.002321	0.004091	0.001619
25031	-9.855260	-0.181255	0.095722	-0.000036	0.001353	0.000353
25032	-9.853072	-0.163042	0.114740	0.001956	-0.018959	0.010754
25033	-9.868413	-0.150954	0.084246	0.005352	-0.025193	0.008992
25034	-9.854042	-0.138072	0.129306	0.005730	-0.040486	-0.003118
25035	-9.847350	-0.155094	0.126794	0.003160	-0.041110	-0.000388
25036	-9.850812	-0.173851	0.166518	0.003356	-0.030153	0.003154
25037	-9.858198	-0.169758	0.124359	0.003470	-0.049734	0.013610
25038	-9.857489	-0.147374	0.264592	-0.003248	-0.011186	0.004114
25039	-9.847370	-0.173999	0.192453	-0.015642	0.069693	0.000566
25040	-9.858389	-0.151641	0.189476	-0.029585	0.121353	0.016114
25041	-9.842404	-0.139135	0.079197	-0.001759	0.132756	0.013864
25042	-9.858060	-0.135305	0.119226	0.002961	0.154265	0.016315
25043	-9.837980	-0.136353	0.096516	-0.009822	0.229461	0.011914
25044	-9.861968	-0.147131	0.012781	-0.034524	0.306428	0.010049
25045	-9.849456	-0.148956	-0.150045	0.000097	0.304349	0.008059
25046	-9.835340	-0.158368	-0.166504	0.010160	0.318906	0.004401
25047	-9.847625	-0.131344	-0.245069	0.008075	0.355048	0.009347
25048	-9.833830	-0.134580	-0.318529	0.012167	0.410121	0.003639
25049	-9.851955	-0.117350	-0.445253	0.038425	0.448923	-0.002527
25050	-9.830526	-0.144140	-0.527222	-0.029714	0.481964	-0.032023
25051	-9.784691	-0.177521	-0.674962	-0.048298	0.515822	-0.020070
25052	-9.793846	-0.175810	-0.865662	-0.047720	0.529268	0.012422
25053	-9.796957	-0.152309	-1.091504	-0.022653	0.449060	0.033655
25054	-9.778901	-0.141983	-0.990823	-0.019619	0.417791	0.046267
25055	-9.774253	-0.101645	-1.141403	-0.096342	0.452290	0.042946
25056	-9.743386	-0.122958	-1.310612	-0.135119	0.442173	0.046303
25057	-9.726518	-0.115087	-1.389053	-0.050250	0.464750	0.076831
25058	-9.750782	-0.046701	-1.480975	-0.002010	0.482135	0.071842
25059	-9.730063	-0.058998	-1.588315	0.011507	0.523070	0.049809
25060	-9.670791	-0.059181	-1.751310	-0.011005	0.546422	0.029303
25061	-9.668027	-0.037160	-1.914307	-0.006135	0.496435	0.034736
25062	-9.640527	0.007228	-2.036536	0.020046	0.474801	0.006213
25063	-9.619596	-0.012313	-2.126519	0.047892	0.431521	-0.036399
25064	-9.655608	0.006627	-2.306345	0.061577	0.365693	-0.115185
25065	-9.560593	-0.107010	-2.275392	0.047928	0.277821	-0.143877
25066	-9.547026	-0.152636	-2.336199	0.037558	0.257393	-0.142131
25067	-9.539871	-0.192774	-2.386121	0.029754	0.244073	-0.133622
25068	-9.538846	-0.200147	-2.444517	0.031453	0.256769	-0.124863
25069	-9.500718	-0.229638	-2.544682	0.038541	0.257244	-0.128855
25070	-9.480814	-0.299186	-2.576525	0.050082	0.247374	-0.057681
25071	-9.455307	-0.300139	-2.629834	0.041997	0.236451	-0.003810
25072	-9.454901	-0.303224	-2.695314	0.002574	0.207537	-0.004627
25073	-9.457120	-0.310846	-2.711660	-0.014547	0.202178	-0.007585
25074	-9.458102	-0.291806	-2.748385	-0.022265	0.248097	-0.012628
25075	-9.404942	-0.271890	-2.848463	-0.022827	0.281426	-0.012220
25076	-9.389521	-0.264546	-2.923413	-0.019626	0.273481	-0.012599
25077	-9.389294	-0.260004	-2.955574	-0.007151	0.300091	-0.008801
25078	-9.395982	-0.296315	-2.975473	0.003283	0.400957	-0.002668
25079	-9.251990	-0.276210	-3.211415	0.003287	0.425171	-0.007451
25080	-9.278341	-0.297467	-3.245113	-0.004894	0.361776	-0.010074
25081	-9.273840	-0.307162	-3.281529	-0.006635	0.410471	-0.008411
25082	-9.246669	-0.292372	-3.377780	-0.004576	0.502211	-0.009697
25083	-9.169593	-0.269454	-3.530790	0.003992	0.576863	-0.009238
25084	-9.001717	-0.276993	-3.771442	0.013919	0.504925	-0.004847
25085	-9.035133	-0.295074	-3.816977	0.013780	0.364775	-0.002188
25086	-9.054781	-0.311675	-3.829648	0.012232	0.402418	-0.000846
25087	-8.960451	-0.311379	-4.003587	0.033681	0.397690	0.006294
25088	-8.978981	-0.323903	-4.007378	0.047049	0.406367	0.015221
25089	-8.906930	-0.336286	-4.114331	0.011142	0.472300	-0.003148
25090	-8.787069	-0.312832	-4.307418	-0.003714	0.412569	-0.008374
25091	-8.797129	-0.309974	-4.349279	-0.002860	0.307203	-0.006964
25092	-8.830608	-0.318121	-4.333240	-0.006883	0.354127	-0.007402
25093	-8.671400	-0.311997	-4.525547	-0.012968	0.382759	-0.010676
25094	-8.617871	-0.310703	-4.641614	-0.013180	0.233987	-0.012248
25095	-8.691350	-0.307823	-4.576843	-0.023140	0.115755	-0.016200
25096	-8.753738	-0.356627	-4.495012	-0.010049	0.232446	-0.007342
25097	-8.622501	-0.316334	-4.687742	-0.002998	0.348307	-0.004137
25098	-8.516158	-0.305728	-4.824346	-0.002300	0.245681	-0.005843
25099	-8.553427	-0.312304	-4.801129	-0.002234	0.148000	-0.001936
25100	-8.571655	-0.303529	-4.763186	-0.002199	0.166338	-0.002829
25101	-8.603976	-0.330881	-4.781354	-0.004670	0.262212	-0.003290
25102	-8.517207	-0.344409	-4.880222	-0.004632	0.367770	-0.006411
25103	-8.398152	-0.316092	-5.040903	-0.006054	0.362097	-0.008008
25104	-8.337206	-0.332311	-5.142807	-0.004671	0.273291	-0.006689
25105	-8.326972	-0.308493	-5.154891	-0.006294	0.159926	-0.005668
25106	-8.376363	-0.320002	-5.109851	-0.006423	0.151593	-0.005431
25107	-8.287371	-0.322146	-5.229459	-0.003866	0.150438	-0.003722
25108	-8.277911	-0.331338	-5.246956	-0.000383	0.039298	-0.000404
25109	-8.321782	-0.331878	-5.190737	-0.001268	0.031312	-0.001416
25110	-8.264264	-0.334880	-5.260728	0.000631	-0.013034	0.003031
25111	-8.376878	-0.328261	-5.124669	0.000248	0.014162	-0.000616
25112	-8.317553	-0.326997	-5.236185	-0.001267	0.097629	0.000738
25113	-8.278169	-0.306772	-5.258754	0.001076	0.050799	0.000226
25114	-8.291381	-0.326337	-5.245013	0.002445	0.047267	0.001019
25115	-8.292391	-0.331490	-5.237586	0.001522	0.026468	0.000459
25116	-8.310909	-0.325108	-5.209903	0.000160	0.063368	0.001430
25117	-8.241284	-0.341052	-5.292488	0.003543	0.057946	0.000903
25118	-8.264572	-0.335105	-5.273566	0.003582	0.035511	0.003380
25119	-8.273717	-0.318658	-5.272280	0.004682	0.018714	0.002439
25120	-8.280858	-0.324084	-5.271518	0.001615	0.038095	0.001000
25121	-8.266741	-0.332371	-5.263948	-0.000130	0.072011	0.000928
25122	-8.225986	-0.315690	-5.342554	0.001513	0.064907	0.001905
25123	-8.242796	-0.331007	-5.315327	0.001689	0.025995	0.001384
25124	-8.257006	-0.337536	-5.289687	0.002197	0.059426	-0.000160
25125	-8.237617	-0.336733	-5.333661	0.001830	0.097041	0.000529
25126	-8.192672	-0.333854	-5.382647	0.001114	0.084781	-0.000234
25127	-8.225319	-0.324606	-5.373669	0.000731	0.062687	0.000494
25128	-8.212376	-0.315424	-5.390889	-0.000380	0.084573	0.001112
25129	-8.192448	-0.323766	-5.392103	0.000527	0.113038	-0.000598
25130	-8.139111	-0.320682	-5.437006	0.004780	0.115998	0.001308
25131	-8.130607	-0.347365	-5.486511	0.002485	0.075801	0.001023
25132	-8.110116	-0.346404	-5.470123	0.002408	0.014630	0.002021
25133	-8.156580	-0.337327	-5.456742	0.002196	0.002272	0.001552
25134	-8.149076	-0.323764	-5.441770	0.001580	0.040162	0.002775
25135	-8.152076	-0.315961	-5.436903	0.000217	0.080129	-0.000482
25136	-8.112062	-0.326406	-5.502780	0.000441	0.085326	0.000034
25137	-8.131189	-0.320416	-5.491580	0.000755	0.076766	0.000546
25138	-8.110741	-0.337202	-5.524659	-0.000337	0.101274	-0.000804
25139	-8.092972	-0.346000	-5.537748	-0.002337	0.132508	-0.001901
25140	-8.038255	-0.334033	-5.595369	-0.000476	0.126823	-0.001042
25141	-8.044324	-0.318867	-5.585578	-0.001135	0.112966	-0.002193
25142	-8.038828	-0.324536	-5.603314	-0.000683	0.124666	-0.002135
25143	-8.032067	-0.321477	-5.635511	-0.001000	0.151068	-0.001931
25144	-7.956537	-0.338776	-5.703736	-0.001301	0.138072	-0.002319
25145	-7.984400	-0.326084	-5.652647	-0.001353	0.149847	-0.002567
25146	-7.944092	-0.333427	-5.737204	-0.000293	0.168986	-0.002183
25147	-7.938475	-0.336018	-5.719339	-0.001832	0.201765	-0.004735
25148	-7.911632	-0.328337	-5.783436	-0.002247	0.249660	-0.005293
25149	-7.840369	-0.339138	-5.871033	-0.002118	0.244073	-0.006181
25150	-7.831572	-0.338035	-5.906076	-0.003619	0.251149	-0.007034
25151	-7.796251	-0.330534	-5.923590	-0.003237	0.276023	-0.006678
25152	-7.749250	-0.326855	-6.004040	-0.002976	0.312409	-0.008738
25153	-7.634397	-0.339851	-6.145318	0.002979	0.255218	-0.010010
25154	-7.648645	-0.338437	-6.143899	0.008713	0.183123	-0.013585
25155	-7.682127	-0.344676	-6.141947	0.012315	0.209400	-0.022546
25156	-7.599781	-0.351849	-6.205316	0.001863	0.231331	-0.039053
25157	-7.543991	-0.363371	-6.245921	-0.021849	0.217021	-0.025594
25158	-7.473265	-0.364466	-6.320676	-0.013605	0.165016	-0.007140
25159	-7.514631	-0.360532	-6.289597	-0.019508	0.137512	-0.010614
25160	-7.497464	-0.377322	-6.314421	-0.019347	0.161424	-0.007904
25161	-7.467850	-0.358089	-6.358645	-0.016596	0.177267	-0.007018
25162	-7.436637	-0.348160	-6.393052	-0.024256	0.172268	-0.018615
25163	-7.314511	-0.377548	-6.460968	-0.027477	0.149661	-0.010884
25164	-7.366859	-0.337319	-6.432453	-0.040232	0.055318	0.027516
25165	-7.385033	-0.330499	-6.422666	-0.048715	0.074054	0.044258
25166	-7.371069	-0.323058	-6.479402	-0.054729	0.072694	0.037436
25167	-7.328691	-0.303764	-6.473960	-0.051535	0.072009	0.050313
25168	-7.326355	-0.269166	-6.525540	-0.040658	0.056814	0.059346
25169	-7.328862	-0.256346	-6.498733	-0.024461	0.033160	0.033797
25170	-7.323971	-0.247399	-6.504591	-0.018128	0.029348	0.026099
25171	-7.327667	-0.245332	-6.496139	-0.016351	0.028365	0.022242
25172	-7.305585	-0.207995	-6.519042	-0.005290	0.019965	0.013438
25173	-7.325925	-0.231214	-6.522256	0.009721	0.001005	-0.004089
25174	-7.330492	-0.281438	-6.508798	0.005036	0.000222	0.000396
25175	-7.330690	-0.266966	-6.499647	-0.004730	0.017525	0.016580
25176	-7.309037	-0.238925	-6.511160	-0.006465	0.022892	0.023353
25177	-7.311883	-0.222440	-6.512166	0.000927	0.006292	0.012944
25178	-7.315815	-0.213733	-6.531656	0.006825	-0.008620	-0.004875
25179	-7.319921	-0.242399	-6.507547	0.005988	-0.005587	-0.005313
25180	-7.339586	-0.243680	-6.500331	-0.006411	0.013283	0.009493
25181	-7.311476	-0.241800	-6.523961	-0.012170	0.023389	0.018573
25182	-7.289933	-0.214102	-6.535227	-0.001935	0.014680	0.015310
25183	-7.301262	-0.218803	-6.531091	0.011493	-0.008108	0.000501
25184	-7.314808	-0.236118	-6.513525	0.013474	-0.015524	-0.012480
25185	-7.323443	-0.248745	-6.519017	0.007539	-0.006585	-0.005550
25186	-7.318670	-0.219054	-6.510845	0.002585	0.001923	-0.000124
25187	-7.321334	-0.228041	-6.510097	0.000617	0.006696	0.003588
25188	-7.301682	-0.238040	-6.539413	-0.004918	0.009974	0.008926
25189	-7.305061	-0.232296	-6.528924	-0.002171	0.009564	0.004861
25190	-7.308896	-0.227607	-6.517894	0.001910	0.004248	0.003469
25191	-7.300826	-0.224184	-6.531396	0.011456	-0.007277	-0.010262
25192	-7.322336	-0.247735	-6.500325	0.014324	-0.012757	-0.013209
25193	-7.320641	-0.233149	-6.510695	0.006046	-0.006167	-0.004396
25194	-7.320914	-0.234290	-6.510347	0.003229	0.002660	0.000169
25195	-7.318435	-0.247051	-6.522122	0.000922	0.008597	0.005673
25196	-7.302876	-0.244670	-6.487388	-0.000668	0.009755	0.010384
25197	-7.312182	-0.243371	-6.516206	-0.000860	0.006705	0.010120
25198	-7.309542	-0.254955	-6.528205	-0.001251	0.006815	0.003031
25199	-7.311669	-0.219630	-6.518685	-0.001364	0.007967	0.001207
25200	-7.345414	-0.217860	-6.528143	-0.001915	0.017236	-0.001822
25201	-7.315642	-0.228822	-6.542581	-0.008519	0.035997	-0.006431
25202	-7.286032	-0.242973	-6.526275	-0.010066	0.031395	0.007046
25203	-7.312459	-0.236412	-6.531100	-0.008072	0.041695	0.028995
25204	-7.313198	-0.208710	-6.558327	0.010678	0.058174	0.043126
25205	-7.290409	-0.216816	-6.553816	0.008901	0.074952	0.020310
25206	-7.277682	-0.238024	-6.566200	-0.000689	0.060041	-0.006742
25207	-7.225463	-0.212740	-6.583163	-0.012277	0.058183	-0.004556
25208	-7.264257	-0.239164	-6.563857	-0.030087	0.047696	0.007187
25209	-7.248000	-0.194723	-6.598839	-0.053553	0.068588	0.013111
25210	-7.240676	-0.163170	-6.621715	-0.024352	0.082766	0.026045
25211	-7.239651	-0.191544	-6.632150	-0.010806	0.095844	0.027545
25212	-7.220064	-0.163237	-6.642462	-0.005887	0.121116	0.027370
25213	-7.192785	-0.179168	-6.657762	-0.018245	0.148119	0.013197
25214	-7.161740	-0.147341	-6.697135	0.019426	0.141081	0.042769
25215	-7.177384	-0.164073	-6.701644	-0.000458	0.206992	0.022859
25216	-7.060594	-0.195565	-6.744993	-0.044283	0.190586	-0.046158
25217	-7.045311	-0.246285	-6.749523	-0.096359	0.158181	-0.053019
25218	-7.036211	-0.192708	-6.812375	-0.167327	0.132635	-0.080359
25219	-7.077846	-0.082559	-6.870281	-0.126441	0.182108	-0.041540
25220	-6.974377	-0.076201	-6.898406	-0.057698	0.232334	-0.026205
25221	-6.939506	-0.091901	-6.938026	-0.018922	0.249927	-0.022105
25222	-6.818046	-0.110258	-6.984806	0.005124	0.243556	0.026139
25223	-6.855931	-0.085423	-7.020701	0.038835	0.222219	0.076130
25224	-6.838326	-0.102212	-7.032062	0.047189	0.231071	0.045841
25225	-6.807966	-0.132406	-7.080184	0.048975	0.264853	0.018847
25226	-6.746623	-0.111573	-7.131908	0.057318	0.307913	0.018224
25227	-6.705797	-0.109838	-7.193582	0.075108	0.373621	0.056970
25228	-6.587623	-0.116993	-7.242044	0.104887	0.427198	0.117805
25229	-6.530945	-0.171591	-7.306074	0.065921	0.436010	0.065758
25230	-6.422956	-0.124232	-7.382875	0.023470	0.410485	-0.001386
25231	-6.370576	-0.110035	-7.453897	0.032544	0.423826	-0.007751
25232	-6.296323	-0.138301	-7.520704	0.057118	0.446714	-0.015589
25233	-6.120620	-0.223241	-7.555176	-0.003415	0.389087	-0.145945
25234	-6.046969	-0.154742	-7.688266	-0.016807	0.256196	-0.195117
25235	-6.080456	-0.211969	-7.650769	0.026130	0.269823	-0.117265
25236	-6.027838	-0.231126	-7.724804	0.030868	0.330419	-0.055199
25237	-5.893260	-0.257590	-7.756167	0.001497	0.320046	-0.045839
25238	-5.891786	-0.308630	-7.780478	-0.023691	0.299314	-0.015527
25239	-5.836628	-0.263276	-7.859777	-0.045872	0.391106	0.080242
25240	-5.719031	-0.220985	-7.936148	-0.033971	0.442415	0.174614
25241	-5.653011	-0.145600	-8.034412	-0.016963	0.407830	0.160626
25242	-5.584574	-0.110992	-8.058978	0.007925	0.378497	0.077159
25243	-5.572046	-0.136648	-8.081726	0.006960	0.348183	-0.049208
25244	-5.503909	-0.166259	-8.121442	-0.010840	0.382721	-0.126122
25245	-5.359565	-0.182233	-8.193477	-0.020784	0.437554	-0.093205
25246	-5.296152	-0.180620	-8.235885	0.026005	0.547032	0.035266
25247	-5.134165	-0.200398	-8.312961	0.041189	0.585178	0.050632
25248	-4.944117	-0.168570	-8.436157	0.055216	0.500337	-0.022945
25249	-4.934712	-0.242899	-8.432553	0.034806	0.505348	-0.001626
25250	-4.773153	-0.253309	-8.509041	0.012865	0.565200	0.072521
25251	-4.669734	-0.227862	-8.584213	-0.020782	0.543990	0.069173
25252	-4.590071	-0.155643	-8.639249	-0.019925	0.563013	0.089510
25253	-4.420610	-0.133416	-8.742201	-0.015623	0.564224	0.036173
25254	-4.249579	-0.174503	-8.778372	-0.009242	0.491788	-0.035481
25255	-4.238269	-0.191677	-8.800573	-0.028081	0.441817	-0.091144
25256	-4.140489	-0.172707	-8.848162	-0.043998	0.454589	-0.114333
25257	-4.018410	-0.140467	-8.925947	-0.011937	0.495251	-0.073085
25258	-3.818524	-0.161406	-8.987999	0.015846	0.486679	-0.030225
25259	-3.714332	-0.180868	-9.019135	0.025929	0.396828	-0.016847
25260	-3.690708	-0.226265	-9.037654	0.003218	0.339784	-0.045120
25261	-3.671761	-0.215147	-9.036821	-0.008532	0.368374	-0.022932
25262	-3.543664	-0.185829	-9.118736	0.002239	0.430481	0.037030
25263	-3.398324	-0.172520	-9.151197	0.024724	0.432972	0.052866
25264	-3.333257	-0.215415	-9.178311	0.022840	0.385662	0.040292
25265	-3.314930	-0.188926	-9.179496	-0.010876	0.365535	-0.008845
25266	-3.214741	-0.179006	-9.240977	-0.001246	0.437400	0.010592
25267	-3.058712	-0.208898	-9.277919	0.005583	0.467870	0.039563
25268	-2.907072	-0.194255	-9.313415	-0.006380	0.423390	0.024677
25269	-2.910365	-0.194690	-9.331137	-0.002399	0.404821	-0.002054
25270	-2.849116	-0.178791	-9.340725	-0.009778	0.469444	-0.022960
25271	-2.637247	-0.173493	-9.415136	-0.001110	0.511278	-0.018461
25272	-2.521268	-0.196262	-9.418675	0.010679	0.511892	0.004671
25273	-2.389441	-0.181113	-9.467695	0.013272	0.507278	0.004665
25274	-2.324397	-0.163351	-9.500878	0.018689	0.504285	-0.031303
25275	-2.185512	-0.213083	-9.503178	0.025245	0.499209	-0.077792
25276	-2.008717	-0.233160	-9.523493	-0.002203	0.491904	-0.082672
25277	-1.914857	-0.244492	-9.563270	-0.023479	0.475381	-0.055115
25278	-1.774295	-0.175594	-9.619353	-0.013673	0.470179	-0.025713
25279	-1.759174	-0.153103	-9.609225	0.020585	0.473469	-0.036862
25280	-1.573116	-0.208283	-9.627656	0.031449	0.508071	-0.032544
25281	-1.423808	-0.251734	-9.614919	0.025474	0.483905	-0.008495
25282	-1.279439	-0.263527	-9.648898	-0.024269	0.422573	-0.006154
25283	-1.170386	-0.171184	-9.750902	0.003421	0.358998	0.066253
25284	-1.258648	-0.200952	-9.688923	0.038712	0.342251	0.057737
25285	-1.144408	-0.229807	-9.700223	0.041395	0.392774	0.008851
25286	-0.950598	-0.226986	-9.692672	0.034462	0.379266	-0.025525
25287	-0.877998	-0.228560	-9.716461	0.030338	0.326495	-0.038991
25288	-0.839266	-0.243507	-9.717884	0.029221	0.314185	-0.041067
25289	-0.743934	-0.268118	-9.727120	0.030571	0.327786	-0.043766
25290	-0.659986	-0.267758	-9.731487	0.036257	0.332778	-0.023348
25291	-0.548046	-0.300248	-9.731436	0.035058	0.309751	0.001613
25292	-0.479966	-0.304059	-9.756438	0.022169	0.252358	0.010031
25293	-0.474531	-0.290135	-9.751611	0.017823	0.229938	0.016241
25294	-0.427776	-0.291361	-9.749202	0.026052	0.256036	0.034245
25295	-0.283820	-0.296329	-9.755202	0.025822	0.238318	0.023932
25296	-0.247583	-0.307488	-9.761601	0.021745	0.154473	0.017989
25297	-0.263031	-0.309242	-9.731653	0.019260	0.121270	0.028232
25298	-0.221248	-0.305881	-9.748498	0.024071	0.126129	0.017348
25299	-0.176654	-0.349053	-9.749409	0.016832	0.089030	0.029061
25300	-0.181599	-0.343687	-9.740328	0.004525	0.076560	0.046148
25301	-0.219300	-0.300605	-9.749291	0.004714	0.097380	0.039589
25302	-0.187361	-0.303467	-9.758538	0.017614	0.131168	0.028297
25303	-0.122927	-0.310322	-9.753830	0.021898	0.136442	0.003309
25304	-0.055799	-0.344000	-9.743025	0.029058	0.075566	-0.008448
25305	-0.080538	-0.362889	-9.763791	0.021178	0.067955	0.003008
25306	-0.095345	-0.325053	-9.772026	0.042139	0.093018	-0.014686
25307	-0.025142	-0.379974	-9.736080	0.055425	0.112191	-0.018557
25308	0.052714	-0.399450	-9.730328	0.025812	0.096440	-0.006331
25309	0.019089	-0.369382	-9.758746	0.008055	0.060353	0.009565
25310	-0.047773	-0.361078	-9.769796	0.019247	0.081602	-0.004257
25311	0.029763	-0.388547	-9.752327	0.026591	0.123189	-0.015728
25312	0.108451	-0.415422	-9.725807	0.017703	0.129744	0.010352
25313	0.089452	-0.383184	-9.776159	0.020595	0.136980	0.043960
25314	0.127817	-0.364647	-9.754047	0.055840	0.174445	0.053588
25315	0.140835	-0.374727	-9.793497	0.091308	0.211508	0.047951
25316	0.407648	-0.573625	-9.627171	0.055873	0.153225	0.044093
25317	0.286549	-0.476375	-9.686771	-0.093909	0.014217	-0.021046
25318	0.316384	-0.391723	-9.709666	-0.137068	0.015510	0.044047
25319	0.256403	-0.368574	-9.756750	-0.149425	0.020406	0.081005
25320	0.250450	-0.329314	-9.796843	-0.094699	0.012375	0.044685
25321	0.250769	-0.327547	-9.764227	-0.046300	0.007141	0.010382
25322	0.279571	-0.325539	-9.693461	-0.063804	0.009656	0.013162
25323	0.285071	-0.241141	-9.773086	-0.097565	0.013016	0.042194
25324	0.264033	-0.259738	-9.762518	-0.042647	0.005209	0.033131
25325	0.256884	-0.260311	-9.755715	-0.025378	0.004208	0.018520
25326	0.270285	-0.260903	-9.759843	-0.003642	0.003337	0.007807
25327	0.282056	-0.267707	-9.742332	0.000552	0.003771	0.002552
25328	0.267783	-0.236716	-9.774164	0.010314	0.002769	0.000980
25329	0.283217	-0.285150	-9.730681	0.019835	0.002899	0.001206
25330	0.259161	-0.267180	-9.733954	0.001164	0.003455	-0.000029
25331	0.277257	-0.271428	-9.746521	-0.002216	0.003096	0.000437
25332	0.291756	-0.283575	-9.760674	-0.008108	0.001966	0.002947
25333	0.264202	-0.267152	-9.720976	-0.009053	0.002682	0.003634
25334	0.279558	-0.254649	-9.758051	0.000466	0.004297	-0.000182
25335	0.271010	-0.255377	-9.740921	0.010728	0.003322	0.001566
25336	0.289707	-0.296723	-9.740548	0.011961	0.002466	0.001405
25337	0.273327	-0.279862	-9.739425	-0.012440	0.002548	-0.000902
25338	0.270317	-0.239157	-9.765362	-0.012971	0.003820	0.000369
25339	0.270711	-0.261843	-9.742456	-0.004930	0.004678	0.001600
25340	0.275172	-0.240642	-9.752339	0.006850	0.001450	0.002760
25341	0.273230	-0.273124	-9.752457	0.006933	0.002407	0.001450
25342	0.278835	-0.258966	-9.727761	-0.000530	0.001272	0.001270
25343	0.264827	-0.273083	-9.735347	-0.001097	0.004069	0.002129
25344	0.235587	-0.375686	-9.726480	-0.027040	0.013191	-0.001180
25345	0.319840	-0.132212	-9.735124	-0.039485	0.015727	-0.002082
25346	0.287543	-0.244126	-9.772625	-0.008931	0.004854	-0.000353
25347	0.274506	-0.229967	-9.758480	0.002440	0.002335	0.001181
25348	0.282948	-0.234008	-9.753964	-0.000033	0.002783	0.000547
25349	0.299231	-0.241689	-9.744957	0.001616	0.002484	0.000970
25350	0.271258	-0.243109	-9.738432	0.002440	0.002335	0.001181
25351	0.284935	-0.235269	-9.753876	0.002114	0.003997	0.000245
25352	0.290510	-0.235962	-9.762369	0.001039	0.002760	-0.000082
25353	0.291166	-0.236252	-9.762342	0.001327	0.002622	0.000444
25354	0.277628	-0.235604	-9.736738	0.000917	0.003326	0.000816
25355	0.284191	-0.257978	-9.743883	0.001453	0.003315	0.000502
25356	0.294791	-0.243784	-9.727683	0.001863	0.002610	0.000129
25357	0.261931	-0.259993	-9.745863	0.001290	0.004145	0.000034
25358	0.290572	-0.222428	-9.720447	0.001490	0.001791	0.000912
25359	0.270346	-0.230141	-9.754116	0.000791	0.002633	0.000758
25360	0.278801	-0.234144	-9.749592	0.001327	0.002622	0.000444
25361	0.279072	-0.246952	-9.738115	0.001615	0.002484	0.000970
25362	0.295776	-0.242203	-9.740537	0.000093	0.003475	0.000604
25363	0.261460	-0.248815	-9.748643	0.000872	0.002331	-0.001507
25364	0.281276	-0.247639	-9.738034	0.002114	0.003995	0.000246
25365	0.285856	-0.226564	-9.747879	0.001038	0.002759	-0.000082
25366	0.287864	-0.236118	-9.757949	0.000791	0.002633	0.000758
25367	0.274021	-0.235285	-9.732371	0.000085	0.000957	-0.001309
25368	0.283750	-0.248399	-9.737943	0.000340	0.003601	-0.000236
25369	0.279745	-0.248226	-9.729397	0.000791	0.002633	0.000758
25370	0.278702	-0.254353	-9.752492	0.001038	0.002759	-0.000082
25371	0.285815	-0.249053	-9.737866	0.001326	0.002621	0.000444
25372	0.286366	-0.249364	-9.737842	0.001201	0.001928	0.000386
25373	0.287293	-0.237196	-9.749271	0.001038	0.002759	-0.000082
25374	0.284606	-0.246554	-9.750815	0.001740	0.003175	0.001029
25375	0.279580	-0.224709	-9.743632	0.000214	0.002908	-0.000294
25376	0.302126	-0.242026	-9.753193	0.001412	0.003577	-0.000864
25377	0.277723	-0.234187	-9.745150	0.000790	0.002632	0.000758
25378	0.273315	-0.246590	-9.725151	0.001452	0.003313	0.000502
25379	0.274311	-0.234540	-9.736579	0.001737	0.001916	0.000072
25380	0.279733	-0.235144	-9.745070	0.000628	0.003462	0.000290
25381	0.285222	-0.235866	-9.753555	0.002686	0.002459	0.000343
25382	0.282199	-0.245291	-9.755107	0.000661	0.000681	-0.000256
25383	0.277934	-0.245067	-9.746574	0.000092	0.003474	0.000604
25384	0.286850	-0.236608	-9.753489	0.001862	0.002608	0.000131
25385	0.282245	-0.249141	-9.733491	0.001488	0.001790	0.000913
25386	0.291001	-0.241007	-9.740402	0.003099	0.003013	0.000928
25387	0.283854	-0.237914	-9.744883	0.002150	0.002470	0.000657
25388	0.284659	-0.238207	-9.744853	0.000217	0.004166	0.000662
25389	0.277218	-0.247145	-9.737884	0.001736	0.001916	0.000073
25390	0.284683	-0.229465	-9.734712	0.001164	0.003450	-0.000024
25391	0.278470	-0.247769	-9.737832	0.000992	0.001538	0.002594
25392	0.285563	-0.242190	-9.723208	-0.001189	0.004140	0.009394
25393	0.271685	-0.256315	-9.730857	-0.000447	0.002226	-0.000039
25394	0.270180	-0.274603	-9.742501	0.000303	0.001796	-0.013514
25395	0.274336	-0.265565	-9.740908	0.001276	0.002646	-0.049191
25396	0.291280	-0.198704	-9.734390	0.002185	0.002838	-0.066233
25397	0.239457	-0.200443	-9.787702	0.000616	0.023935	-0.016724
25398	0.301241	-0.201287	-9.770101	-0.000275	0.067402	0.012840
25399	0.293655	-0.279589	-9.747622	-0.004945	0.083321	0.045885
25400	0.302772	-0.337000	-9.751950	0.001011	0.094016	-0.038194
25401	0.315987	-0.159585	-9.775286	0.002845	0.105001	-0.048656
25402	0.484342	-0.213059	-9.609243	0.007863	0.068710	0.006963
25403	0.312033	-0.133955	-9.887753	0.055363	0.041218	0.009695
25404	0.332717	-0.218885	-9.895458	0.130082	0.124080	0.012548
25405	0.564317	-0.551159	-9.433161	0.097910	0.086957	-0.008898
25406	0.413706	-0.474413	-9.723274	0.015843	0.011744	-0.090565
25407	0.433265	-0.195344	-9.851524	0.006418	0.032128	-0.097902
25408	0.405100	-0.228746	-9.922016	-0.004919	0.113920	-0.029290
25409	0.459044	-0.299483	-9.840092	-0.006166	0.195037	-0.008008
25410	0.496471	-0.333716	-9.835449	-0.006246	0.255952	-0.015301
25411	0.631981	-0.296702	-9.699197	-0.005599	0.277065	-0.028785
25412	0.674044	-0.262485	-9.768668	-0.002986	0.271027	-0.019846
25413	0.700340	-0.291944	-9.849304	-0.005437	0.325505	-0.001310
25414	0.853876	-0.259170	-9.695393	-0.002408	0.361727	0.018710
25415	0.917350	-0.365082	-9.745777	-0.004429	0.365607	0.009412
25416	1.001945	-0.316926	-9.695631	-0.008468	0.376573	-0.006648
25417	1.065112	-0.305548	-9.778992	-0.008856	0.413708	-0.019074
25418	1.220168	-0.297590	-9.672225	-0.008306	0.437425	-0.025252
25419	1.258462	-0.277366	-9.781057	-0.003521	0.459627	-0.026835
25420	1.371026	-0.285359	-9.758748	0.004298	0.532847	-0.025357
25421	1.542649	-0.317507	-9.649565	0.014768	0.585781	-0.035695
25422	1.665744	-0.345039	-9.665702	0.012540	0.609814	-0.056689
25423	1.778882	-0.304150	-9.710605	0.007277	0.668806	-0.073144
25424	2.029652	-0.235005	-9.537012	0.008938	0.733659	-0.065554
25425	2.259337	-0.287961	-9.343296	0.000935	0.708878	-0.046595
25426	2.405040	-0.283420	-9.381070	0.000061	0.652175	-0.051866
25427	2.498633	-0.312679	-9.434127	0.001509	0.647953	-0.060893
25428	2.619067	-0.297509	-9.481148	0.015636	0.685325	-0.082609
25429	2.754184	-0.247829	-9.456904	0.022213	0.768375	-0.080478
25430	3.031446	-0.270721	-9.208584	0.026405	0.821698	-0.076546
25431	3.339149	-0.215483	-8.896584	0.017881	0.737554	-0.059622
25432	3.389481	-0.250643	-9.098288	-0.001654	0.656533	-0.034878
25433	3.510629	-0.281796	-9.073989	-0.011064	0.674118	-0.025747
25434	3.709116	-0.271070	-8.927966	-0.008730	0.665190	-0.036360
25435	3.906876	-0.245761	-8.768732	-0.005569	0.608861	-0.031409
25436	4.024878	-0.279517	-8.686893	0.008264	0.518007	-0.047664
25437	4.095710	-0.216441	-8.779819	0.011509	0.448527	-0.058406
25438	4.164529	-0.196047	-8.806146	0.009415	0.453396	-0.031129
25439	4.329587	-0.238647	-8.598602	0.017701	0.416022	-0.030584
25440	4.372165	-0.245148	-8.645581	0.016593	0.355778	-0.028472
25441	4.405996	-0.275713	-8.717113	0.017026	0.355938	-0.032382
25442	4.470428	-0.275594	-8.664840	0.022634	0.382049	-0.041731
25443	4.612925	-0.242424	-8.534245	0.031229	0.377641	-0.056082
25444	4.689058	-0.230454	-8.459813	0.022992	0.355701	-0.045695
25445	4.736897	-0.248873	-8.510415	0.026632	0.332257	-0.056006
25446	4.745326	-0.222194	-8.573865	0.019191	0.381566	-0.046331
25447	4.893930	-0.271786	-8.367986	0.022495	0.406592	-0.049873
25448	5.010754	-0.209509	-8.302001	0.020329	0.381521	-0.049031
25449	5.042712	-0.219892	-8.351505	0.006725	0.384926	-0.030390
25450	5.119535	-0.239206	-8.292950	0.003979	0.422412	-0.022981
25451	5.241298	-0.233704	-8.138086	0.019391	0.412407	-0.043496
25452	5.352903	-0.189890	-8.072181	0.022250	0.390253	-0.041595
25453	5.411882	-0.234512	-8.031051	0.011509	0.362193	-0.026985
25454	5.491987	-0.274311	-7.961209	0.034379	0.311874	-0.054841
25455	5.488272	-0.198687	-8.086871	0.038054	0.314876	-0.060280
25456	5.610098	-0.178536	-7.934114	0.009947	0.341033	-0.025252
25457	5.735421	-0.220824	-7.719792	-0.001150	0.276512	-0.008164
25458	5.672372	-0.229016	-7.953731	0.000276	0.245889	-0.009279
25459	5.714347	-0.221488	-7.895215	0.001297	0.297933	-0.013875
25460	5.825311	-0.206336	-7.790265	0.005749	0.308466	-0.014940
25461	5.910411	-0.222894	-7.641521	0.013781	0.276964	-0.023388
25462	5.981282	-0.213446	-7.577609	0.018751	0.221299	-0.030208
25463	5.988704	-0.229708	-7.611211	0.010166	0.156977	-0.019686
25464	5.911199	-0.226913	-7.829814	0.008679	0.191491	-0.017875
25465	5.983733	-0.217568	-7.735494	0.013088	0.278900	-0.027271
25466	6.176207	-0.197092	-7.398512	0.012355	0.261055	-0.023802
25467	6.122503	-0.192437	-7.558993	0.013147	0.179337	-0.020178
25468	6.060894	-0.211995	-7.769444	0.007018	0.267801	-0.015836
25469	6.167607	-0.209905	-7.584401	0.012299	0.351716	-0.025306
25470	6.260669	-0.196441	-7.473502	0.003277	0.411175	-0.019036
25471	6.572672	-0.197137	-6.901730	0.007968	0.315616	-0.015947
25472	6.563206	-0.204352	-6.954759	0.013791	0.081999	-0.014484
25473	6.338744	-0.199173	-7.472896	0.005313	0.040428	-0.005469
25474	6.268120	-0.211020	-7.667810	0.002623	0.187566	-0.007725
25475	6.464455	-0.184500	-7.288178	0.003360	0.310556	-0.010279
25476	6.644167	-0.203746	-6.946498	0.013067	0.234954	-0.015994
25477	6.596063	-0.182806	-7.109097	0.020439	0.139493	-0.014574
25478	6.523849	-0.193952	-7.303876	0.019045	0.168756	-0.005609
25479	6.684369	-0.286523	-7.007719	0.027557	0.234558	-0.014180
25480	6.676098	-0.221441	-7.061582	-0.015869	0.120116	-0.024807
25481	6.706491	-0.171572	-6.985241	-0.019691	0.121508	-0.025181
25482	6.686667	-0.185073	-7.081285	-0.015380	0.096243	-0.017604
25483	6.672675	-0.201605	-7.134861	-0.024460	0.139953	-0.026288
25484	6.800514	-0.131602	-6.862903	-0.023286	0.130253	-0.024977
25485	6.818681	-0.119816	-6.868952	-0.006476	0.040971	-0.007693
25486	6.743782	-0.183770	-7.013794	-0.003395	0.020334	-0.004787
25487	6.768808	-0.155414	-6.975338	-0.001314	0.015555	-0.002797
25488	6.765160	-0.166297	-6.995032	-0.003852	0.031105	-0.005397
25489	6.798642	-0.117643	-6.897989	0.001439	-0.001525	0.001391
25490	6.767377	-0.178723	-7.021061	0.004007	-0.020330	0.004690
25491	6.778414	-0.157217	-6.946057	0.007920	-0.034765	0.007886
25492	6.767196	-0.165654	-6.996902	0.009561	-0.044218	0.007902
25493	6.731376	-0.190567	-7.025522	0.012466	-0.052461	0.011682
25494	6.719025	-0.178252	-7.047034	0.007238	-0.032131	0.007189
25495	6.713235	-0.189373	-7.054606	0.003810	-0.022065	0.003804
25496	6.716210	-0.174768	-7.041601	0.000517	0.000104	-0.000694
25497	6.721958	-0.181404	-7.024226	0.001441	-0.001526	0.001389
25498	6.731880	-0.181437	-7.026691	-0.000637	0.009051	-0.001503
25499	6.742354	-0.151567	-6.964537	0.002628	-0.007931	0.001995
25500	6.713026	-0.194035	-7.080667	0.001986	-0.006610	0.001696
25501	6.699346	-0.187952	-7.061815	-0.001948	0.016881	-0.003103
25502	6.743401	-0.151767	-6.963519	0.000579	-0.000609	-0.000197
25503	6.717072	-0.175973	-7.040749	0.002173	-0.008747	0.003186
25504	6.702041	-0.191996	-7.053276	0.002600	-0.000812	0.000693
25505	6.735756	-0.177807	-6.983039	0.000611	0.000001	-0.000100
25506	6.719734	-0.172060	-6.998268	0.003425	-0.010068	0.003386
25507	6.713322	-0.169951	-7.042151	0.005280	-0.022983	0.005294
25508	6.678022	-0.207301	-7.112008	0.001408	-0.004069	0.001592
25509	6.714494	-0.204556	-7.067248	-0.003103	0.018100	-0.002711
25510	6.718992	-0.172960	-7.030804	-0.002582	0.025931	-0.004610
25511	6.732595	-0.172417	-6.997897	-0.001727	0.017284	-0.001819
25512	6.739834	-0.178221	-7.010960	0.001350	0.004373	-0.000109
25513	6.731193	-0.169427	-7.005168	0.001373	-0.008542	0.002098
25514	6.719971	-0.169677	-7.035813	0.003049	-0.007725	0.000708
25515	6.710106	-0.192106	-7.031516	0.002625	-0.009863	0.002298
25516	6.703569	-0.176776	-7.079397	0.001988	-0.002745	0.001094
25517	6.718358	-0.171141	-7.037318	-0.001148	0.014743	-0.001716
25518	6.730458	-0.162702	-6.971865	0.001923	-0.005897	0.001201
25519	6.720425	-0.175813	-6.997511	0.005704	-0.018911	0.003407
25520	6.710800	-0.162987	-6.984614	0.009273	-0.041390	0.009697
25521	6.691865	-0.196083	-7.086417	0.010875	-0.047594	0.009017
25522	6.675648	-0.198379	-7.121572	0.006368	-0.023493	0.004407
25523	6.677205	-0.194313	-7.080246	0.004612	-0.010680	0.003089
25524	6.686138	-0.186097	-7.081572	0.002113	-0.004171	0.002086
25525	6.672000	-0.201456	-7.093144	-0.001953	0.005289	-0.001298
25526	6.665769	-0.191747	-7.085109	-0.000496	0.017290	-0.002028
25527	6.696989	-0.169591	-7.061247	-0.003121	0.025222	-0.004025
25528	6.713494	-0.202446	-7.051861	-0.002576	0.024002	-0.004319
25529	6.702977	-0.185767	-7.059777	-0.002037	0.016984	-0.003707
25530	6.674602	-0.190313	-7.090929	-0.003734	0.027150	-0.004227
25531	6.687975	-0.206212	-7.126281	-0.008342	0.047485	-0.008830
25532	6.726714	-0.182159	-7.031382	-0.010871	0.068830	-0.012347
25533	6.689692	-0.195315	-7.107307	-0.013355	0.074001	-0.012953
25534	6.690091	-0.209776	-7.145850	-0.023723	0.135776	-0.024682
25535	6.738012	-0.191503	-7.058062	-0.033863	0.175957	-0.031314
25536	6.785118	-0.173454	-7.016819	-0.038730	0.209192	-0.034936
25537	6.842597	-0.129491	-6.952179	-0.046489	0.235064	-0.035594
25538	6.996969	-0.021945	-6.561084	-0.037049	0.175855	-0.009523
25539	6.840862	-0.119873	-7.068316	-0.026684	0.131104	0.016352
25540	6.904433	-0.111538	-6.887367	-0.024887	0.186030	0.016726
25541	6.953448	-0.086159	-6.837154	-0.010609	0.215949	0.007901
25542	6.973141	-0.112809	-6.865830	-0.009459	0.244416	0.012633
25543	7.041211	-0.134016	-6.737148	0.001218	0.279093	0.008986
25544	7.094998	-0.110047	-6.584834	0.007721	0.268374	0.004406
25545	7.165785	-0.119649	-6.465661	0.008672	0.228295	0.004291
25546	7.156664	-0.143753	-6.595155	0.012738	0.197889	0.002308
25547	7.186955	-0.127197	-6.613341	0.021441	0.222534	-0.000808
25548	7.229372	-0.115667	-6.555688	0.025441	0.247433	-0.001403
25549	7.281770	-0.160121	-6.513216	0.042837	0.285510	-0.011340
25550	7.322875	-0.132249	-6.402624	0.055889	0.309480	-0.018751
25551	7.366768	-0.183309	-6.421623	0.066524	0.331389	-0.024949
25552	7.412125	-0.137169	-6.357259	0.079024	0.365281	-0.032415
25553	7.500611	-0.123298	-6.140377	0.064537	0.368169	-0.019811
25554	7.528903	-0.189859	-6.161473	0.049587	0.356957	-0.015805
25555	7.598434	-0.160484	-6.072384	0.061008	0.375071	-0.025682
25556	7.661512	-0.158588	-6.020494	0.062572	0.375517	-0.025731
25557	7.713855	-0.163099	-5.853466	0.050436	0.375631	-0.019060
25558	7.767235	-0.166115	-5.844864	0.025083	0.357912	-0.004980
25559	7.830277	-0.199477	-5.774995	0.011961	0.373859	0.003608
25560	7.879323	-0.195049	-5.658485	0.007536	0.362132	-0.001069
25561	7.920756	-0.223436	-5.658078	0.015360	0.354585	-0.009015
25562	7.974585	-0.201968	-5.558869	0.048252	0.364577	-0.034249
25563	8.041959	-0.127270	-5.403572	0.034695	0.338525	-0.026512
25564	8.048186	-0.164260	-5.529465	0.005197	0.341615	-0.007058
25565	8.099340	-0.206587	-5.449584	0.000207	0.388334	-0.005455
25566	8.133047	-0.183904	-5.397386	-0.006125	0.443056	-0.003762
25567	8.245088	-0.144281	-5.140364	-0.027107	0.474636	0.007126
25568	8.309541	-0.089394	-4.926658	-0.084018	0.431145	0.038534
25569	8.333287	-0.071358	-4.978381	-0.192756	0.397397	0.101107
25570	8.358221	-0.308386	-5.096121	-0.192501	0.439494	0.104345
25571	8.420767	-0.263869	-4.879863	-0.028230	0.508018	0.004608
25572	8.522759	-0.158028	-4.624387	0.003841	0.502852	-0.012718
25573	8.559229	-0.170854	-4.565956	0.003992	0.477952	-0.011954
25574	8.622943	-0.177599	-4.435323	-0.001445	0.480355	-0.015276
25575	8.677179	-0.163871	-4.421384	-0.003772	0.475853	-0.014202
25576	8.727982	-0.145369	-4.270690	-0.002412	0.482319	-0.015588
25577	8.771701	-0.156688	-4.211192	-0.001087	0.489908	-0.016164
25578	8.797326	-0.146462	-4.151984	-0.001153	0.511668	-0.016248
25579	8.840681	-0.159455	-4.132157	-0.003364	0.576040	-0.022875
25580	8.917405	-0.142136	-3.939602	0.000187	0.644725	-0.024874
25581	8.981117	-0.119295	-3.691518	0.004387	0.683476	-0.025051
25582	9.041005	-0.121334	-3.518639	0.013636	0.688159	-0.020737
25583	9.103334	-0.132698	-3.375856	0.011874	0.706946	-0.023373
25584	9.175584	-0.119344	-3.115690	0.015644	0.702796	-0.028866
25585	9.242686	-0.122449	-2.926153	0.006098	0.678269	-0.032615
25586	9.289630	-0.108023	-2.822727	-0.007717	0.648968	-0.034516
25587	9.309691	-0.102339	-2.700045	-0.019613	0.638518	-0.033813
25588	9.369527	-0.079962	-2.583641	-0.043656	0.650823	-0.029439
25589	9.440052	-0.068197	-2.307730	-0.091872	0.637240	-0.015544
25590	9.461274	-0.062731	-2.186963	-0.126866	0.604419	-0.004297
25591	9.511029	-0.067719	-2.004813	-0.143967	0.569563	-0.000735
25592	9.508207	-0.075827	-2.046806	-0.122743	0.560199	-0.008322
25593	9.542036	-0.030968	-1.862693	-0.039648	0.586060	-0.030775
25594	9.581878	-0.019033	-1.579325	-0.041120	0.552738	-0.026925
25595	9.607750	-0.046423	-1.529166	-0.086945	0.510631	-0.017856
25596	9.600590	-0.027395	-1.509523	-0.094537	0.515418	-0.018386
25597	9.621524	-0.006705	-1.388326	-0.089829	0.539430	-0.021620
25598	9.646187	0.019607	-1.246501	-0.066465	0.557543	-0.022536
25599	9.668659	0.015875	-1.045392	-0.032294	0.569735	-0.026127
25600	9.717713	0.042640	-0.743389	-0.012048	0.528041	-0.021027
25601	9.708352	0.030764	-0.704644	-0.013680	0.466851	-0.015434
25602	9.729732	0.028887	-0.602594	-0.003593	0.435882	-0.013983
25603	9.765811	0.072326	-0.338230	0.004829	0.354878	0.003533
25604	9.752011	0.078135	-0.482020	0.001629	0.281527	0.023825
25605	9.757258	0.056712	-0.377236	0.038783	0.238055	0.039384
25606	9.749841	-0.002847	-0.302898	0.047371	0.200185	0.033835
25607	9.745426	-0.001690	-0.288923	0.037770	0.187328	0.036333
25608	9.718508	-0.109543	-0.208501	-0.002713	0.164395	0.022963
25609	9.740989	-0.076113	-0.238282	-0.077179	0.143745	0.002065
25610	9.711036	-0.102335	-0.379013	-0.089080	0.169343	-0.026067
25611	9.728545	-0.017964	-0.237449	-0.053870	0.194255	-0.048360
25612	9.751647	0.043822	-0.168292	-0.064156	0.207142	-0.051048
25613	9.763293	0.049604	-0.033681	-0.083496	0.196124	-0.040505
25614	9.737979	0.024016	-0.084495	-0.137716	0.194301	-0.030418
25615	9.743930	-0.015343	0.017332	-0.178733	0.207884	-0.041218
25616	9.766465	0.108795	0.021426	-0.186229	0.187724	-0.043715
25617	9.809657	0.133896	0.252298	-0.107157	0.173717	-0.022065
25618	9.776215	0.023536	0.196089	-0.071163	0.032933	-0.016866
25619	9.755092	0.106178	0.182922	-0.053488	0.052055	-0.024728
25620	9.748254	0.115944	0.143697	-0.034209	0.027575	-0.012364
25621	9.733266	0.108462	0.196479	-0.024386	0.014051	-0.002856
25622	9.761443	0.075972	0.125324	-0.000339	-0.010977	0.003556
25623	9.746129	0.065862	0.111067	-0.000360	-0.002817	0.004495
25624	9.743149	0.089623	0.155224	0.000529	-0.012434	0.007987
25625	9.748678	0.066969	0.121067	0.001073	-0.020178	0.014964
25626	9.750688	0.069588	0.073013	0.000151	-0.010080	0.008989
25627	9.752488	0.058924	0.068481	-0.000393	-0.000841	0.004228
25628	9.748855	0.069070	0.095486	-0.001004	0.000995	0.001221
25629	9.743449	0.088147	0.125437	0.000101	-0.002936	0.005231
25630	9.756760	0.052488	0.079861	0.001999	-0.005526	0.005853
25631	9.750591	0.049352	0.110972	-0.001112	0.000395	0.004285
25632	9.753139	0.061563	0.106901	0.000421	0.005187	-0.000169
25633	9.740224	0.057955	0.111440	-0.000784	0.005186	-0.000476
25634	9.755667	0.074419	0.104440	-0.000149	0.003212	-0.000056
25635	9.734274	0.077829	0.083355	0.000052	0.004209	0.001472
25636	9.732402	0.079332	0.108102	-0.000350	0.003710	0.000631
25637	9.734166	0.070324	0.105923	0.000019	0.004689	-0.001010
25638	9.746276	0.052389	0.105179	0.001800	0.003335	-0.000177
25639	9.746263	0.052391	0.106353	-0.001646	0.006302	0.000162
25640	9.753138	0.069009	0.095025	0.000303	0.004930	-0.002174
25641	9.751345	0.078407	0.099548	0.000504	0.005927	-0.000646
25642	9.754888	0.060413	0.094427	0.000478	0.004570	-0.000274
25643	9.742754	0.078415	0.097147	0.000854	0.003712	0.000939
25644	9.741965	0.056466	0.099764	0.000880	0.005069	0.000567
25645	9.741955	0.056369	0.100771	0.001055	0.003214	0.000252
25646	9.744505	0.069189	0.096909	0.000077	0.004071	-0.001115
25647	9.750500	0.056592	0.107221	-0.000895	0.003091	0.000371
25648	9.744372	0.061791	0.119180	-0.000494	0.003590	0.001212
25649	9.744480	0.068982	0.099516	0.000537	0.003952	-0.000379
25650	9.751253	0.078175	0.108369	-0.000066	0.003951	-0.000533
25651	9.746242	0.059939	0.098199	0.000108	0.003591	0.001367
25652	9.754924	0.066956	0.083112	-0.000435	0.002972	0.001107
25653	9.754661	0.052322	0.125210	0.001223	0.004692	-0.000702
25654	9.759125	0.063136	0.097604	0.000024	0.002853	0.001843
25655	9.740081	0.064691	0.112894	-0.000726	0.004569	-0.000583
25656	9.748764	0.072051	0.097957	0.001055	0.003214	0.000252
25657	9.751321	0.084685	0.094220	0.000277	0.005069	0.000413
25658	9.748743	0.071919	0.100139	0.001683	0.004572	0.000035
25659	9.761643	0.075609	0.097846	-0.000150	0.003213	-0.000057
25660	9.741950	0.062799	0.093882	-0.000234	0.002474	0.000420
25661	9.754706	0.059202	0.112250	0.001106	0.005929	-0.000492
25662	9.741928	0.063031	0.095971	0.000195	0.002835	-0.001326
25663	9.744342	0.068467	0.112592	-0.000495	0.003591	0.001212
25664	9.744482	0.075700	0.092777	0.000052	0.002715	-0.000744
25665	9.770146	0.075709	0.107738	-0.000554	0.004209	0.001317
25666	9.754655	0.059191	0.116635	0.001197	0.003335	-0.000329
25667	9.754014	0.044608	0.098446	-0.000495	0.003591	0.001212
25668	9.743665	0.053535	0.097852	0.000537	0.003953	-0.000379
25669	9.752996	0.075422	0.101972	0.000537	0.003953	-0.000379
25670	9.757182	0.071871	0.115656	0.000478	0.004571	-0.000274
25671	9.748778	0.079163	0.091388	-0.000209	0.003832	0.000048
25672	9.735855	0.075441	0.095697	-0.000326	0.005069	0.000258
25673	9.748757	0.079075	0.093633	-0.000268	0.004450	0.000153
25674	9.752152	0.053548	0.108902	0.000191	0.004331	0.000889
25675	9.743761	0.060649	0.084675	0.000936	0.004452	0.000463
25676	9.747941	0.057009	0.098346	0.000536	0.003953	-0.000379
25677	9.748545	0.071529	0.118100	0.001171	0.001978	0.000043
25678	9.746137	0.066137	0.103056	0.000478	0.004572	-0.000274
25679	9.757073	0.071512	0.124698	0.000191	0.004331	0.000889
25680	9.738355	0.087605	0.098925	-0.000412	0.004331	0.000734
25681	9.767573	0.069371	0.107681	0.000851	0.003714	0.000940
25682	9.746098	0.065453	0.107079	0.000249	0.003713	0.000784
25683	9.734961	0.052626	0.107943	-0.000150	0.003214	-0.000057
25684	9.750449	0.068920	0.100911	0.000190	0.004332	0.000889
25685	9.754616	0.065162	0.114634	-0.000268	0.004451	0.000152
25686	9.757185	0.077853	0.110993	0.001682	0.004574	0.000036
25687	9.746046	0.065132	0.111882	-0.000092	0.002595	-0.000162
25688	9.754584	0.065035	0.117437	-0.001158	0.004210	0.001160
25689	9.760737	0.059469	0.107301	0.000393	0.003833	0.000203
25690	9.743637	0.059401	0.098708	-0.000151	0.003214	-0.000058
25691	9.750381	0.068504	0.107571	0.001080	0.004573	-0.000119
25692	9.738036	0.079408	0.130690	0.000052	0.002715	-0.000744
25693	9.756522	0.063492	0.098728	-0.000046	0.008645	-0.001546
25694	9.752915	0.081941	0.106895	0.000647	0.006051	-0.001228
25695	9.749734	0.055090	0.094165	0.001334	0.006791	-0.001549
25696	9.756818	0.071685	0.143175	-0.000642	0.005310	-0.001062
25697	9.747922	0.064067	0.099220	0.000915	-0.002077	0.004329
25698	9.741180	0.054260	0.091243	0.000137	0.001617	0.001633
25699	9.737377	0.064444	0.118082	0.001118	-0.002575	0.003643
25700	9.746145	0.071335	0.102006	0.001289	0.000741	-0.000166
25701	9.741181	0.053278	0.091622	-0.000785	0.005190	-0.000481
25702	9.746689	0.086155	0.123370	0.000013	0.008027	-0.001651
25703	9.743172	0.051860	0.070968	0.000189	0.004333	0.000889
25704	9.756078	0.056029	0.069994	0.000550	0.013820	-0.004885
25705	9.762524	0.059950	0.103544	0.000531	0.027502	-0.012513
25706	9.759386	0.094569	0.134119	0.000285	0.014940	-0.004094
25707	9.727566	0.100015	0.132644	-0.000061	-0.001219	0.002959
25708	9.750620	0.085755	0.149587	0.000015	-0.015520	0.010483
25709	9.748994	0.039046	0.027794	-0.002653	-0.021416	0.016998
25710	9.838608	0.311224	0.084466	-0.006009	0.002696	0.057410
25711	9.772056	0.100308	0.105979	0.005569	0.006575	0.123450
25712	9.759227	0.011863	0.110662	0.005538	0.006497	0.140755
25713	9.733646	-0.066712	0.136986	0.008405	0.001791	0.132876
25714	9.774563	0.000540	0.084839	0.001130	-0.001458	0.131634
25715	9.850812	0.187620	0.074054	-0.001264	0.002284	0.199125
25716	9.865061	0.096257	0.010207	0.021946	0.007286	0.320366
25717	9.752641	-0.172059	0.085785	0.082335	0.014187	0.396459
25718	9.774521	-0.262157	0.109372	0.016635	0.034309	0.410497
25719	9.786632	-0.265523	0.219665	-0.040948	0.040426	0.458601
25720	9.755686	-0.377454	0.271521	-0.045927	-0.014779	0.542616
25721	9.853129	-0.425083	-0.064310	-0.036827	-0.008826	0.632684
25722	9.719743	-0.798118	0.103308	0.002393	0.011117	0.730822
25723	9.688610	-1.003106	0.086454	0.018784	0.005012	0.746351
25724	9.624089	-1.263319	0.128081	0.001898	0.010384	0.756909
25725	9.655535	-1.329850	0.101198	-0.016250	0.016829	0.762844
25726	9.628373	-1.557017	0.033463	0.018771	0.025506	0.815933
25727	9.559025	-1.810857	0.086176	0.033439	0.049180	0.830758
25728	9.473132	-2.041303	0.168173	0.033785	0.055284	0.827802
25729	9.405485	-2.269676	0.284263	0.004177	0.021074	0.806674
25730	9.411407	-2.461091	0.113975	-0.041366	0.006109	0.773212
25731	9.373612	-2.635653	0.041617	-0.046117	0.048522	0.752711
25732	9.298806	-2.845055	0.134496	-0.024105	0.063560	0.726568
25733	9.239448	-2.990636	0.208386	0.008478	0.046123	0.709500
25734	9.201496	-3.133653	0.221426	0.015940	0.029981	0.686006
25735	9.088705	-3.413603	0.345469	-0.046554	0.004713	0.641794
25736	9.121779	-3.423246	0.139861	-0.093649	0.000008	0.582385
25737	9.115246	-3.471986	0.077798	-0.065516	0.023466	0.600625
25738	9.042814	-3.557121	0.165369	0.001220	0.018734	0.650502
25739	9.005039	-3.658199	0.245557	0.045018	-0.004986	0.710586
25740	8.913367	-3.870023	0.208776	0.027043	-0.024740	0.775695
25741	8.797869	-4.181990	0.143088	0.011339	-0.007113	0.792844
25742	8.703530	-4.387294	0.096082	0.025200	0.009935	0.781818
25743	8.623244	-4.542232	0.182969	0.022175	0.035795	0.766047
25744	8.551092	-4.636699	0.225854	0.001532	0.039365	0.762182
25745	8.467252	-4.790078	0.192807	-0.001452	0.036192	0.795909
25746	8.338137	-5.079402	0.234372	-0.008595	0.021988	0.789028
25747	8.252711	-5.176855	0.253076	-0.014195	0.002685	0.777463
25748	8.140454	-5.321846	0.220943	-0.008902	-0.006220	0.784562
25749	8.011267	-5.569758	0.183853	-0.003100	-0.005254	0.785141
25750	7.912116	-5.758720	0.211165	-0.008236	-0.000406	0.738744
25751	7.881124	-5.863551	-0.011784	-0.009179	0.007048	0.723066
25752	7.724024	-6.041316	0.164948	0.033482	0.072028	0.690915
25753	7.604927	-6.178789	0.197155	0.033913	0.080671	0.656799
25754	7.536538	-6.244335	0.217350	0.017719	0.103018	0.612911
25755	7.407677	-6.709887	-0.011899	0.054140	0.085320	0.593195
25756	7.286607	-6.581211	0.433253	0.102065	0.157843	0.431979
25757	7.274988	-6.560466	0.393897	0.091644	0.132226	0.396393
25758	7.213323	-6.641182	0.432300	0.081725	0.114208	0.354717
25759	7.112948	-6.769723	0.494604	0.070564	0.090576	0.301709
25760	7.058926	-6.882255	0.492397	0.056467	0.076151	0.213564
25761	7.072053	-6.784539	0.580737	-0.017000	0.048620	0.109884
25762	7.032807	-6.832152	0.483501	-0.015137	0.034196	0.088909
25763	6.987290	-6.879966	0.485022	0.002291	0.004405	0.018913
25764	6.948978	-6.956255	0.481421	-0.008199	0.000537	-0.076455
25765	7.174011	-6.629430	0.544445	-0.025619	-0.007371	-0.144571
25766	7.176329	-6.650415	0.418483	-0.012149	-0.019013	-0.054982
25767	7.216382	-6.590012	0.395458	-0.013952	-0.023410	-0.067560
25768	7.154081	-6.678833	0.440365	0.001682	-0.016287	-0.037591
25769	7.260912	-6.539434	0.373770	0.009403	-0.014370	-0.019052
25770	7.252519	-6.530824	0.357651	0.030723	-0.002829	0.047294
25771	7.147724	-6.685283	0.445714	0.030384	0.005695	0.060185
25772	7.191064	-6.642998	0.391893	0.030881	0.014314	0.061131
25773	7.063721	-6.787581	0.497930	0.005835	0.008527	0.020496
25774	7.168809	-6.657959	0.427311	0.001433	0.008715	0.019642
25775	7.115314	-6.739293	0.456926	0.001275	0.006688	0.020093
25776	7.067139	-6.771656	0.459654	-0.001562	0.002762	-0.018017
25777	7.230525	-6.591955	0.411826	-0.003465	0.000867	-0.020213
25778	7.098780	-6.744403	0.489564	-0.003865	-0.001923	-0.017871
25779	7.106460	-6.746224	0.475381	-0.015828	-0.016271	-0.057370
25780	7.273269	-6.482476	0.345125	-0.005604	-0.003197	-0.019949
25781	7.123873	-6.711722	0.452602	0.001969	0.005190	0.003188
25782	7.200645	-6.619979	0.409067	0.000877	0.004175	0.003395
25783	7.152300	-6.673042	0.427601	0.005284	0.012329	0.017912
25784	7.136067	-6.714586	0.458513	0.000319	0.007520	0.006213
25785	7.135685	-6.694677	0.443976	-0.004581	-0.002333	-0.018156
25786	7.185683	-6.649504	0.415767	-0.001297	-0.000850	-0.008700
25787	7.156462	-6.694141	0.456323	-0.001993	0.000930	-0.010831
25788	7.181760	-6.637093	0.433837	-0.002577	0.000348	-0.009726
25789	7.156680	-6.706490	0.441357	-0.003474	-0.000999	-0.014243
25790	7.171091	-6.636650	0.408060	-0.004087	-0.002211	-0.021370
25791	7.214510	-6.596739	0.400825	0.000452	0.002479	0.001057
25792	7.162262	-6.667638	0.440861	0.001298	0.009330	0.012844
25793	7.161660	-6.672573	0.418895	-0.000327	0.008981	0.007477
25794	7.149995	-6.686215	0.437346	-0.002701	0.007434	0.003101
25795	7.191469	-6.643077	0.418447	-0.000243	0.004259	-0.001074
25796	7.152922	-6.670432	0.453241	0.001546	0.005224	0.004407
25797	7.183118	-6.640601	0.451610	-0.000638	0.003193	0.004819
25798	7.188519	-6.640763	0.408889	0.002818	0.010631	0.015542
25799	7.173398	-6.648312	0.439385	-0.000225	0.013228	0.020823
25800	7.153864	-6.662473	0.430535	-0.001812	0.018855	0.024844
25801	7.185742	-6.632439	0.411586	0.004154	0.022804	0.034798
25802	7.100756	-6.770216	0.473101	-0.004577	0.021282	0.023402
25803	7.194977	-6.611148	0.431067	-0.016853	0.027447	0.031174
25804	7.085222	-6.783793	0.461675	-0.006277	0.018135	0.034802
25805	7.110737	-6.729233	0.457183	-0.000913	0.006361	0.000916
25806	7.116839	-6.724348	0.437770	-0.003977	0.009746	-0.002603
25807	7.165310	-6.634301	0.445380	-0.008207	0.008822	-0.006915
25808	7.190885	-6.622211	0.430070	0.001431	0.010444	0.030745
25809	7.198567	-6.615403	0.431532	-0.005347	0.022188	0.062786
25810	7.229959	-6.539023	0.429836	0.005693	0.022215	0.137026
25811	7.145522	-6.660516	0.472408	0.026252	0.009773	0.208939
25812	7.119648	-6.654862	0.460962	0.025220	0.011694	0.264999
25813	7.136518	-6.612039	0.426686	0.029595	0.018700	0.346917
25814	7.065594	-6.673082	0.471912	0.057104	0.020266	0.476922
25815	6.868911	-6.922248	0.478605	0.087501	0.005925	0.552513
25816	6.772902	-6.994026	0.519365	0.080013	0.008647	0.590055
25817	6.686246	-7.056401	0.521906	0.067732	0.019237	0.644727
25818	6.568173	-7.178637	0.466899	0.054190	0.042338	0.715579
25819	6.382701	-7.346875	0.480113	0.066326	0.073889	0.761710
25820	6.184555	-7.514908	0.646954	0.076538	0.074381	0.789565
25821	6.050398	-7.596605	0.700016	0.035006	0.074440	0.798191
25822	5.944254	-7.651478	0.676886	-0.006025	0.068048	0.842089
25823	5.744994	-7.866979	0.459551	0.029107	0.070935	0.901657
25824	5.447196	-8.098250	0.754742	0.073721	0.075694	0.895370
25825	5.242744	-8.253013	0.724574	0.013223	0.046684	0.848389
25826	5.142054	-8.301015	0.733052	0.008926	0.032801	0.810742
25827	4.987664	-8.345677	0.909418	0.035196	-0.049165	0.839054
25828	4.800694	-8.550164	0.653396	0.049878	-0.125045	0.847833
25829	4.634532	-8.664053	0.512107	0.018493	-0.048067	0.800826
25830	4.418661	-8.773287	0.623832	-0.009778	0.030175	0.758474
25831	4.257941	-8.824665	0.717165	-0.003761	0.017140	0.718703
25832	4.140691	-8.897696	0.656643	-0.008933	0.005922	0.688760
25833	4.010548	-9.034258	0.459093	-0.001759	0.040265	0.656590
25834	3.861242	-9.049191	0.611067	0.028557	0.107580	0.606017
25835	3.740849	-9.010410	0.751809	0.017430	0.101038	0.601847
25836	3.624213	-9.034379	0.776803	-0.011758	0.100729	0.609768
25837	3.478254	-9.022987	0.911901	-0.036079	0.040931	0.648035
25838	3.297220	-9.211821	0.676120	-0.036944	-0.007919	0.688619
25839	3.083964	-9.431931	0.528309	-0.016788	0.029155	0.653032
25840	2.967642	-9.357212	0.743679	-0.044705	0.083979	0.582766
25841	2.891410	-9.217988	0.935393	-0.145853	0.064081	0.569972
25842	2.794304	-9.314972	0.696076	-0.205574	0.024474	0.613097
25843	2.580537	-9.515740	0.449024	-0.121986	0.008333	0.646197
25844	2.426000	-9.482898	0.506879	-0.046114	0.005051	0.653138
25845	2.189827	-9.634904	0.550847	-0.039458	0.001677	0.639996
25846	2.059562	-9.806950	0.358982	-0.026118	0.033852	0.555277
25847	2.018687	-9.634320	0.512353	-0.010578	0.079351	0.484383
25848	1.929977	-9.544411	0.537073	-0.008606	0.081429	0.505206
25849	1.794489	-9.569236	0.559276	-0.004973	0.071882	0.551777
25850	1.630677	-9.622935	0.682075	-0.040611	0.058197	0.575698
25851	1.493541	-9.659377	0.703590	-0.073189	-0.000665	0.579075
25852	1.377936	-9.648265	0.531467	-0.069133	-0.039457	0.607107
25853	1.228530	-9.592687	0.598071	-0.073229	-0.074154	0.677677
25854	0.885952	-9.938753	0.503497	-0.099995	-0.079605	0.665316
25855	0.795753	-9.994546	0.272955	-0.094923	-0.035347	0.556608
25856	0.683546	-9.891556	0.284701	-0.072942	0.040884	0.491100
25857	0.339539	-10.571978	0.400622	-0.086758	0.031178	0.345854
25858	0.585630	-9.967390	0.235521	-0.023033	0.091903	0.069759
25859	0.554120	-9.871336	0.432410	0.012100	0.072986	0.032662
25860	0.531940	-9.853752	0.462418	-0.023305	0.091473	0.001750
25861	0.629736	-9.799049	0.390965	-0.033831	0.062527	-0.008515
25862	0.665357	-9.723762	0.450838	-0.023368	0.058173	0.034110
25863	0.699440	-9.671522	0.490271	-0.055057	0.006322	0.114706
25864	0.628018	-9.760427	0.356604	-0.048202	-0.009433	0.175233
25865	0.545166	-9.803802	0.372328	-0.064705	-0.022490	0.226745
25866	0.454651	-9.819315	0.318005	-0.067388	-0.009824	0.221199
25867	0.410728	-9.813439	0.314375	-0.081482	0.002309	0.246464
25868	0.340279	-9.843793	0.305234	-0.086926	0.013998	0.256178
25869	0.239041	-9.875413	0.292870	-0.081605	0.003946	0.244387
25870	0.197845	-9.839536	0.259946	-0.081967	-0.005347	0.234998
25871	0.207159	-9.867728	0.079952	-0.086453	0.019345	0.258473
25872	-0.229381	-10.162666	0.115020	0.000115	0.100539	0.163265
25873	0.031884	-9.879525	0.221512	-0.001820	0.110051	0.002401
25874	0.059258	-9.851777	0.269660	-0.002166	0.071769	-0.001900
25875	0.063138	-9.850519	0.233018	-0.001271	0.050909	-0.001298
25876	0.055027	-9.835580	0.219271	-0.001109	0.037573	-0.003185
25877	0.081603	-9.852538	0.268734	0.000058	0.010418	-0.000464
25878	0.089818	-9.847401	0.219990	0.000485	0.004848	0.000877
25879	0.089478	-9.847407	0.219872	-0.001531	0.004965	0.001661
25880	0.080405	-9.840894	0.211180	0.000666	0.006474	0.001762
25881	0.062393	-9.850526	0.232921	0.002162	0.004239	0.001705
25882	0.070751	-9.842790	0.208214	0.000546	0.003049	0.000992
25883	0.074432	-9.855769	0.205826	0.001554	0.002990	0.000600
25884	0.083715	-9.842840	0.228496	-0.000277	0.002903	0.000607
25885	0.087569	-9.855825	0.225750	-0.000550	0.003976	-0.000448
25886	0.079293	-9.840880	0.212264	0.000916	0.002641	-0.000562
25887	0.070229	-9.842776	0.209088	0.003046	0.002585	0.002205
25888	0.083001	-9.842833	0.229028	-0.002416	0.001426	0.002281
25889	0.055738	-9.856978	0.222655	-0.000065	0.003631	0.001548
25890	0.073372	-9.844740	0.225482	0.003477	0.000377	0.000765
25891	0.063940	-9.855062	0.227050	-0.001043	0.002790	0.001997
25892	0.077179	-9.840875	0.213300	0.001282	0.004063	-0.000454
25893	0.081050	-9.853857	0.210736	-0.000642	0.001481	0.000499
25894	0.085676	-9.855810	0.227110	0.002079	0.003278	-0.001787
25895	0.077332	-9.840858	0.213998	0.001400	0.002295	0.001435
25896	0.063765	-9.840799	0.194451	0.001158	0.002468	0.000437
25897	0.072253	-9.847313	0.203351	0.001158	0.002468	0.000437
25898	0.072721	-9.836280	0.222476	0.001128	0.003368	0.000381
25899	0.076154	-9.851865	0.196342	0.001158	0.002468	0.000437
25900	0.089406	-9.851909	0.216624	0.002136	0.003309	-0.000010
25901	0.076417	-9.840823	0.215951	0.000727	0.004677	0.001879
25902	0.080176	-9.845385	0.208535	0.000546	0.003050	0.000994
25903	0.071498	-9.844677	0.228799	0.000762	0.001946	0.000273
25904	0.080105	-9.845376	0.208984	0.001498	0.002959	-0.001173
25905	0.058095	-9.853037	0.214301	-0.000277	0.002905	0.000608
25906	0.080183	-9.851180	0.238038	0.001709	0.003687	-0.000231
25907	0.075727	-9.849221	0.222095	0.000305	0.003223	-0.000004
25908	0.088528	-9.857690	0.247053	0.000787	0.002878	0.001992
25909	0.088232	-9.851876	0.218604	0.001313	0.003164	-0.000395
25910	0.088233	-9.851871	0.218865	0.000762	0.001946	0.000274
25911	0.084462	-9.830459	0.216852	0.001554	0.002992	0.000604
25912	0.066172	-9.851096	0.219879	0.002563	0.002933	0.000213
25913	0.070466	-9.847233	0.207823	0.001128	0.003369	0.000383
25914	0.092695	-9.836954	0.226608	0.000089	0.004328	0.000717
25915	0.074269	-9.851798	0.200388	-0.000277	0.002905	0.000608
25916	0.079038	-9.842713	0.235517	0.001003	0.001773	0.001273
25917	0.074507	-9.840759	0.219507	0.000521	0.002119	-0.000724
25918	0.074120	-9.849177	0.224559	0.000330	0.004156	0.001716
25919	0.087090	-9.851834	0.220977	0.002081	0.003278	-0.001782
25920	0.074230	-9.849159	0.225319	0.001585	0.002092	0.000661
25921	0.078011	-9.853721	0.218092	0.001183	0.003402	0.002159
25922	0.064941	-9.842633	0.217327	0.001158	0.002469	0.000440
25923	0.060404	-9.846478	0.230179	0.001554	0.002992	0.000605
25924	0.077114	-9.862127	0.223831	-0.000277	0.002906	0.000609
25925	0.086464	-9.843386	0.217667	0.000461	0.003920	-0.000836
25926	0.086222	-9.851799	0.222865	0.001554	0.002993	0.000606
25927	0.086464	-9.834961	0.213120	-0.000463	0.003111	0.001386
25928	0.064202	-9.842618	0.218234	0.000305	0.003224	-0.000003
25929	0.067778	-9.864021	0.220732	0.001128	0.003370	0.000385
25930	0.063950	-9.842611	0.218627	0.000546	0.003052	0.000996
25931	0.085791	-9.834956	0.213593	0.000119	0.003429	0.000775
25932	0.059285	-9.849068	0.208092	0.005047	0.004902	-0.003061
25933	0.063782	-9.859411	0.230002	0.001037	0.006072	0.000218
25934	0.077697	-9.825785	0.230066	-0.001627	0.002475	0.002609
25935	0.097875	-9.854439	0.220677	-0.000679	0.004217	0.002108
25936	0.072170	-9.823865	0.213101	-0.003272	0.002184	0.001834
25937	0.069639	-9.840798	0.219353	-0.026302	0.001812	0.014463
25938	0.027244	-9.857542	0.166021	-0.001993	0.001051	0.002501
25939	0.067519	-9.838290	0.239399	-0.000090	0.002702	-0.000166
25940	0.071574	-9.845454	0.208405	0.002906	0.003424	-0.001391
25941	0.124351	-9.823081	0.248642	-0.009672	0.003884	0.007452
25942	0.170432	-9.801085	0.280577	-0.065326	0.023319	0.052650
25943	-0.043584	-9.893147	0.096892	-0.059154	0.019395	0.050603
25944	0.125165	-9.787949	0.294553	-0.052737	0.000920	0.042272
25945	-0.050758	-9.875163	0.040585	-0.079389	-0.007734	0.068599
25946	-0.038597	-9.882050	0.058157	-0.009377	0.009868	0.009146
25947	0.181733	-9.753232	0.348742	-0.043196	0.022660	0.034616
25948	-0.158610	-10.006398	0.407606	-0.199640	-0.038795	0.126261
25949	0.009442	-9.815710	-0.041793	-0.190571	-0.112289	0.011047
25950	-0.014483	-9.837847	-0.046196	-0.157968	-0.072245	-0.000223
25951	-0.017004	-9.883118	0.170745	-0.192918	-0.110212	-0.004120
25952	-0.061777	-9.834342	-0.184489	-0.262267	-0.085404	-0.005832
25953	-0.033559	-9.879336	-0.087656	-0.274492	-0.001713	-0.005654
25954	-0.039202	-9.866720	-0.103096	-0.363378	0.009175	-0.005951
25955	-0.007853	-9.851155	-0.278630	-0.433354	0.029355	-0.005634
25956	-0.013700	-9.846956	-0.343592	-0.451952	0.019586	-0.009720
25957	0.006090	-9.832587	-0.530090	-0.507310	0.004838	-0.014668
25958	-0.016598	-9.811929	-0.673461	-0.499368	-0.016089	-0.013304
25959	-0.022493	-9.795279	-0.830113	-0.519368	-0.010866	-0.014514
25960	-0.016998	-9.811110	-0.805890	-0.551719	-0.001752	-0.015211
25961	-0.009149	-9.773798	-1.017267	-0.623355	0.011419	-0.015537
25962	0.007103	-9.746284	-1.256402	-0.682997	0.052384	-0.013195
25963	0.018787	-9.678145	-1.589873	-0.600442	0.062882	-0.008824
25964	0.005984	-9.742832	-1.329393	-0.602266	0.059481	-0.010587
25965	-0.002273	-9.690453	-1.591152	-0.749088	0.066186	-0.016550
25966	0.038412	-9.599806	-1.937263	-0.767952	0.077916	-0.010036
25967	0.047289	-9.571792	-2.141974	-0.697306	0.052648	-0.006750
25968	0.040641	-9.599373	-2.013203	-0.709421	0.013501	-0.013406
25969	0.054789	-9.538239	-2.202800	-0.865984	-0.004211	-0.024010
25970	0.049957	-9.424075	-2.662239	-0.946637	0.001628	-0.026632
25971	0.044681	-9.295231	-3.157735	-0.827451	0.026598	-0.018049
25972	0.048488	-9.322757	-3.043981	-0.731211	0.070975	-0.001021
25973	0.063892	-9.292364	-3.098083	-0.769876	0.021513	-0.016290
25974	0.038470	-9.236872	-3.257134	-0.770541	-0.064780	-0.042230
25975	0.064071	-9.115371	-3.571342	-0.733415	-0.155689	-0.081371
25976	0.086977	-9.002039	-3.892400	-0.678257	-0.139640	-0.070467
25977	0.092169	-9.007454	-3.853290	-0.601921	-0.126350	-0.061881
25978	0.054588	-9.030186	-3.676705	-0.718442	-0.185810	-0.089968
25979	0.040217	-8.820393	-4.266204	-0.818757	-0.222023	-0.111014
25980	0.108023	-8.648164	-4.773910	-0.707039	-0.128241	-0.084492
25981	0.106925	-8.620142	-4.796686	-0.495681	0.017908	-0.009597
25982	0.075226	-8.698178	-4.483166	-0.458511	0.025994	-0.003504
25983	0.114124	-8.622561	-4.597447	-0.539388	0.003040	-0.017766
25984	0.136284	-8.528003	-4.805995	-0.582087	0.028456	-0.000899
25985	0.127223	-8.434758	-4.929049	-0.628618	0.086153	0.032981
25986	0.103075	-8.354173	-5.207332	-0.579934	0.117841	0.052070
25987	0.086961	-8.325823	-5.164594	-0.555304	0.087875	0.034193
25988	0.118222	-8.209694	-5.380877	-0.536609	0.080049	0.034660
25989	0.141495	-8.156186	-5.392511	-0.503883	0.075659	0.041868
25990	0.124902	-8.058797	-5.616288	-0.481251	0.074056	0.057003
25991	0.108867	-8.050936	-5.614080	-0.453453	0.088882	0.064085
25992	0.065224	-7.988777	-5.681512	-0.450298	0.029784	0.025498
25993	0.110303	-7.887720	-5.859999	-0.406398	-0.005217	0.000996
25994	0.081317	-7.991674	-5.329191	-0.475974	-0.021446	-0.009237
25995	0.083680	-7.758525	-5.948028	-0.729307	-0.090139	-0.050959
25996	0.134354	-7.515292	-6.474951	-0.598441	-0.062184	-0.033919
25997	0.109071	-7.539439	-6.285813	-0.452388	-0.033136	-0.012109
25998	0.115815	-7.561648	-5.947122	-0.561831	-0.024514	-0.000588
25999	0.113976	-7.383459	-6.253867	-0.782371	-0.026484	0.010718
26000	0.087574	-7.172544	-6.833734	-0.741330	-0.026881	0.012467
26001	0.055239	-7.044564	-7.072073	-0.491082	-0.019318	0.007338
26002	0.057280	-7.093143	-6.734193	-0.379451	-0.012639	0.007330
26003	0.082203	-7.044973	-6.519984	-0.529178	-0.007284	0.017705
26004	0.135373	-6.829199	-7.091978	-0.614465	-0.025362	0.041621
26005	0.020985	-6.747719	-7.232670	-0.449493	-0.059554	0.057669
26006	-0.023069	-6.681350	-7.428351	-0.265639	-0.036572	0.034238
26007	0.030432	-6.709557	-7.085856	-0.172231	-0.022685	0.021677
26008	0.065553	-6.709544	-6.869726	-0.298806	-0.039491	0.039279
26009	-0.013946	-6.588066	-7.264756	-0.403581	-0.063291	0.056878
26010	-0.043047	-6.514197	-7.347743	-0.312262	-0.053616	0.048918
26011	-0.068042	-6.422321	-7.582503	-0.328947	-0.064417	0.075416
26012	-0.119216	-6.408921	-7.596078	-0.090730	-0.023430	0.029488
26013	0.008548	-6.437871	-7.168265	-0.125032	-0.038141	0.048153
26014	-0.193810	-6.363184	-7.721258	-0.105954	-0.032071	0.046126
26015	-0.121101	-6.360286	-7.457538	-0.005802	0.001768	0.004625
26016	-0.109826	-6.383383	-7.393147	-0.003855	0.000929	0.003663
26017	-0.115432	-6.361726	-7.422815	-0.001214	0.000594	-0.000461
26018	-0.097615	-6.399771	-7.405197	-0.001633	-0.005092	-0.006343
26019	-0.123687	-6.350502	-7.423479	-0.000122	-0.009056	-0.012442
26020	-0.096996	-6.364737	-7.415791	0.000907	-0.000118	-0.002214
26021	-0.106146	-6.381646	-7.425903	0.001278	0.001945	-0.001307
26022	-0.112909	-6.369352	-7.402184	0.001544	0.002218	-0.000372
26023	-0.101009	-6.379321	-7.433856	0.001769	0.003239	-0.001177
26024	-0.104399	-6.382605	-7.425103	0.002370	0.002121	-0.000070
26025	-0.111996	-6.363023	-7.421755	0.002209	0.003638	-0.001033
26026	-0.102609	-6.374213	-7.421129	0.001648	0.004008	-0.000401
26027	-0.102263	-6.383665	-7.424221	0.001278	0.001945	-0.001308
26028	-0.102652	-6.376354	-7.444620	0.000157	0.002686	-0.000043
26029	-0.110077	-6.372709	-7.424671	-0.002948	0.000809	0.001450
26030	-0.101167	-6.374102	-7.421245	0.000197	0.001938	0.001697
26031	-0.105463	-6.386129	-7.416177	-0.000682	0.001140	0.001409
26032	-0.100682	-6.374118	-7.421238	0.001383	0.003736	-0.001337
26033	-0.118087	-6.380335	-7.431573	0.002302	0.003785	0.000692
26034	-0.099318	-6.374822	-7.420652	0.001596	0.003114	-0.000387
26035	-0.103697	-6.370630	-7.432433	0.002249	0.002890	0.000706
26036	-0.103623	-6.380055	-7.435544	0.000423	0.002959	0.000891
26037	-0.098905	-6.368198	-7.440474	0.001931	0.001722	-0.000214
26038	-0.106815	-6.383479	-7.426674	0.001423	0.002988	0.000403
26039	-0.118991	-6.375865	-7.418315	0.002076	0.002765	0.001497
26040	-0.109914	-6.387000	-7.417721	0.001210	0.003610	-0.000547
26041	-0.108923	-6.378105	-7.414171	0.001862	0.003387	0.000547
26042	-0.108118	-6.369147	-7.410673	0.000544	0.002190	0.000114
26043	-0.100048	-6.372681	-7.430724	0.000983	0.002589	0.000258
26044	-0.108803	-6.380368	-7.437567	0.000718	0.002316	-0.000677
26045	-0.093911	-6.368358	-7.415070	0.000931	0.001694	0.000273
26046	-0.108016	-6.380740	-7.437260	0.001423	0.002988	0.000402
26047	-0.124140	-6.375876	-7.420605	0.000544	0.002190	0.000114
26048	-0.110680	-6.374745	-7.425284	0.000649	0.003981	0.000084
26049	-0.105739	-6.362876	-7.430230	0.001544	0.002219	-0.000374
26050	-0.113247	-6.368989	-7.413106	0.001984	0.002618	-0.000230
26051	-0.105524	-6.381836	-7.436355	0.000931	0.001694	0.000273
26052	-0.112718	-6.378545	-7.416109	0.000209	0.003582	-0.000061
26053	-0.111729	-6.369467	-7.412718	0.000914	0.004255	0.001018
26054	-0.130265	-6.368281	-7.443566	0.003075	0.002794	0.001008
26055	-0.116216	-6.384079	-7.430767	0.001528	0.004780	0.000370
26056	-0.111141	-6.363032	-7.432398	0.000704	0.000673	0.001079
26057	-0.110499	-6.379741	-7.415113	0.000370	0.002065	0.000904
26058	-0.102203	-6.374121	-7.431827	0.001370	0.002093	0.000416
26059	-0.092435	-6.366843	-7.424640	0.001332	0.002841	-0.001325
26060	-0.122208	-6.381491	-7.409936	-0.000244	0.001540	0.001551
26061	-0.117918	-6.378580	-7.418383	0.000035	0.003457	0.000728
26062	-0.109314	-6.372770	-7.435265	-0.000351	0.003953	0.000569
26063	-0.120357	-6.372541	-7.406452	0.003424	0.003046	-0.000574
26064	-0.112125	-6.376354	-7.426264	0.000984	0.002590	0.000256
26065	-0.098784	-6.375129	-7.431010	-0.000843	0.002659	0.000440
26066	-0.111388	-6.376280	-7.426339	-0.000070	0.001666	0.000759
26067	-0.102118	-6.377978	-7.422630	0.000597	0.003086	0.000096
26068	-0.123114	-6.368489	-7.418163	0.000544	0.002191	0.000112
26069	-0.099730	-6.392470	-7.381921	-0.005603	0.000977	0.001325
26070	-0.043404	-6.481003	-7.205164	-0.137453	-0.054604	0.036169
26071	-0.139585	-6.337227	-7.453377	-0.165998	-0.092906	0.008192
26072	-0.142203	-6.297343	-7.471230	-0.198874	-0.092281	0.036434
26073	-0.290975	-6.244128	-7.709757	-0.120675	-0.053922	-0.023006
26074	-0.195340	-6.373955	-7.412348	-0.159507	-0.003422	-0.014284
26075	-0.188062	-6.315820	-7.456574	-0.335814	0.017284	-0.006617
26076	-0.184324	-6.056096	-7.680392	-0.378600	0.020307	-0.017216
26077	-0.163667	-5.905047	-7.798578	-0.236120	0.017648	-0.008818
26078	-0.173355	-6.106053	-7.623514	-0.200682	0.016217	-0.009478
26079	-0.153360	-6.121748	-7.629472	-0.357621	0.027651	-0.013563
26080	-0.141110	-5.869533	-7.824829	-0.449820	0.032535	-0.018759
26081	-0.131496	-5.688647	-7.967816	-0.358999	0.027839	-0.014766
26082	-0.145574	-5.818912	-7.882342	-0.343971	0.026426	-0.015289
26083	-0.127592	-5.719026	-7.921668	-0.418488	0.031205	-0.017810
26084	-0.130083	-5.645795	-7.968344	-0.520258	0.040611	-0.019765
26085	-0.095368	-5.417612	-8.114378	-0.538342	0.039839	-0.021812
26086	-0.089243	-5.331170	-8.186378	-0.519922	0.037012	-0.021515
26087	-0.075676	-5.203641	-8.276232	-0.498216	0.037610	-0.015986
26088	-0.083253	-5.118288	-8.330751	-0.465908	0.037112	-0.013158
26089	-0.084344	-5.111861	-8.341220	-0.514484	0.038304	-0.021604
26090	-0.077307	-4.973970	-8.411686	-0.578691	0.043190	-0.023232
26091	-0.080003	-4.997149	-8.357479	-0.717308	0.054785	-0.028154
26092	-0.040710	-4.688026	-8.533731	-0.886937	0.055418	-0.049783
26093	0.016381	-4.384941	-8.719489	-0.883612	0.041220	-0.068866
26094	0.007909	-4.217617	-8.793173	-0.876125	0.043138	-0.071752
26095	0.049494	-3.972273	-8.908267	-0.849409	0.046439	-0.062034
26096	0.020785	-3.836646	-8.944152	-0.906666	0.066670	-0.025459
26097	0.034646	-3.550163	-9.101652	-0.901634	0.064236	-0.033600
26098	0.064535	-3.264735	-9.256144	-0.778601	0.046105	-0.056692
26099	0.096729	-3.121478	-9.289333	-0.624673	0.033881	-0.053279
26100	0.127688	-3.044573	-9.284471	-0.518827	0.034257	-0.026202
26101	0.107687	-3.115032	-9.164002	-0.596221	0.048953	-0.003700
26102	0.124943	-2.853808	-9.286652	-0.735298	0.073491	0.045134
26103	0.119141	-2.670055	-9.393941	-0.711991	0.067472	0.036992
26104	0.128231	-2.497916	-9.418871	-0.687944	0.057940	0.016095
26105	0.130003	-2.386004	-9.411818	-0.691155	0.058515	0.012895
26106	0.176799	-2.146115	-9.479192	-0.735007	0.065561	0.023290
26107	0.168787	-1.985739	-9.530724	-0.728511	0.059531	0.012583
26108	0.185171	-1.772641	-9.599052	-0.722790	0.053571	-0.005507
26109	0.206761	-1.610791	-9.633762	-0.702057	0.049154	-0.015503
26110	0.221528	-1.401039	-9.684343	-0.645442	0.040381	-0.028830
26111	0.240467	-1.242726	-9.686569	-0.588831	0.037765	-0.007727
26112	0.262953	-1.099440	-9.669475	-0.562681	0.039427	0.034704
26113	0.258000	-0.976360	-9.725037	-0.533268	0.043796	0.084942
26114	0.251263	-0.952320	-9.674123	-0.537940	0.041328	0.082742
26115	0.201541	-0.890132	-9.693924	-0.602007	0.060816	0.081896
26116	0.233534	-0.752035	-9.656101	-0.735907	0.136942	0.051986
26117	0.408268	-0.365212	-9.663123	-0.714383	0.067687	0.023407
26118	0.277243	-0.163729	-9.871756	-0.521371	-0.055954	-0.043165
26119	0.246855	0.195652	-10.147920	-0.221478	0.022340	-0.053023
26120	0.310781	-0.361150	-9.784774	-0.010931	0.032870	-0.020456
26121	0.352505	-0.256705	-9.664023	0.001330	0.029506	-0.013704
26122	0.363946	0.110319	-9.713202	0.004891	-0.037079	0.006811
26123	0.305963	-0.056596	-9.785190	0.004101	-0.024895	-0.011776
26124	0.303982	-0.157212	-9.782353	0.001176	-0.002707	0.000020
26125	0.291173	-0.160132	-9.735315	0.000431	0.003635	0.031172
26126	0.292511	-0.202855	-9.721248	-0.000563	0.003638	0.037677
26127	0.313884	-0.146873	-9.754954	0.002453	0.000558	0.031660
26128	0.292670	-0.185431	-9.732421	0.002300	0.001494	0.037230
26129	0.358132	-0.142726	-9.746718	-0.003462	0.004448	0.103388
26130	0.262874	-0.153777	-9.728947	-0.001923	0.005110	0.160330
26131	0.280818	-0.142917	-9.735720	-0.001701	0.003408	0.103160
26132	0.268315	-0.228462	-9.741679	0.002246	0.002913	0.020404
26133	0.321235	-0.179851	-9.736895	-0.001307	0.001911	0.002333
26134	0.291582	-0.171114	-9.730613	0.001291	0.005524	-0.000164
26135	0.292455	-0.176481	-9.738961	0.001599	0.001888	0.000784
26136	0.297487	-0.159435	-9.726673	0.002298	0.003316	0.000797
26137	0.306883	-0.173638	-9.741192	0.001197	0.002510	0.000682
26138	0.298868	-0.175235	-9.751755	0.001445	0.003707	0.000309
26139	0.286545	-0.174209	-9.741062	0.000496	0.002394	-0.000745
26140	0.291608	-0.161819	-9.737160	0.000544	0.003246	-0.000462
26141	0.292252	-0.167116	-9.745514	0.001697	0.002282	0.002765
26142	0.292991	-0.167475	-9.745486	0.001195	0.003821	-0.000733
26143	0.293609	-0.172719	-9.753842	0.000698	0.001428	0.000013
26144	0.302755	-0.171545	-9.743233	0.000096	0.001704	0.000567
26145	0.290242	-0.180393	-9.749310	0.000544	0.003246	-0.000462
26146	0.303971	-0.171795	-9.743190	0.000899	0.001772	-0.000643
26147	0.291372	-0.170893	-9.732510	0.002049	0.002120	0.001169
26148	0.305090	-0.167402	-9.734766	0.000094	0.003015	-0.000848
26149	0.305889	-0.172604	-9.743116	0.001445	0.003708	0.000308
26150	0.276062	-0.174179	-9.753629	0.000946	0.002625	-0.000360
26151	0.315951	-0.176949	-9.740842	0.001599	0.001889	0.000783
26152	0.298995	-0.169937	-9.745261	0.002249	0.002465	0.000512
26153	0.308363	-0.160339	-9.762609	0.000794	0.003132	0.000579
26154	0.313337	-0.185639	-9.736265	0.002001	0.001268	0.000885
26155	0.287699	-0.179853	-9.751288	0.001444	0.003708	0.000308
26156	0.297316	-0.168942	-9.723899	0.001847	0.003087	0.000410
26157	0.302381	-0.161753	-9.728371	0.000697	0.002739	-0.001403
26158	0.294220	-0.182038	-9.727728	0.001598	0.001890	0.000783
26159	0.303392	-0.167317	-9.736707	0.000546	0.001936	0.000951
26160	0.299456	-0.180042	-9.740567	0.001148	0.001659	0.000397
26161	0.291371	-0.171504	-9.734395	0.000641	0.003641	0.001517
26162	0.292126	-0.181926	-9.751118	0.002449	0.002811	-0.000144
26163	0.301571	-0.162443	-9.751707	0.001846	0.003088	0.000409
26164	0.306678	-0.168964	-9.736575	0.000697	0.002739	-0.001403
26165	0.298627	-0.170455	-9.747157	0.001043	0.003020	0.001619
26166	0.299092	-0.160842	-9.730384	0.002402	0.000647	0.000988
26167	0.290663	-0.186236	-9.738123	0.000545	0.001936	0.000951
26168	0.308760	-0.175225	-9.744863	0.001451	0.003266	-0.004312
26169	0.296356	-0.174211	-9.734197	0.000954	0.002182	-0.004980
26170	0.301334	-0.161875	-9.730298	0.000801	0.002691	-0.004041
26171	0.306286	-0.169847	-9.759895	0.002705	0.002255	-0.003721
26172	0.302556	-0.172716	-9.746996	0.000801	0.002691	-0.004042
26173	0.285522	-0.155409	-9.734702	0.001100	0.000807	0.000114
26174	0.299020	-0.166972	-9.762070	0.000946	0.002627	-0.000363
26175	0.290890	-0.182203	-9.753052	0.001099	0.002119	-0.001302
26176	0.295812	-0.174996	-9.757528	0.001508	0.002365	-0.007234
26177	0.283417	-0.179010	-9.755242	0.001586	0.002760	-0.026846
26178	0.301619	-0.157827	-9.745227	0.001029	0.002583	-0.024600
26179	0.298049	-0.165392	-9.740704	0.000395	0.003315	-0.004148
26180	0.298706	-0.175544	-9.757430	0.000543	0.001937	0.000951
26181	0.303578	-0.181976	-9.742298	0.001346	0.002007	-0.000260
26182	0.291363	-0.167098	-9.751249	-0.000613	0.005525	-0.005115
26183	0.305528	-0.171950	-9.725490	0.000653	0.002761	-0.007728
26184	0.306275	-0.186879	-9.750590	-0.001139	0.002708	-0.015311
26185	0.293864	-0.171647	-9.759556	-0.000128	0.002687	-0.021805
26186	0.294635	-0.166574	-9.751160	0.000914	0.003086	-0.017353
26187	0.313195	-0.249235	-9.746456	-0.007516	0.001710	-0.040841
26188	0.299967	-0.212382	-9.738962	-0.087571	-0.003688	-0.041527
26189	0.302052	-0.089399	-9.718736	-0.109036	-0.011321	-0.028468
26190	0.295800	-0.099274	-9.756546	-0.075013	-0.006283	-0.020924
26191	0.304305	-0.180155	-9.743823	-0.069160	-0.003029	-0.061874
26192	0.242470	-0.193804	-9.811556	-0.142803	0.026745	-0.126383
26193	0.343904	-0.060763	-9.702679	-0.243409	0.022173	-0.108845
26194	0.353799	0.070507	-9.684353	-0.287012	-0.040612	-0.079604
26195	0.289474	0.251759	-9.718560	-0.213089	-0.074482	-0.065706
26196	0.197884	0.264898	-9.802852	-0.130883	-0.032469	-0.023262
26197	0.244658	0.236035	-9.755499	-0.149519	0.011083	0.035152
26198	0.299421	0.289405	-9.718215	-0.162820	0.005311	0.127012
26199	0.247432	0.218333	-9.746024	-0.172964	-0.021808	0.140454
26200	0.214521	0.192613	-9.782297	-0.237528	0.026845	0.109403
26201	0.292780	0.320656	-9.725859	-0.289761	0.041616	0.053380
26202	0.317793	0.445249	-9.695711	-0.296703	0.020675	0.023287
26203	0.268904	0.546858	-9.739852	-0.302580	0.007012	0.037224
26204	0.297795	0.671885	-9.696699	-0.286686	0.011332	0.062428
26205	0.292280	0.670386	-9.691188	-0.265368	0.002281	0.090056
26206	0.305534	0.684398	-9.696011	-0.251015	-0.010069	0.025717
26207	0.293007	0.800405	-9.685818	-0.245770	-0.023302	0.010847
26208	0.318587	0.864303	-9.637933	-0.277908	-0.059047	0.041973
26209	0.270289	0.925546	-9.660383	-0.302073	-0.097167	0.063310
26210	0.205722	0.984033	-9.725387	-0.250229	-0.076693	-0.021451
26211	0.179329	1.083936	-9.717770	-0.209760	-0.026575	-0.038946
26212	0.184010	1.140496	-9.692231	-0.224019	-0.003757	0.001928
26213	0.193356	1.066412	-9.712003	-0.281003	0.005255	0.043359
26214	0.233598	1.163881	-9.636845	-0.372176	-0.006507	0.000739
26215	0.242920	1.351864	-9.624438	-0.360611	-0.021316	-0.031971
26216	0.242622	1.364943	-9.604701	-0.345770	-0.040681	-0.065736
26217	0.200764	1.410021	-9.625935	-0.411422	-0.066520	-0.081521
26218	0.184784	1.512132	-9.604393	-0.536279	-0.076467	-0.097257
26219	0.129766	1.752715	-9.549342	-0.555635	-0.084870	-0.137381
26220	0.107492	1.969404	-9.515928	-0.492652	-0.108052	-0.171910
26221	-0.025691	2.254480	-9.593727	-0.381657	-0.033969	-0.099895
26222	0.087887	2.065926	-9.504885	-0.368146	-0.026804	-0.010548
26223	0.075668	2.203135	-9.466024	-0.434595	-0.041334	0.034416
26224	0.042424	2.239621	-9.490725	-0.468443	-0.042073	0.058990
26225	0.013352	2.336815	-9.488390	-0.494324	0.003887	0.007444
26226	0.068539	2.471913	-9.383002	-0.502157	0.021693	-0.054338
26227	0.072190	2.598765	-9.353293	-0.507228	0.013068	-0.090385
26228	0.054387	2.657006	-9.309433	-0.594326	-0.013239	-0.099350
26229	0.044675	2.908487	-9.248802	-0.688720	-0.037679	-0.078011
26230	0.012373	3.043441	-9.260256	-0.716936	-0.033637	-0.085460
26231	-0.011597	3.216885	-9.185578	-0.719493	-0.020764	-0.146297
26232	-0.025936	3.503572	-9.098867	-0.697891	-0.001626	-0.156600
26233	-0.030340	3.652928	-9.037763	-0.655853	-0.008811	-0.114440
26234	-0.033452	3.730642	-8.962928	-0.724955	-0.018094	-0.051746
26235	-0.059302	3.993224	-8.897753	-0.690670	-0.023381	-0.027761
26236	-0.059981	4.081437	-8.844335	-0.631323	-0.018150	-0.024273
26237	-0.087679	4.215683	-8.780259	-0.596192	-0.013165	-0.022661
26238	-0.144438	4.245643	-8.815734	-0.606309	0.025006	-0.052346
26239	0.001347	4.398584	-8.582114	-0.688383	0.064226	-0.055690
26240	-0.015821	4.606864	-8.511169	-0.783081	-0.021053	0.023270
26241	-0.075069	4.907871	-8.453726	-0.726546	-0.031599	-0.000118
26242	-0.076889	4.940988	-8.379280	-0.625864	-0.032812	0.000384
26243	-0.095164	4.934429	-8.318143	-0.696994	-0.033600	-0.005472
26244	-0.082745	5.295858	-8.182546	-0.731342	-0.030814	-0.026615
26245	-0.102086	5.463778	-8.117397	-0.652423	-0.038574	-0.001376
26246	-0.097683	5.448369	-8.019139	-0.628976	-0.041941	0.017058
26247	-0.094196	5.556830	-7.918349	-0.724319	-0.061005	0.035673
26248	-0.150960	5.835995	-7.848140	-0.759194	-0.068837	0.055766
26249	-0.148063	6.011315	-7.708619	-0.670573	-0.049560	0.036555
26250	-0.146983	6.097957	-7.617431	-0.592221	-0.047853	0.023485
26251	-0.166175	6.201272	-7.562402	-0.504164	-0.023247	-0.008967
26252	-0.135916	6.180698	-7.462781	-0.520508	-0.018656	-0.017545
26253	-0.163562	6.424815	-7.364454	-0.525774	-0.027762	-0.029113
26254	-0.157751	6.433945	-7.289397	-0.477880	-0.041407	-0.030274
26255	-0.217640	6.953620	-7.202235	-0.186217	-0.079196	-0.036125
26256	-0.260926	6.521930	-7.321374	-0.062147	-0.139338	-0.007097
26257	-0.232162	6.382238	-7.336693	0.000096	-0.057273	0.070740
26258	-0.165411	6.493079	-7.276450	0.003329	-0.009343	0.013607
26259	-0.222528	6.700235	-7.083135	0.003267	-0.013625	0.018814
26260	-0.257515	6.572463	-7.188120	0.002902	-0.002810	0.009655
26261	-0.233172	6.499260	-7.263954	0.002085	0.000487	0.003776
26262	-0.196059	6.446585	-7.306018	0.001167	0.003784	-0.000039
26263	-0.207150	6.562999	-7.202261	-0.000244	0.016670	-0.015223
26264	-0.227373	6.522840	-7.229918	0.002901	0.004521	-0.002975
26265	-0.236327	6.561207	-7.182259	0.002031	0.006683	-0.003295
26266	-0.241374	6.563756	-7.241665	0.001614	0.015921	-0.011601
26267	-0.239964	6.575034	-7.189825	0.001573	0.017047	-0.015103
26268	-0.233851	6.542811	-7.206669	-0.000136	0.004273	-0.001085
26269	-0.223872	6.521573	-7.231170	-0.000841	-0.001671	0.007533
26270	-0.214705	6.537124	-7.218338	0.001223	0.005353	-0.000898
26271	-0.218761	6.531965	-7.239404	0.002009	0.000834	0.000710
26272	-0.231754	6.546202	-7.226338	0.001340	0.003437	0.000965
26273	-0.213800	6.542133	-7.247833	0.001312	0.002651	0.001393
26274	-0.211684	6.516714	-7.233233	0.000460	0.002455	0.000295
26275	-0.238092	6.530193	-7.239674	0.000184	0.002799	0.001353
26276	-0.218966	6.518452	-7.222807	0.001312	0.002651	0.001393
26277	-0.232210	6.536775	-7.228714	-0.000064	0.003928	0.001983
26278	-0.217744	6.520124	-7.232664	0.002010	0.000834	0.000710
26279	-0.226536	6.527644	-7.250963	0.000616	0.004467	0.002076
26280	-0.233841	6.527490	-7.230923	0.001008	0.002208	0.002881
26281	-0.211333	6.528334	-7.231573	0.001111	0.002209	0.000817
26282	-0.229133	6.539794	-7.248746	0.000662	0.002896	0.000870
26283	-0.219323	6.533932	-7.240305	-0.000017	0.002356	0.000776
26284	-0.218673	6.533763	-7.240477	0.001964	0.002404	0.001915
26285	-0.231395	6.530530	-7.250914	0.001215	0.002208	-0.001247
26286	-0.230334	6.526313	-7.232098	0.002470	0.003287	0.001003
26287	-0.203843	6.535657	-7.231312	0.002413	0.001716	0.001862
26288	-0.224888	6.534344	-7.231143	0.000893	0.004122	0.001016
26289	-0.215174	6.530284	-7.232395	0.001313	0.002649	0.001392
26290	-0.223626	6.535858	-7.241142	0.001342	0.003435	0.000963
26291	-0.235174	6.526854	-7.222850	0.001342	0.003434	0.000962
26292	-0.225477	6.522741	-7.224149	0.001486	0.002305	0.002397
26293	-0.230108	6.537151	-7.231165	0.000260	0.002012	-0.000283
26294	-0.211985	6.531197	-7.242991	0.001515	0.003090	0.001967
26295	-0.223773	6.524122	-7.234280	0.001343	0.003434	0.000962
26296	-0.228091	6.536488	-7.231828	0.001561	0.001520	0.000763
26297	-0.219191	6.536342	-7.252165	0.000185	0.002797	0.001351
