// General information: 
//  MT Manager version: 2019.2.0 
//  XDA version: 2019.2.0 build 3853 rev 94535 built on 2019-09-09
// Device information: 
//  DeviceId: 00B44109
//  ProductCode: MTW2-3A7G6
//  Firmware Version: 4.3.5
//  Hardware Version: 1.1.0
// Device settings: 
//  Filter Profile: human(46.1)
//  Option Flags: Orientation Smoother Disabled, AHS Disabled, ICC Disabled
// Coordinate system: ENU
PacketCounter	Acc_X	        Acc_Y	        Acc_Z	        Gyr_X	        Gyr_Y	        Gyr_Z	        Mat[1][1]	Mat[2][1]	Mat[3][1]	Mat[1][2]	Mat[2][2]	Mat[3][2]	Mat[1][3]	Mat[2][3]	Mat[3][3]
04397	        0.213388	0.076707	9.842191	0.002382	0.001278	-0.002226	0.999999	0.000672	-0.000859	-0.000672	1.000000	0.000160	0.000859	-0.000159	1.000000
04398	0.210195	0.121006	9.810362	-0.001354	0.000900	-0.001667	0.999999	0.000675	-0.000851	-0.000674	1.000000	0.000135	0.000851	-0.000134	1.000000
04399	0.222568	0.096585	9.831299	0.002604	-0.000117	-0.002940	0.999999	0.000669	-0.000833	-0.000669	1.000000	0.000147	0.000833	-0.000146	1.000000
04400	0.216002	0.107658	9.790961	-0.000099	0.003516	0.000129	0.999999	0.000690	-0.000851	-0.000690	1.000000	0.000134	0.000851	-0.000133	1.000000
04401	0.194384	0.114930	9.840668	-0.001011	0.001626	-0.002965	0.999999	0.000683	-0.000849	-0.000682	1.000000	0.000111	0.000849	-0.000111	1.000000
04402	0.243800	0.091801	9.841355	-0.001697	0.000174	-0.000369	0.999999	0.000698	-0.000833	-0.000698	1.000000	0.000083	0.000833	-0.000082	1.000000
04403	0.221878	0.096574	9.831315	0.002504	0.003400	-0.002811	0.999999	0.000697	-0.000850	-0.000697	1.000000	0.000098	0.000850	-0.000097	1.000000
04404	0.221705	0.096748	9.831317	0.000907	0.000057	-0.003309	0.999999	0.000684	-0.000833	-0.000684	1.000000	0.000096	0.000833	-0.000095	1.000000
04405	0.212264	0.077094	9.842212	0.001029	0.002179	-0.003893	0.999999	0.000656	-0.000843	-0.000656	1.000000	0.000096	0.000843	-0.000095	1.000000
04406	0.221351	0.097014	9.831322	0.002161	0.002674	-0.001513	0.999999	0.000662	-0.000853	-0.000662	1.000000	0.000106	0.000853	-0.000105	1.000000
04407	0.193390	0.115508	9.840680	0.002382	0.001279	-0.002226	0.999999	0.000659	-0.000851	-0.000659	1.000000	0.000118	0.000851	-0.000117	1.000000
04408	0.221078	0.097327	9.831325	-0.000790	0.000231	-0.003678	0.999999	0.000642	-0.000836	-0.000642	1.000000	0.000099	0.000836	-0.000098	1.000000
04409	0.208583	0.121894	9.810386	0.002382	0.001279	-0.002226	0.999999	0.000644	-0.000833	-0.000643	1.000000	0.000111	0.000833	-0.000110	1.000000
04410	0.220719	0.097461	9.831332	-0.001454	0.004416	-0.001539	0.999999	0.000648	-0.000860	-0.000648	1.000000	0.000085	0.000860	-0.000084	1.000000
04411	0.214063	0.108269	9.790997	-0.001354	0.000900	-0.001667	0.999999	0.000655	-0.000851	-0.000655	1.000000	0.000061	0.000851	-0.000061	1.000000
04412	0.210899	0.077463	9.842238	-0.000890	0.003747	-0.003549	0.999999	0.000640	-0.000872	-0.000640	1.000000	0.000041	0.000872	-0.000041	1.000000
04413	0.235290	0.103540	9.801057	0.002725	0.002005	-0.003524	0.999999	0.000624	-0.000878	-0.000624	1.000000	0.000061	0.000878	-0.000060	1.000000
04414	0.198050	0.102115	9.821304	-0.001354	0.000900	-0.001667	0.999999	0.000627	-0.000870	-0.000627	1.000000	0.000036	0.000870	-0.000035	1.000000
04415	0.219571	0.097372	9.831359	0.000807	0.003574	-0.003180	0.999999	0.000617	-0.000889	-0.000617	1.000000	0.000034	0.000889	-0.000034	1.000000
04416	0.225426	0.084007	9.811960	0.002604	-0.000116	-0.002939	0.999999	0.000608	-0.000871	-0.000608	1.000000	0.000049	0.000871	-0.000049	1.000000
04417	0.222480	0.130907	9.839873	-0.001454	0.004416	-0.001539	0.999999	0.000614	-0.000898	-0.000614	1.000000	0.000023	0.000898	-0.000022	1.000000
04418	0.225005	0.084081	9.811969	0.001697	-0.000173	0.000369	0.999999	0.000638	-0.000879	-0.000638	1.000000	0.000028	0.000879	-0.000027	1.000000
04419	0.197237	0.102471	9.821317	0.000907	0.000058	-0.003309	0.999999	0.000621	-0.000863	-0.000621	1.000000	0.000023	0.000863	-0.000023	1.000000
04420	0.215617	0.064620	9.822861	0.002382	0.001279	-0.002226	0.999999	0.000619	-0.000859	-0.000619	1.000000	0.000036	0.000859	-0.000035	1.000000
04421	0.197177	0.102900	9.821314	0.002825	-0.001511	-0.003652	0.999999	0.000600	-0.000829	-0.000600	1.000000	0.000050	0.000829	-0.000050	1.000000
04422	0.218920	0.098361	9.831363	0.000685	0.001453	-0.002596	0.999999	0.000595	-0.000827	-0.000595	1.000000	0.000046	0.000827	-0.000045	1.000000
04423	0.234119	0.104572	9.801074	-0.001011	0.001626	-0.002965	0.999999	0.000588	-0.000826	-0.000588	1.000000	0.000024	0.000826	-0.000024	1.000000
04424	0.193615	0.069739	9.812812	0.000343	0.000726	-0.001298	0.999999	0.000595	-0.000816	-0.000595	1.000000	0.000016	0.000816	-0.000016	1.000000
04425	0.212515	0.112001	9.850770	0.002382	0.001279	-0.002226	0.999999	0.000593	-0.000814	-0.000593	1.000000	0.000032	0.000814	-0.000031	1.000000
04426	0.208944	0.078750	9.842270	-0.001455	0.004416	-0.001539	0.999999	0.000597	-0.000841	-0.000597	1.000000	0.000005	0.000841	-0.000005	1.000000
04427	0.217952	0.098530	9.831383	0.001817	0.001948	-0.000215	0.999999	0.000615	-0.000843	-0.000615	1.000000	0.000012	0.000843	-0.000011	1.000000
04428	0.248856	0.113786	9.830545	0.002382	0.001279	-0.002226	0.999999	0.000614	-0.000839	-0.000614	1.000000	0.000024	0.000839	-0.000024	1.000000
04429	0.201889	0.090140	9.801934	0.002160	0.002674	-0.001513	0.999999	0.000625	-0.000847	-0.000625	1.000000	0.000036	0.000847	-0.000035	1.000000
04430	0.226721	0.118955	9.820495	0.002382	0.001279	-0.002226	0.999999	0.000623	-0.000843	-0.000623	1.000000	0.000048	0.000843	-0.000048	1.000000
04431	0.211227	0.112891	9.850787	0.000685	0.001453	-0.002596	0.999999	0.000617	-0.000841	-0.000617	1.000000	0.000043	0.000841	-0.000042	1.000000
04432	0.223231	0.085977	9.811993	0.002604	-0.000116	-0.002939	0.999999	0.000608	-0.000823	-0.000608	1.000000	0.000058	0.000823	-0.000057	1.000000
04433	0.210944	0.113120	9.850791	-0.001455	0.004416	-0.001539	0.999999	0.000613	-0.000852	-0.000613	1.000000	0.000033	0.000853	-0.000033	1.000000
04434	0.216716	0.099795	9.831398	0.005775	0.000933	-0.001487	0.999999	0.000619	-0.000845	-0.000619	1.000000	0.000080	0.000845	-0.000079	1.000000
04435	0.216665	0.100128	9.831395	0.000907	0.000058	-0.003308	0.999999	0.000601	-0.000832	-0.000601	1.000000	0.000076	0.000832	-0.000076	1.000000
04436	0.210146	0.111212	9.791048	0.002160	0.002675	-0.001513	0.999999	0.000606	-0.000842	-0.000606	1.000000	0.000087	0.000842	-0.000086	1.000000
04437	0.232054	0.109161	9.860854	-0.001354	0.000899	-0.001667	0.999999	0.000615	-0.000834	-0.000615	1.000000	0.000065	0.000834	-0.000064	1.000000
04438	0.209879	0.111125	9.791055	-0.001354	0.000899	-0.001667	0.999999	0.000618	-0.000826	-0.000618	1.000000	0.000040	0.000826	-0.000039	1.000000
04439	0.237794	0.095503	9.841467	0.001595	0.003343	0.000498	0.999999	0.000649	-0.000840	-0.000649	1.000000	0.000045	0.000840	-0.000045	1.000000
04440	0.215779	0.100344	9.831413	0.001028	0.002179	-0.003893	0.999999	0.000630	-0.000845	-0.000630	1.000000	0.000044	0.000845	-0.000044	1.000000
04441	0.209394	0.111318	9.791063	-0.000120	-0.002121	0.000585	0.999999	0.000654	-0.000808	-0.000654	1.000000	0.000030	0.000808	-0.000029	1.000000
04442	0.224908	0.120113	9.820522	-0.000771	0.005869	-0.004135	0.999999	0.000633	-0.000850	-0.000633	1.000000	0.000011	0.000850	-0.000010	1.000000
04443	0.215202	0.100408	9.831425	0.001817	0.001948	-0.000215	0.999999	0.000659	-0.000852	-0.000659	1.000000	0.000020	0.000852	-0.000019	1.000000
04444	0.239552	0.049066	9.813593	0.002382	0.001280	-0.002226	0.999999	0.000658	-0.000848	-0.000658	1.000000	0.000032	0.000848	-0.000032	1.000000
04445	0.202587	0.125233	9.810469	0.000565	-0.000669	-0.002011	0.999999	0.000658	-0.000826	-0.000658	1.000000	0.000027	0.000827	-0.000026	1.000000
04446	0.205651	0.081071	9.842320	0.000685	0.001453	-0.002596	0.999999	0.000652	-0.000824	-0.000652	1.000000	0.000023	0.000824	-0.000022	1.000000
04447	0.214764	0.100977	9.831428	0.002159	0.002675	-0.001513	0.999999	0.000655	-0.000836	-0.000655	1.000000	0.000031	0.000836	-0.000030	1.000000
04448	0.183328	0.086058	9.832267	0.000583	0.004969	-0.002468	0.999999	0.000651	-0.000869	-0.000651	1.000000	0.000026	0.000869	-0.000025	1.000000
04449	0.214059	0.101101	9.831443	-0.001011	0.001626	-0.002965	0.999999	0.000646	-0.000870	-0.000646	1.000000	0.000003	0.000870	-0.000003	1.000000
04450	0.220051	0.087761	9.812049	0.005089	-0.000519	0.001110	0.999999	0.000678	-0.000847	-0.000678	1.000000	0.000042	0.000847	-0.000042	1.000000
04451	0.201526	0.125969	9.810482	-0.001011	0.001626	-0.002966	0.999999	0.000666	-0.000850	-0.000666	1.000000	0.000021	0.000850	-0.000020	1.000000
04452	0.229419	0.110325	9.860902	0.000463	0.002848	-0.001883	0.999999	0.000668	-0.000861	-0.000668	1.000000	0.000014	0.000861	-0.000013	1.000000
04453	0.213558	0.101610	9.831448	0.002039	0.000554	-0.000928	0.999999	0.000679	-0.000852	-0.000679	1.000000	0.000024	0.000852	-0.000023	1.000000
04454	0.203816	0.079362	9.782601	0.000685	0.001453	-0.002596	0.999999	0.000673	-0.000849	-0.000673	1.000000	0.000019	0.000849	-0.000019	1.000000
04455	0.238324	0.130377	9.850014	-0.000222	0.001395	0.000713	0.999999	0.000707	-0.000846	-0.000707	1.000000	0.000007	0.000846	-0.000006	1.000000
04456	0.213235	0.101726	9.831454	-0.000789	0.000230	-0.003678	0.999999	0.000689	-0.000832	-0.000690	1.000000	-0.000012	0.000832	0.000013	1.000000
04457	0.228525	0.108030	9.801168	0.002381	0.001280	-0.002226	0.999999	0.000693	-0.000830	-0.000693	1.000000	0.000002	0.000830	-0.000001	1.000000
04458	0.181997	0.086932	9.832284	0.001250	0.000784	-0.004606	0.999999	0.000667	-0.000821	-0.000667	1.000000	0.000004	0.000821	-0.000003	1.000000
04459	0.219096	0.088549	9.812063	0.000565	-0.000669	-0.002011	0.999999	0.000670	-0.000798	-0.000670	1.000000	-0.000003	0.000798	0.000004	1.000000
04460	0.234771	0.097360	9.841521	-0.001354	0.000899	-0.001668	0.999999	0.000673	-0.000790	-0.000673	1.000000	-0.000028	0.000790	0.000029	1.000000
04461	0.219042	0.088581	9.812064	0.002604	-0.000115	-0.002938	0.999999	0.000669	-0.000774	-0.000669	1.000000	-0.000010	0.000774	0.000010	1.000000
04462	0.222271	0.122036	9.820559	0.000342	0.000726	-0.001298	0.999999	0.000676	-0.000765	-0.000676	1.000000	-0.000018	0.000765	0.000019	1.000000
04463	0.191180	0.106987	9.821389	0.000000	0.000000	-0.000000	0.999999	0.000700	-0.000749	-0.000701	1.000000	-0.000028	0.000749	0.000029	1.000000
04464	0.234649	0.097561	9.841522	-0.000789	0.000230	-0.003678	0.999999	0.000683	-0.000734	-0.000683	1.000000	-0.000047	0.000734	0.000048	1.000000
04465	0.227966	0.108627	9.801175	0.003752	0.006019	-0.001015	0.999999	0.000707	-0.000777	-0.000707	1.000000	-0.000018	0.000777	0.000019	1.000000
04466	0.199884	0.127133	9.810500	0.001696	-0.000173	0.000370	0.999999	0.000731	-0.000758	-0.000731	1.000000	-0.000013	0.000758	0.000014	1.000000
04467	0.234014	0.097999	9.841533	-0.001354	0.000899	-0.001668	0.999999	0.000739	-0.000749	-0.000739	1.000000	-0.000040	0.000749	0.000040	1.000000
04468	0.206110	0.116292	9.850856	0.002381	0.001280	-0.002226	0.999999	0.000737	-0.000745	-0.000738	1.000000	-0.000027	0.000745	0.000028	1.000000
04469	0.218093	0.089443	9.812078	0.002381	0.001280	-0.002226	0.999999	0.000740	-0.000740	-0.000740	1.000000	-0.000018	0.000740	0.000019	1.000000
04470	0.208680	0.069818	9.822975	0.000342	0.000726	-0.001298	0.999999	0.000747	-0.000730	-0.000747	1.000000	-0.000026	0.000730	0.000027	1.000000
04471	0.208935	0.150072	9.859352	0.001593	0.003344	0.000498	0.999999	0.000772	-0.000749	-0.000772	1.000000	-0.000019	0.000749	0.000019	1.000000
04472	0.202246	0.083500	9.842370	-0.000789	0.000230	-0.003678	0.999999	0.000755	-0.000735	-0.000755	1.000000	-0.000038	0.000735	0.000038	1.000000
04473	0.220811	0.123277	9.820576	0.005774	0.000935	-0.001485	0.999999	0.000769	-0.000726	-0.000769	1.000000	0.000011	0.000726	-0.000010	1.000000
04474	0.251661	0.138626	9.819751	-0.000327	0.003078	-0.005562	0.999999	0.000733	-0.000740	-0.000733	1.000000	-0.000003	0.000740	0.000003	1.000000
04475	0.207804	0.070643	9.822988	0.003512	0.001777	0.000155	0.999999	0.000753	-0.000744	-0.000753	1.000000	0.000019	0.000744	-0.000019	1.000000
04476	0.226304	0.110360	9.801194	0.000342	0.000726	-0.001298	0.999999	0.000760	-0.000734	-0.000760	1.000000	0.000011	0.000734	-0.000010	1.000000
04477	0.220098	0.123978	9.820583	0.001027	0.002179	-0.003894	0.999999	0.000740	-0.000741	-0.000740	1.000000	0.000011	0.000741	-0.000010	1.000000
04478	0.216598	0.090749	9.812099	0.000462	0.002848	-0.001883	0.999999	0.000741	-0.000753	-0.000741	1.000000	0.000004	0.000753	-0.000003	1.000000
04479	0.216481	0.090721	9.812102	-0.001131	-0.000496	-0.002381	0.999999	0.000737	-0.000734	-0.000737	1.000000	-0.000018	0.000734	0.000019	1.000000
04480	0.210446	0.104344	9.831487	0.002604	-0.000115	-0.002938	0.999999	0.000728	-0.000715	-0.000728	1.000000	-0.000004	0.000715	0.000004	1.000000
04481	0.204227	0.118229	9.850872	0.004196	0.003230	-0.002441	0.999999	0.000722	-0.000735	-0.000722	1.000000	0.000028	0.000735	-0.000027	1.000000
04482	0.222569	0.080526	9.852459	0.001696	-0.000172	0.000370	0.999999	0.000746	-0.000716	-0.000746	1.000000	0.000033	0.000716	-0.000032	1.000000
04483	0.197577	0.129532	9.810516	0.000461	0.002848	-0.001883	0.999999	0.000756	-0.000728	-0.000756	1.000000	0.000029	0.000728	-0.000028	1.000000
04484	0.209797	0.105096	9.831492	-0.000223	0.001395	0.000712	0.999999	0.000783	-0.000725	-0.000783	1.000000	0.000014	0.000725	-0.000014	1.000000
04485	0.209588	0.105109	9.831497	0.000461	0.002848	-0.001883	0.999999	0.000784	-0.000738	-0.000784	1.000000	0.000008	0.000738	-0.000008	1.000000
04486	0.215476	0.091606	9.812115	0.000342	0.000726	-0.001298	0.999999	0.000791	-0.000728	-0.000791	1.000000	0.000000	0.000728	0.000000	1.000000
04487	0.209233	0.105195	9.831503	0.000461	0.002848	-0.001883	0.999999	0.000795	-0.000741	-0.000795	1.000000	-0.000005	0.000741	0.000005	1.000000
04488	0.218406	0.125114	9.820607	0.002604	-0.000115	-0.002938	0.999999	0.000786	-0.000723	-0.000786	1.000000	0.000010	0.000723	-0.000010	1.000000
04489	0.193620	0.099270	9.861788	0.000119	0.002122	-0.000585	0.999999	0.000796	-0.000731	-0.000796	1.000000	0.000001	0.000731	-0.000000	1.000000
04490	0.214854	0.091955	9.812126	0.000119	0.002122	-0.000585	0.999999	0.000810	-0.000735	-0.000810	1.000000	-0.000009	0.000735	0.000010	1.000000
04491	0.202514	0.119191	9.850896	0.002723	0.002007	-0.003523	0.999999	0.000796	-0.000741	-0.000796	1.000000	0.000008	0.000741	-0.000007	1.000000
04492	0.230156	0.101220	9.841591	0.002381	0.001281	-0.002225	0.999999	0.000794	-0.000737	-0.000794	1.000000	0.000020	0.000737	-0.000020	1.000000
04493	0.214317	0.092481	9.812133	0.000119	0.002122	-0.000585	0.999999	0.000807	-0.000743	-0.000807	1.000000	0.000008	0.000743	-0.000008	1.000000
04494	0.214064	0.092429	9.812139	-0.001235	0.003020	-0.002254	0.999999	0.000804	-0.000756	-0.000804	1.000000	-0.000016	0.000756	0.000016	1.000000
04495	0.213791	0.092561	9.812143	0.003854	0.002504	-0.001142	0.999999	0.000820	-0.000764	-0.000820	1.000000	0.000012	0.000764	-0.000011	1.000000
04496	0.201242	0.117326	9.791164	0.002604	-0.000114	-0.002938	0.999999	0.000811	-0.000745	-0.000811	1.000000	0.000027	0.000745	-0.000026	1.000000
04497	0.238587	0.121765	9.830704	0.002380	0.001281	-0.002225	0.999999	0.000805	-0.000746	-0.000805	1.000000	0.000039	0.000746	-0.000039	1.000000
04498	0.213540	0.093169	9.812143	-0.001696	0.000172	-0.000370	0.999999	0.000821	-0.000730	-0.000821	1.000000	0.000010	0.000730	-0.000010	1.000000
04499	0.207350	0.106688	9.831527	0.001026	0.002179	-0.003894	0.999999	0.000799	-0.000739	-0.000799	1.000000	0.000011	0.000739	-0.000010	1.000000
04500	0.213250	0.093314	9.812148	0.002380	0.001281	-0.002225	0.999999	0.000797	-0.000735	-0.000797	1.000000	0.000023	0.000735	-0.000022	1.000000
04501	0.238093	0.122188	9.830711	0.002380	0.001281	-0.002225	0.999999	0.000796	-0.000731	-0.000796	1.000000	0.000036	0.000731	-0.000036	1.000000
04502	0.212926	0.093779	9.812151	0.002157	0.002676	-0.001513	0.999999	0.000802	-0.000741	-0.000802	1.000000	0.000046	0.000741	-0.000046	1.000000
04503	0.228444	0.102725	9.841615	-0.000789	0.000229	-0.003679	0.999999	0.000789	-0.000726	-0.000789	1.000000	0.000028	0.000726	-0.000027	1.000000
04504	0.221959	0.113854	9.801253	0.005549	0.002333	-0.000772	0.999999	0.000803	-0.000732	-0.000803	1.000000	0.000072	0.000733	-0.000071	1.000000
04505	0.218647	0.080844	9.792773	0.000565	-0.000669	-0.002010	0.999999	0.000801	-0.000711	-0.000801	1.000000	0.000064	0.000711	-0.000063	1.000000
04506	0.222011	0.116890	9.860996	0.000803	0.003574	-0.003182	0.999999	0.000790	-0.000730	-0.000790	1.000000	0.000061	0.000730	-0.000060	1.000000
04507	0.212281	0.094538	9.812157	0.000565	-0.000669	-0.002010	0.999999	0.000794	-0.000708	-0.000794	1.000000	0.000057	0.000708	-0.000056	1.000000
04508	0.206208	0.108218	9.831535	0.002038	0.000555	-0.000927	0.999999	0.000805	-0.000696	-0.000805	1.000000	0.000065	0.000696	-0.000065	1.000000
04509	0.224550	0.070358	9.833144	0.000461	0.002848	-0.001884	0.999999	0.000809	-0.000709	-0.000809	1.000000	0.000059	0.000709	-0.000058	1.000000
04510	0.205793	0.108375	9.831542	0.000119	0.002122	-0.000586	0.999999	0.000824	-0.000713	-0.000824	1.000000	0.000048	0.000713	-0.000048	1.000000
04511	0.224165	0.148018	9.809743	0.002157	0.002676	-0.001513	0.999999	0.000826	-0.000726	-0.000826	1.000000	0.000059	0.000726	-0.000058	1.000000
04512	0.205274	0.108538	9.831551	-0.001236	0.003020	-0.002254	0.999999	0.000823	-0.000739	-0.000823	1.000000	0.000035	0.000739	-0.000035	1.000000
04513	0.226661	0.103905	9.841644	0.001933	0.004072	-0.000801	0.999999	0.000838	-0.000765	-0.000837	1.000000	0.000041	0.000765	-0.000041	1.000000
04514	0.204682	0.108737	9.831561	0.001249	0.000784	-0.004606	0.999999	0.000812	-0.000756	-0.000812	1.000000	0.000043	0.000756	-0.000042	1.000000
04515	0.232379	0.090539	9.822274	-0.001012	0.001624	-0.002967	0.999999	0.000803	-0.000756	-0.000803	1.000000	0.000022	0.000756	-0.000021	1.000000
04516	0.204527	0.108906	9.831562	0.003958	-0.001012	-0.001269	0.999999	0.000811	-0.000729	-0.000811	1.000000	0.000050	0.000729	-0.000049	1.000000
04517	0.247918	0.099875	9.851737	0.002156	0.002677	-0.001513	0.999999	0.000816	-0.000740	-0.000816	1.000000	0.000062	0.000740	-0.000061	1.000000
04518	0.216270	0.082229	9.792814	0.000237	0.004243	-0.001172	0.999999	0.000825	-0.000765	-0.000825	1.000000	0.000052	0.000765	-0.000052	1.000000
04519	0.197735	0.122929	9.850947	0.000684	0.001453	-0.002596	0.999999	0.000820	-0.000764	-0.000820	1.000000	0.000048	0.000764	-0.000047	1.000000
04520	0.225334	0.104691	9.841666	-0.001236	0.003020	-0.002255	0.999999	0.000818	-0.000777	-0.000818	1.000000	0.000024	0.000777	-0.000023	1.000000
04521	0.225120	0.104752	9.841671	0.002380	0.001281	-0.002225	0.999999	0.000821	-0.000772	-0.000821	1.000000	0.000037	0.000772	-0.000036	1.000000
04522	0.225047	0.104789	9.841672	-0.001696	0.000171	-0.000371	0.999999	0.000837	-0.000757	-0.000837	1.000000	0.000008	0.000757	-0.000007	1.000000
04523	0.224619	0.102245	9.781933	0.004194	0.003232	-0.002440	0.999999	0.000834	-0.000773	-0.000834	1.000000	0.000038	0.000773	-0.000037	1.000000
04524	0.224681	0.105142	9.841676	0.000342	0.000726	-0.001298	0.999999	0.000841	-0.000763	-0.000841	1.000000	0.000030	0.000763	-0.000029	1.000000
04525	0.190334	0.134278	9.810595	0.000460	0.002848	-0.001884	0.999999	0.000849	-0.000773	-0.000849	1.000000	0.000025	0.000773	-0.000024	1.000000
04526	0.217905	0.116012	9.801319	-0.001578	0.002293	-0.000957	0.999999	0.000859	-0.000779	-0.000859	1.000000	-0.000003	0.000779	0.000003	1.000000
04527	0.245859	0.100359	9.851783	-0.000789	0.000229	-0.003679	0.999999	0.000743	-0.000809	-0.000743	1.000000	0.000126	0.000809	-0.000126	1.000000
04528	0.186730	0.103684	9.861875	0.005101	0.005125	0.000653	0.999999	0.000771	-0.000843	-0.000771	1.000000	0.000166	0.000843	-0.000165	1.000000
04529	0.251351	0.087229	9.832421	-0.001012	0.001624	-0.002967	0.999999	0.000760	-0.000846	-0.000760	1.000000	0.000142	0.000846	-0.000141	1.000000
04530	0.217150	0.116468	9.801330	0.003958	-0.001011	-0.001268	0.999999	0.000768	-0.000819	-0.000768	1.000000	0.000170	0.000819	-0.000169	1.000000
04531	0.207816	0.096851	9.812230	-0.001012	0.001624	-0.002967	0.999999	0.000759	-0.000820	-0.000759	1.000000	0.000148	0.000820	-0.000147	1.000000
04532	0.207626	0.096858	9.812234	0.001026	0.002179	-0.003894	0.999999	0.000740	-0.000825	-0.000740	1.000000	0.000147	0.000825	-0.000146	1.000000
04533	0.207453	0.097032	9.812236	0.002380	0.001282	-0.002225	0.999999	0.000740	-0.000822	-0.000740	1.000000	0.000163	0.000822	-0.000163	1.000000
04534	0.216796	0.119619	9.861080	0.000460	0.002848	-0.001884	0.999999	0.000742	-0.000833	-0.000742	1.000000	0.000156	0.000833	-0.000156	1.000000
04535	0.228702	0.092566	9.822341	0.000460	0.002848	-0.001884	0.999999	0.000741	-0.000849	-0.000741	1.000000	0.000152	0.000849	-0.000151	1.000000
04536	0.216035	0.117236	9.801346	0.004418	0.001837	-0.003152	0.999999	0.000730	-0.000851	-0.000730	1.000000	0.000185	0.000851	-0.000184	1.000000
04537	0.206562	0.097642	9.812249	-0.001013	0.001624	-0.002967	0.999999	0.000720	-0.000851	-0.000720	1.000000	0.000163	0.000851	-0.000163	1.000000
04538	0.200207	0.111189	9.831625	0.000801	0.003575	-0.003182	0.999999	0.000709	-0.000870	-0.000709	1.000000	0.000160	0.000870	-0.000160	1.000000
04539	0.237133	0.112894	9.811455	0.002038	0.000555	-0.000927	0.999999	0.000722	-0.000861	-0.000722	1.000000	0.000167	0.000861	-0.000166	1.000000
04540	0.196737	0.078134	9.823159	0.000342	0.000727	-0.001298	0.999999	0.000729	-0.000851	-0.000729	1.000000	0.000159	0.000851	-0.000158	1.000000
04541	0.221526	0.106870	9.841729	0.001025	0.002180	-0.003894	0.999999	0.000713	-0.000859	-0.000713	1.000000	0.000159	0.000859	-0.000158	1.000000
04542	0.199637	0.111514	9.831633	-0.001354	0.000898	-0.001669	0.999999	0.000716	-0.000851	-0.000715	1.000000	0.000134	0.000851	-0.000133	1.000000
04543	0.236688	0.113031	9.811464	0.000342	0.000727	-0.001298	0.999999	0.000725	-0.000842	-0.000725	1.000000	0.000126	0.000842	-0.000125	1.000000
04544	0.221241	0.106797	9.841737	-0.000788	0.000229	-0.003679	0.999999	0.000708	-0.000827	-0.000708	1.000000	0.000107	0.000827	-0.000106	1.000000
04545	0.230284	0.126514	9.830842	-0.000331	0.004913	0.000838	0.999999	0.000743	-0.000860	-0.000743	1.000000	0.000094	0.000860	-0.000094	1.000000
04546	0.195847	0.078092	9.823177	0.000566	-0.000669	-0.002010	0.999999	0.000742	-0.000836	-0.000742	1.000000	0.000089	0.000836	-0.000088	1.000000
04547	0.220716	0.107009	9.841746	0.004417	0.001838	-0.003151	0.999999	0.000734	-0.000839	-0.000734	1.000000	0.000121	0.000839	-0.000121	1.000000
04548	0.220575	0.107214	9.841747	-0.000447	0.000955	-0.004977	0.999999	0.000704	-0.000832	-0.000704	1.000000	0.000106	0.000832	-0.000106	1.000000
04549	0.214086	0.118071	9.801379	0.000117	0.002122	-0.000586	0.999999	0.000720	-0.000838	-0.000720	1.000000	0.000099	0.000838	-0.000098	1.000000
04550	0.248053	0.089147	9.832487	0.002721	0.002009	-0.003523	0.999999	0.000705	-0.000842	-0.000705	1.000000	0.000115	0.000842	-0.000115	1.000000
04551	0.226182	0.093953	9.822386	0.000342	0.000727	-0.001298	0.999999	0.000715	-0.000834	-0.000715	1.000000	0.000111	0.000834	-0.000110	1.000000
04552	0.198175	0.112278	9.831654	0.002155	0.002678	-0.001513	0.999999	0.000721	-0.000844	-0.000721	1.000000	0.000121	0.000844	-0.000120	1.000000
04553	0.225728	0.094176	9.822395	-0.000330	0.003077	-0.005563	0.999999	0.000681	-0.000860	-0.000681	1.000000	0.000106	0.000861	-0.000105	1.000000
04554	0.225600	0.094415	9.822395	0.005088	-0.000512	0.001114	0.999999	0.000713	-0.000838	-0.000713	1.000000	0.000145	0.000838	-0.000144	1.000000
04555	0.213165	0.118961	9.801388	-0.002485	0.000399	-0.004050	0.999999	0.000697	-0.000825	-0.000696	1.000000	0.000111	0.000825	-0.000111	1.000000
04556	0.203793	0.099276	9.812290	0.004075	0.001112	-0.001853	0.999999	0.000699	-0.000819	-0.000699	1.000000	0.000141	0.000819	-0.000140	1.000000
04557	0.234656	0.114657	9.811494	0.001025	0.002180	-0.003894	0.999999	0.000689	-0.000823	-0.000689	1.000000	0.000142	0.000823	-0.000141	1.000000
04558	0.188045	0.093405	9.842563	0.000683	0.001453	-0.002596	0.999999	0.000683	-0.000821	-0.000683	1.000000	0.000138	0.000821	-0.000137	1.000000
04559	0.225040	0.095003	9.822402	-0.000225	0.001395	0.000712	0.999999	0.000711	-0.000821	-0.000710	1.000000	0.000122	0.000821	-0.000122	1.000000
04560	0.203057	0.099726	9.812301	0.001708	0.003633	-0.006490	0.999999	0.000666	-0.000841	-0.000666	1.000000	0.000129	0.000841	-0.000129	1.000000
04561	0.218466	0.108696	9.841778	-0.000566	0.000669	0.002010	0.999999	0.000715	-0.000830	-0.000715	1.000000	0.000114	0.000830	-0.000113	1.000000
04562	0.224368	0.095157	9.822416	0.000800	0.003575	-0.003182	0.999999	0.000704	-0.000849	-0.000704	1.000000	0.000111	0.000849	-0.000110	1.000000
04563	0.233547	0.115030	9.811516	0.001132	-0.001338	-0.004019	0.999999	0.000690	-0.000819	-0.000690	1.000000	0.000109	0.000819	-0.000109	1.000000
04564	0.233574	0.115108	9.811514	0.000341	0.000727	-0.001298	0.999999	0.000697	-0.000809	-0.000697	1.000000	0.000101	0.000809	-0.000101	1.000000
04565	0.217992	0.108933	9.841786	0.000458	0.002849	-0.001884	0.999999	0.000707	-0.000820	-0.000707	1.000000	0.000095	0.000820	-0.000094	1.000000
04566	0.223796	0.095531	9.822426	0.002496	0.003405	-0.002811	0.999999	0.000699	-0.000837	-0.000699	1.000000	0.000108	0.000837	-0.000108	1.000000
04567	0.201965	0.103015	9.872063	0.000458	0.002849	-0.001884	0.999999	0.000704	-0.000851	-0.000704	1.000000	0.000103	0.000851	-0.000102	1.000000
04568	0.207709	0.086976	9.792959	0.003734	0.000386	-0.000555	0.999999	0.000719	-0.000838	-0.000719	1.000000	0.000128	0.000838	-0.000128	1.000000
04569	0.195281	0.114308	9.831689	0.000800	0.003575	-0.003182	0.999999	0.000707	-0.000857	-0.000707	1.000000	0.000123	0.000857	-0.000123	1.000000
04570	0.238601	0.105105	9.851912	0.000566	-0.000669	-0.002010	0.999999	0.000707	-0.000833	-0.000707	1.000000	0.000118	0.000833	-0.000117	1.000000
04571	0.222953	0.096339	9.822437	0.002379	0.001283	-0.002224	0.999999	0.000707	-0.000827	-0.000707	1.000000	0.000129	0.000827	-0.000128	1.000000
04572	0.194934	0.114654	9.831692	0.000117	0.002122	-0.000586	0.999999	0.000721	-0.000831	-0.000721	1.000000	0.000119	0.000831	-0.000118	1.000000
04573	0.194793	0.114678	9.831694	0.000341	0.000727	-0.001298	0.999999	0.000729	-0.000820	-0.000729	1.000000	0.000112	0.000820	-0.000111	1.000000
04574	0.222543	0.096627	9.822444	0.002379	0.001283	-0.002224	0.999999	0.000728	-0.000816	-0.000728	1.000000	0.000125	0.000816	-0.000124	1.000000
04575	0.216232	0.110359	9.841809	0.001246	0.002620	0.001795	0.999999	0.000765	-0.000826	-0.000765	1.000000	0.000126	0.000826	-0.000125	1.000000
04576	0.222074	0.096806	9.822452	-0.001238	0.003019	-0.002256	0.999999	0.000762	-0.000839	-0.000762	1.000000	0.000102	0.000839	-0.000102	1.000000
04577	0.212457	0.077020	9.833362	0.000799	0.003575	-0.003182	0.999999	0.000747	-0.000859	-0.000746	1.000000	0.000099	0.000859	-0.000099	1.000000
04578	0.209154	0.121487	9.801443	0.005088	-0.000511	0.001115	0.999999	0.000779	-0.000837	-0.000779	1.000000	0.000138	0.000837	-0.000138	1.000000
04579	0.212319	0.077526	9.833361	-0.000788	0.000228	-0.003679	0.999999	0.000767	-0.000823	-0.000767	1.000000	0.000118	0.000823	-0.000118	1.000000
04580	0.237133	0.106219	9.851936	0.000683	0.001453	-0.002596	0.999999	0.000761	-0.000820	-0.000761	1.000000	0.000114	0.000820	-0.000113	1.000000
04581	0.243041	0.092727	9.832579	0.000458	0.002849	-0.001884	0.999999	0.000760	-0.000833	-0.000760	1.000000	0.000108	0.000833	-0.000107	1.000000
04582	0.193250	0.115689	9.831713	0.002379	0.001283	-0.002224	0.999999	0.000758	-0.000829	-0.000758	1.000000	0.000121	0.000829	-0.000120	1.000000
04583	0.199136	0.102248	9.812356	-0.000109	0.003517	0.000125	0.999999	0.000784	-0.000846	-0.000784	1.000000	0.000110	0.000846	-0.000110	1.000000
04584	0.214558	0.111131	9.841837	-0.000788	0.000228	-0.003679	0.999999	0.000767	-0.000831	-0.000767	1.000000	0.000092	0.000831	-0.000091	1.000000
04585	0.208162	0.122063	9.801457	0.002379	0.001283	-0.002224	0.999999	0.000773	-0.000827	-0.000773	1.000000	0.000105	0.000827	-0.000105	1.000000
04586	0.211093	0.078218	9.833382	0.004191	0.003235	-0.002439	0.999999	0.000770	-0.000843	-0.000770	1.000000	0.000136	0.000843	-0.000135	1.000000
04587	0.185933	0.127150	9.791344	-0.001580	0.002292	-0.000958	0.999999	0.000782	-0.000850	-0.000782	1.000000	0.000110	0.000850	-0.000109	1.000000
04588	0.213795	0.111635	9.841847	0.000683	0.001453	-0.002596	0.999999	0.000777	-0.000847	-0.000776	1.000000	0.000105	0.000847	-0.000105	1.000000
04589	0.219822	0.098218	9.822489	0.002037	0.000557	-0.000926	0.999999	0.000791	-0.000836	-0.000791	1.000000	0.000113	0.000837	-0.000112	1.000000
04590	0.197999	0.103066	9.812370	0.002379	0.001283	-0.002224	0.999999	0.000789	-0.000832	-0.000789	1.000000	0.000125	0.000832	-0.000125	1.000000
04591	0.226045	0.087775	9.862869	0.001133	-0.001338	-0.004019	0.999999	0.000776	-0.000800	-0.000776	1.000000	0.000125	0.000800	-0.000124	1.000000
04592	0.207216	0.123183	9.801463	0.002153	0.002679	-0.001513	0.999999	0.000781	-0.000810	-0.000781	1.000000	0.000135	0.000810	-0.000134	1.000000
04593	0.213504	0.112442	9.841845	-0.000116	-0.002122	0.000587	0.999999	0.000804	-0.000774	-0.000804	1.000000	0.000119	0.000774	-0.000119	1.000000
04594	0.210257	0.078986	9.833394	-0.002593	0.003915	-0.003926	0.999999	0.000784	-0.000796	-0.000784	1.000000	0.000083	0.000796	-0.000082	1.000000
04595	0.228539	0.118495	9.811593	0.001812	0.001952	-0.000215	0.999999	0.000798	-0.000802	-0.000798	1.000000	0.000088	0.000802	-0.000087	1.000000
04596	0.219025	0.098920	9.822500	0.002153	0.002679	-0.001513	0.999999	0.000804	-0.000811	-0.000804	1.000000	0.000098	0.000812	-0.000097	1.000000
04597	0.212725	0.112601	9.841860	0.000341	0.000727	-0.001298	0.999999	0.000803	-0.000804	-0.000803	1.000000	0.000088	0.000804	-0.000087	1.000000
04598	0.212487	0.112715	9.841863	0.001928	0.004074	-0.000801	0.999999	0.000815	-0.000828	-0.000815	1.000000	0.000095	0.000828	-0.000095	1.000000
04599	0.209105	0.079584	9.833414	0.002037	0.000557	-0.000926	0.999999	0.000827	-0.000818	-0.000827	1.000000	0.000101	0.000819	-0.000101	1.000000
04600	0.212258	0.113091	9.841864	0.001475	-0.000611	-0.005317	0.999999	0.000794	-0.000796	-0.000794	1.000000	0.000106	0.000796	-0.000105	1.000000
04601	0.218320	0.099401	9.822511	-0.004405	0.001963	-0.003712	0.999999	0.000778	-0.000798	-0.000778	1.000000	0.000050	0.000798	-0.000049	1.000000
04602	0.211977	0.112969	9.841872	0.004637	0.002281	0.002539	0.999999	0.000824	-0.000803	-0.000824	1.000000	0.000084	0.000803	-0.000083	1.000000
04603	0.221106	0.132902	9.830969	-0.001355	0.000897	-0.001670	0.999999	0.000830	-0.000796	-0.000830	1.000000	0.000060	0.000796	-0.000060	1.000000
04604	0.202313	0.093335	9.852782	0.000798	0.003575	-0.003183	0.999999	0.000818	-0.000815	-0.000818	1.000000	0.000057	0.000815	-0.000057	1.000000
04605	0.217451	0.099601	9.822528	0.000116	0.002122	-0.000587	0.999999	0.000836	-0.000820	-0.000835	1.000000	0.000047	0.000820	-0.000046	1.000000
04606	0.223387	0.086141	9.803176	0.001812	0.001952	-0.000215	0.999999	0.000854	-0.000822	-0.000854	1.000000	0.000053	0.000822	-0.000053	1.000000
04607	0.217050	0.099792	9.822535	0.000116	0.002122	-0.000587	0.999999	0.000870	-0.000828	-0.000869	1.000000	0.000043	0.000828	-0.000043	1.000000
04608	0.201261	0.091082	9.793056	0.004415	0.001840	-0.003150	0.999999	0.000859	-0.000830	-0.000859	1.000000	0.000076	0.000830	-0.000076	1.000000
04609	0.238596	0.095613	9.832660	-0.000116	-0.002122	0.000587	0.999999	0.000885	-0.000792	-0.000885	1.000000	0.000064	0.000792	-0.000063	1.000000
04610	0.216889	0.100180	9.822534	-0.001013	0.001623	-0.002968	0.999999	0.000875	-0.000791	-0.000875	1.000000	0.000043	0.000791	-0.000042	1.000000
04611	0.210538	0.113797	9.841893	0.002153	0.002679	-0.001513	0.999999	0.000878	-0.000803	-0.000878	1.000000	0.000052	0.000803	-0.000051	1.000000
04612	0.210332	0.113941	9.841896	0.000682	0.001453	-0.002596	0.999999	0.000872	-0.000801	-0.000872	1.000000	0.000048	0.000801	-0.000047	1.000000
04613	0.194633	0.105056	9.812416	0.000341	0.000727	-0.001298	0.999999	0.000867	-0.000795	-0.000867	1.000000	0.000039	0.000795	-0.000038	1.000000
04614	0.200733	0.094366	9.852805	0.002494	0.003406	-0.002811	0.999999	0.000860	-0.000812	-0.000860	1.000000	0.000053	0.000812	-0.000052	1.000000
04615	0.215879	0.100762	9.822551	0.001024	0.002180	-0.003894	0.999999	0.000838	-0.000818	-0.000838	1.000000	0.000050	0.000819	-0.000049	1.000000
04616	0.209682	0.114521	9.841903	0.003051	-0.001066	0.002043	0.999999	0.000879	-0.000790	-0.000879	1.000000	0.000068	0.000790	-0.000068	1.000000
04617	0.215813	0.101231	9.822547	0.002378	0.001284	-0.002224	0.999999	0.000880	-0.000788	-0.000880	1.000000	0.000082	0.000788	-0.000082	1.000000
04618	0.206385	0.081532	9.833455	-0.001014	0.001623	-0.002968	0.999999	0.000870	-0.000787	-0.000870	1.000000	0.000061	0.000787	-0.000061	1.000000
04619	0.246406	0.116594	9.821779	0.003622	0.003905	-0.000429	0.999999	0.000889	-0.000811	-0.000889	1.000000	0.000085	0.000812	-0.000084	1.000000
04620	0.199521	0.092759	9.793076	0.001811	0.001953	-0.000215	0.999999	0.000908	-0.000814	-0.000908	1.000000	0.000091	0.000814	-0.000090	1.000000
04621	0.215132	0.104542	9.882299	0.000341	0.000727	-0.001298	0.999999	0.000913	-0.000805	-0.000913	1.000000	0.000085	0.000805	-0.000084	1.000000
04622	0.211718	0.068452	9.814117	-0.001014	0.001623	-0.002968	0.999999	0.000903	-0.000804	-0.000903	1.000000	0.000064	0.000804	-0.000063	1.000000
04623	0.186861	0.119972	9.831785	0.001249	0.000784	-0.004605	0.999999	0.000880	-0.000796	-0.000880	1.000000	0.000065	0.000796	-0.000065	1.000000
04624	0.242435	0.083806	9.813348	0.002152	0.002679	-0.001513	0.999999	0.000886	-0.000805	-0.000886	1.000000	0.000076	0.000806	-0.000075	1.000000
04625	0.208201	0.115594	9.841922	-0.001014	0.001623	-0.002969	0.999999	0.000881	-0.000803	-0.000881	1.000000	0.000056	0.000803	-0.000055	1.000000
04626	0.214298	0.102020	9.822572	0.000567	-0.000669	-0.002009	0.999999	0.000881	-0.000779	-0.000881	1.000000	0.000050	0.000779	-0.000050	1.000000
04627	0.214206	0.102240	9.822572	0.003848	0.002510	-0.001140	0.999999	0.000893	-0.000790	-0.000892	1.000000	0.000080	0.000790	-0.000079	1.000000
04628	0.229493	0.111505	9.852058	0.002493	0.003406	-0.002811	0.999999	0.000885	-0.000807	-0.000885	1.000000	0.000094	0.000807	-0.000093	1.000000
04629	0.185772	0.120937	9.831794	0.001811	0.001953	-0.000215	0.999999	0.000914	-0.000805	-0.000914	1.000000	0.000101	0.000806	-0.000100	1.000000
04630	0.235171	0.098306	9.832716	0.001023	0.002180	-0.003894	0.999999	0.000895	-0.000810	-0.000895	1.000000	0.000100	0.000811	-0.000099	1.000000
04631	0.210064	0.069660	9.814144	0.000456	0.002849	-0.001885	0.999999	0.000896	-0.000823	-0.000896	1.000000	0.000094	0.000823	-0.000093	1.000000
04632	0.191193	0.107731	9.812455	0.002152	0.002680	-0.001513	0.999999	0.000901	-0.000833	-0.000901	1.000000	0.000104	0.000833	-0.000103	1.000000
04633	0.225154	0.078806	9.843638	-0.001014	0.001623	-0.002969	0.999999	0.000890	-0.000835	-0.000890	1.000000	0.000081	0.000835	-0.000081	1.000000
04634	0.212584	0.103204	9.822597	0.001249	0.000785	-0.004605	0.999999	0.000864	-0.000826	-0.000864	1.000000	0.000083	0.000826	-0.000083	1.000000
04635	0.218670	0.092577	9.862991	0.002493	0.003406	-0.002811	0.999999	0.000855	-0.000846	-0.000855	1.000000	0.000094	0.000846	-0.000093	1.000000
04636	0.212042	0.103599	9.822605	0.001584	0.003349	0.000497	0.999999	0.000880	-0.000862	-0.000880	1.000000	0.000098	0.000862	-0.000097	1.000000
04637	0.205618	0.117242	9.841957	0.000115	0.002122	-0.000587	0.999999	0.000894	-0.000867	-0.000894	1.000000	0.000087	0.000867	-0.000086	1.000000
04638	0.202216	0.083910	9.833522	-0.000111	0.003518	0.000124	0.999999	0.000916	-0.000885	-0.000916	1.000000	0.000074	0.000885	-0.000073	1.000000
04639	0.211191	0.103785	9.822621	0.002152	0.002680	-0.001512	0.999999	0.000925	-0.000894	-0.000925	1.000000	0.000083	0.000894	-0.000082	1.000000
04640	0.195452	0.094953	9.793137	0.000341	0.000727	-0.001298	0.999999	0.000932	-0.000884	-0.000932	1.000000	0.000075	0.000884	-0.000074	1.000000
04641	0.226514	0.112952	9.852111	0.001249	0.000785	-0.004605	0.999999	0.000909	-0.000875	-0.000909	1.000000	0.000075	0.000876	-0.000074	1.000000
04642	0.210776	0.104120	9.822627	0.001243	0.002622	0.001795	0.999999	0.000948	-0.000884	-0.000947	1.000000	0.000075	0.000884	-0.000074	1.000000
04643	0.216836	0.093502	9.863023	0.002719	0.002011	-0.003522	0.999999	0.000942	-0.000887	-0.000942	1.000000	0.000093	0.000887	-0.000092	1.000000
04644	0.225752	0.110773	9.792380	0.002151	0.002680	-0.001513	0.999999	0.000947	-0.000897	-0.000947	1.000000	0.000103	0.000897	-0.000102	1.000000
04645	0.210109	0.104704	9.822635	0.000682	0.001453	-0.002596	0.999999	0.000942	-0.000895	-0.000942	1.000000	0.000101	0.000895	-0.000100	1.000000
04646	0.222411	0.080404	9.843687	0.000682	0.001453	-0.002596	0.999999	0.000936	-0.000892	-0.000936	1.000000	0.000096	0.000893	-0.000096	1.000000
04647	0.231476	0.100238	9.832784	0.000456	0.002849	-0.001885	0.999999	0.000946	-0.000903	-0.000946	1.000000	0.000092	0.000903	-0.000091	1.000000
04648	0.215888	0.091508	9.803295	0.004185	-0.002403	-0.001974	0.999999	0.000947	-0.000862	-0.000947	1.000000	0.000122	0.000862	-0.000121	1.000000
04649	0.203617	0.118957	9.841978	0.002378	0.001284	-0.002223	0.999999	0.000949	-0.000859	-0.000949	1.000000	0.000138	0.000859	-0.000137	1.000000
04650	0.200292	0.085635	9.833546	-0.002149	0.002960	0.001049	0.999999	0.000979	-0.000871	-0.000979	1.000000	0.000105	0.000871	-0.000104	1.000000
04651	0.209316	0.105356	9.822645	0.001023	0.002180	-0.003894	0.999999	0.000963	-0.000876	-0.000963	1.000000	0.000105	0.000877	-0.000104	1.000000
04652	0.221627	0.081141	9.843699	0.002037	0.000558	-0.000925	0.999999	0.000974	-0.000865	-0.000974	1.000000	0.000114	0.000865	-0.000113	1.000000
04653	0.209087	0.105731	9.822645	0.002378	0.001285	-0.002223	0.999999	0.000970	-0.000864	-0.000970	1.000000	0.000130	0.000864	-0.000129	1.000000
04654	0.230684	0.101374	9.832791	0.002378	0.001285	-0.002223	0.999999	0.000968	-0.000860	-0.000968	1.000000	0.000142	0.000860	-0.000141	1.000000
04655	0.211960	0.139360	9.831081	-0.001355	0.000896	-0.001671	0.999999	0.000969	-0.000854	-0.000969	1.000000	0.000119	0.000854	-0.000118	1.000000
04656	0.199396	0.086292	9.833559	0.002151	0.002680	-0.001513	0.999999	0.000975	-0.000864	-0.000975	1.000000	0.000129	0.000864	-0.000128	1.000000
04657	0.230433	0.101634	9.832795	0.001021	-0.003460	-0.003431	0.999999	0.000959	-0.000815	-0.000959	1.000000	0.000127	0.000815	-0.000126	1.000000
04658	0.224138	0.115435	9.852136	0.003734	0.006030	-0.001016	0.999999	0.000970	-0.000858	-0.000970	1.000000	0.000153	0.000859	-0.000152	1.000000
04659	0.229886	0.101898	9.832805	-0.003277	0.002460	-0.001333	0.999999	0.000976	-0.000866	-0.000975	1.000000	0.000107	0.000866	-0.000106	1.000000
04660	0.214102	0.092775	9.803322	0.000114	0.002122	-0.000587	0.999999	0.000990	-0.000870	-0.000990	1.000000	0.000096	0.000870	-0.000095	1.000000
04661	0.223359	0.115414	9.852154	0.002037	0.000558	-0.000925	0.999999	0.001002	-0.000861	-0.001002	0.999999	0.000105	0.000861	-0.000104	1.000000
04662	0.229394	0.101959	9.832816	0.000114	0.002122	-0.000587	0.999999	0.001017	-0.000865	-0.001017	0.999999	0.000095	0.000865	-0.000094	1.000000
04663	0.229194	0.102055	9.832819	0.001810	0.001954	-0.000214	0.999999	0.001038	-0.000867	-0.001038	0.999999	0.000104	0.000867	-0.000103	1.000000
04664	0.213506	0.093191	9.803331	0.000341	0.000727	-0.001298	0.999999	0.001045	-0.000857	-0.001045	0.999999	0.000096	0.000857	-0.000095	1.000000
04665	0.207332	0.106802	9.822671	0.000568	-0.000669	-0.002009	0.999999	0.001048	-0.000832	-0.001048	0.999999	0.000091	0.000832	-0.000091	1.000000
04666	0.213466	0.096072	9.863072	0.000796	0.003576	-0.003184	0.999999	0.001036	-0.000851	-0.001036	0.999999	0.000088	0.000851	-0.000088	1.000000
04667	0.206913	0.107006	9.822678	0.001810	0.001954	-0.000214	0.999999	0.001058	-0.000853	-0.001058	0.999999	0.000096	0.000853	-0.000095	1.000000
04668	0.243883	0.108722	9.802584	0.000114	0.002122	-0.000587	0.999999	0.001073	-0.000857	-0.001072	0.999999	0.000086	0.000858	-0.000085	1.000000
04669	0.206535	0.107143	9.822684	0.000682	0.001453	-0.002596	0.999999	0.001059	-0.000860	-0.001059	0.999999	0.000082	0.000860	-0.000081	1.000000
04670	0.221977	0.116172	9.852177	0.000341	0.000727	-0.001298	0.999999	0.001066	-0.000850	-0.001066	0.999999	0.000074	0.000851	-0.000073	1.000000
04671	0.228145	0.102657	9.832837	0.000568	-0.000669	-0.002009	0.999999	0.001062	-0.000828	-0.001062	0.999999	0.000071	0.000828	-0.000070	1.000000
04672	0.193871	0.131745	9.801625	0.002150	0.002681	-0.001512	0.999999	0.001067	-0.000838	-0.001067	0.999999	0.000081	0.000838	-0.000080	1.000000
04673	0.227904	0.102819	9.832841	-0.001696	0.000169	-0.000373	0.999999	0.001085	-0.000822	-0.001085	0.999999	0.000051	0.000822	-0.000050	1.000000
04674	0.206203	0.107354	9.822689	0.000568	-0.000669	-0.002009	0.999999	0.001085	-0.000798	-0.001085	0.999999	0.000045	0.000798	-0.000044	1.000000
04675	0.206074	0.107592	9.822689	0.004187	0.003239	-0.002437	0.999999	0.001084	-0.000813	-0.001084	0.999999	0.000074	0.000813	-0.000073	1.000000
04676	0.233776	0.089669	9.813506	0.000341	0.000727	-0.001298	0.999999	0.001091	-0.000803	-0.001091	0.999999	0.000066	0.000803	-0.000065	1.000000
04677	0.205700	0.107861	9.822694	0.000455	0.002849	-0.001886	0.999999	0.001088	-0.000817	-0.001088	0.999999	0.000062	0.000817	-0.000061	1.000000
04678	0.211671	0.094440	9.803359	0.002377	0.001285	-0.002223	0.999999	0.001086	-0.000813	-0.001086	0.999999	0.000074	0.000813	-0.000074	1.000000
04679	0.242576	0.109850	9.802604	0.002036	0.000558	-0.000925	0.999999	0.001101	-0.000800	-0.001101	0.999999	0.000083	0.000800	-0.000082	1.000000
04680	0.217676	0.083907	9.843764	-0.001241	0.003018	-0.002259	0.999999	0.001098	-0.000813	-0.001098	0.999999	0.000059	0.000813	-0.000058	1.000000
04681	0.217576	0.084045	9.843765	0.003959	-0.001006	-0.001262	0.999999	0.001106	-0.000788	-0.001106	0.999999	0.000088	0.000788	-0.000087	1.000000
04682	0.205013	0.108807	9.822698	0.004186	0.003239	-0.002437	0.999999	0.001102	-0.000803	-0.001102	0.999999	0.000119	0.000803	-0.000118	1.000000
04683	0.217267	0.084677	9.843766	0.000341	0.000727	-0.001298	0.999999	0.001104	-0.000796	-0.001104	0.999999	0.000111	0.000797	-0.000110	1.000000
04684	0.220234	0.115392	9.792452	0.002604	-0.000111	-0.002934	0.999999	0.001096	-0.000778	-0.001095	0.999999	0.000126	0.000779	-0.000125	1.000000
04685	0.217066	0.084952	9.843768	-0.000113	0.003518	0.000123	0.999999	0.001118	-0.000796	-0.001118	0.999999	0.000113	0.000797	-0.000112	1.000000
04686	0.235401	0.124514	9.821951	0.000341	0.000727	-0.001298	0.999999	0.001125	-0.000787	-0.001125	0.999999	0.000105	0.000787	-0.000104	1.000000
04687	0.232140	0.091299	9.813530	0.002150	0.002681	-0.001513	0.999999	0.001131	-0.000798	-0.001131	0.999999	0.000114	0.000798	-0.000113	1.000000
04688	0.204091	0.109517	9.822709	-0.000787	0.000226	-0.003680	0.999999	0.001114	-0.000783	-0.001114	0.999999	0.000095	0.000783	-0.000094	1.000000
04689	0.200884	0.076148	9.814288	0.000114	0.002122	-0.000588	0.999999	0.001125	-0.000790	-0.001125	0.999999	0.000085	0.000790	-0.000084	1.000000
04690	0.209795	0.096226	9.803382	0.005995	0.005194	-0.002652	0.999999	0.001120	-0.000825	-0.001120	0.999999	0.000134	0.000825	-0.000133	1.000000
04691	0.228326	0.138823	9.841296	-0.000673	-0.003292	-0.003803	0.999999	0.001100	-0.000776	-0.001100	0.999999	0.000113	0.000776	-0.000112	1.000000
04692	0.200552	0.076708	9.814291	0.000341	0.000727	-0.001298	0.999999	0.001107	-0.000767	-0.001107	0.999999	0.000105	0.000767	-0.000104	1.000000
04693	0.253099	0.087454	9.823701	0.002150	0.002681	-0.001513	0.999999	0.001110	-0.000780	-0.001110	0.999999	0.000115	0.000780	-0.000114	1.000000
04694	0.218682	0.116544	9.792473	0.001022	0.002180	-0.003895	0.999999	0.001091	-0.000785	-0.001091	0.999999	0.000114	0.000785	-0.000113	1.000000
04695	0.224769	0.105850	9.832881	0.000681	0.001453	-0.002596	0.999999	0.001091	-0.000782	-0.001091	0.999999	0.000111	0.000782	-0.000110	1.000000
04696	0.215390	0.086129	9.843795	0.000341	0.000727	-0.001298	0.999999	0.001098	-0.000772	-0.001098	0.999999	0.000102	0.000773	-0.000102	1.000000
04697	0.202796	0.110504	9.822725	0.000113	0.002123	-0.000588	0.999999	0.001115	-0.000777	-0.001115	0.999999	0.000095	0.000777	-0.000094	1.000000
04698	0.239724	0.112038	9.802650	-0.002150	0.002960	0.001047	0.999999	0.001145	-0.000790	-0.001145	0.999999	0.000062	0.000790	-0.000061	1.000000
04699	0.202233	0.110422	9.822737	0.002490	0.003408	-0.002811	0.999999	0.001136	-0.000808	-0.001136	0.999999	0.000077	0.000808	-0.000077	1.000000
04700	0.220600	0.072637	9.824484	0.000113	0.002123	-0.000588	0.999999	0.001151	-0.000812	-0.001150	0.999999	0.000067	0.000812	-0.000066	1.000000
04701	0.207866	0.097035	9.803415	0.000795	0.003576	-0.003184	0.999999	0.001144	-0.000829	-0.001144	0.999999	0.000070	0.000829	-0.000069	1.000000
04702	0.216886	0.116890	9.792509	0.000681	0.001454	-0.002596	0.999999	0.001138	-0.000827	-0.001138	0.999999	0.000065	0.000827	-0.000064	1.000000
04703	0.222847	0.106340	9.832920	0.003958	0.004636	-0.001727	0.999999	0.001144	-0.000857	-0.001144	0.999999	0.000095	0.000857	-0.000094	1.000000
04704	0.207258	0.100369	9.863161	0.000796	-0.002065	-0.002719	0.999999	0.001137	-0.000820	-0.001137	0.999999	0.000091	0.000820	-0.000091	1.000000
04705	0.207207	0.097578	9.803424	-0.001014	0.001622	-0.002970	0.999999	0.001130	-0.000819	-0.001130	0.999999	0.000072	0.000819	-0.000071	1.000000
04706	0.213203	0.087013	9.843835	0.005312	0.003741	-0.000055	0.999999	0.001151	-0.000839	-0.001151	0.999999	0.000113	0.000839	-0.000112	1.000000
04707	0.225290	0.140430	9.841343	0.000681	0.001454	-0.002596	0.999999	0.001151	-0.000837	-0.001151	0.999999	0.000109	0.000837	-0.000108	1.000000
04708	0.203465	0.067595	9.854753	0.000454	0.002849	-0.001886	0.999999	0.001152	-0.000848	-0.001152	0.999999	0.000102	0.000849	-0.000101	1.000000
04709	0.228041	0.093570	9.813605	-0.000787	0.000226	-0.003680	0.999999	0.001137	-0.000835	-0.001137	0.999999	0.000085	0.000835	-0.000084	1.000000
04710	0.200085	0.111772	9.822766	0.002036	0.000559	-0.000925	0.999999	0.001148	-0.000823	-0.001148	0.999999	0.000094	0.000824	-0.000093	1.000000
04711	0.221658	0.107446	9.832935	0.002936	0.002456	0.002168	0.999999	0.001191	-0.000830	-0.001191	0.999999	0.000111	0.000830	-0.000110	1.000000
04712	0.199805	0.112122	9.822768	-0.000787	0.000226	-0.003680	0.999999	0.001174	-0.000816	-0.001173	0.999999	0.000093	0.000816	-0.000092	1.000000
04713	0.243168	0.103071	9.843106	0.002377	0.001286	-0.002223	0.999999	0.001168	-0.000815	-0.001168	0.999999	0.000104	0.000815	-0.000103	1.000000
04714	0.211899	0.087911	9.843855	-0.001470	0.004413	-0.001550	0.999999	0.001172	-0.000842	-0.001172	0.999999	0.000078	0.000842	-0.000077	1.000000
04715	0.199208	0.112367	9.822777	0.003731	0.000391	-0.000551	0.999999	0.001194	-0.000829	-0.001194	0.999999	0.000102	0.000829	-0.000101	1.000000
04716	0.214675	0.121571	9.852273	0.000341	0.000727	-0.001298	0.999999	0.001201	-0.000820	-0.001201	0.999999	0.000094	0.000820	-0.000093	1.000000
04717	0.220771	0.108140	9.832947	0.002376	0.001286	-0.002223	0.999999	0.001199	-0.000818	-0.001199	0.999999	0.000105	0.000818	-0.000104	1.000000
04718	0.242294	0.103802	9.843120	0.002149	0.002682	-0.001512	0.999999	0.001205	-0.000827	-0.001205	0.999999	0.000115	0.000828	-0.000114	1.000000
04719	0.226423	0.094835	9.813630	-0.001470	0.004413	-0.001550	0.999999	0.001204	-0.000857	-0.001203	0.999999	0.000090	0.000857	-0.000089	1.000000
04720	0.220033	0.108412	9.832960	0.001477	-0.000611	-0.005315	0.999999	0.001171	-0.000834	-0.001170	0.999999	0.000095	0.000834	-0.000094	1.000000
04721	0.204454	0.099656	9.803461	0.003503	0.001787	0.000160	0.999999	0.001195	-0.000836	-0.001195	0.999999	0.000116	0.000836	-0.000115	1.000000
04722	0.232185	0.084485	9.854049	-0.000333	0.003075	-0.005567	0.999999	0.001159	-0.000850	-0.001159	0.999999	0.000102	0.000850	-0.000101	1.000000
04723	0.225759	0.095429	9.813640	0.003731	0.000392	-0.000550	0.999999	0.001174	-0.000839	-0.001174	0.999999	0.000129	0.000839	-0.000128	1.000000
04724	0.213202	0.122859	9.852289	0.002148	0.002682	-0.001512	0.999999	0.001179	-0.000848	-0.001179	0.999999	0.000139	0.000848	-0.000138	1.000000
04725	0.216034	0.076093	9.824559	0.000793	0.003576	-0.003185	0.999999	0.001172	-0.000867	-0.001172	0.999999	0.000133	0.000867	-0.000132	1.000000
04726	0.225093	0.096013	9.813649	0.002036	0.000559	-0.000924	0.999999	0.001183	-0.000855	-0.001183	0.999999	0.000142	0.000855	-0.000141	1.000000
04727	0.206379	0.133950	9.811885	-0.001573	0.000450	-0.007361	0.999999	0.000827	-0.000884	-0.000826	1.000000	0.000121	0.000884	-0.000120	1.000000
04728	0.200182	0.069948	9.854804	-0.000797	0.002065	0.002719	0.999999	0.000873	-0.000887	-0.000873	1.000000	0.000101	0.000888	-0.000100	1.000000
04729	0.205856	0.133980	9.811896	0.003728	0.006033	-0.001016	0.999999	0.000885	-0.000931	-0.000885	1.000000	0.000126	0.000931	-0.000125	1.000000
04730	0.208782	0.090083	9.843902	0.000569	-0.000669	-0.002008	0.999999	0.000885	-0.000908	-0.000885	1.000000	0.000120	0.000908	-0.000120	1.000000
04731	0.224233	0.096473	9.813664	0.003163	0.001061	0.001458	0.999999	0.000922	-0.000903	-0.000922	1.000000	0.000140	0.000903	-0.000139	1.000000
04732	0.208707	0.090469	9.843900	0.000909	0.000058	-0.003307	0.999999	0.000909	-0.000887	-0.000909	1.000000	0.000138	0.000887	-0.000137	1.000000
04733	0.224129	0.096659	9.813665	-0.001355	0.000894	-0.001672	0.999999	0.000913	-0.000879	-0.000913	1.000000	0.000115	0.000880	-0.000115	1.000000
04734	0.186813	0.094897	9.833727	-0.001015	0.001621	-0.002971	0.999999	0.000903	-0.000879	-0.000903	1.000000	0.000094	0.000879	-0.000093	1.000000
04735	0.217617	0.110161	9.832995	0.001808	0.001955	-0.000214	0.999999	0.000924	-0.000885	-0.000924	1.000000	0.000104	0.000885	-0.000103	1.000000
04736	0.211298	0.123785	9.852319	-0.000786	0.000225	-0.003681	0.999999	0.000907	-0.000870	-0.000907	1.000000	0.000085	0.000870	-0.000084	1.000000
04737	0.220475	0.063305	9.805270	0.000793	0.003576	-0.003185	0.999999	0.000902	-0.000890	-0.000902	1.000000	0.000084	0.000890	-0.000083	1.000000
04738	0.217171	0.110295	9.833003	0.000569	-0.000669	-0.002008	0.999999	0.000902	-0.000866	-0.000902	1.000000	0.000079	0.000867	-0.000078	1.000000
04739	0.216968	0.107612	9.773269	0.001920	0.004078	-0.000802	0.999999	0.000921	-0.000892	-0.000921	1.000000	0.000084	0.000892	-0.000083	1.000000
04740	0.260173	0.101530	9.853370	0.002376	0.001286	-0.002222	0.999999	0.000920	-0.000888	-0.000919	1.000000	0.000096	0.000888	-0.000096	1.000000
04741	0.207269	0.091001	9.843925	0.000452	0.002850	-0.001886	0.999999	0.000924	-0.000901	-0.000924	1.000000	0.000090	0.000901	-0.000089	1.000000
04742	0.216385	0.110851	9.833014	0.000909	0.000058	-0.003307	0.999999	0.000910	-0.000884	-0.000910	1.000000	0.000088	0.000885	-0.000087	1.000000
04743	0.200767	0.101934	9.803514	0.001021	0.002181	-0.003895	0.999999	0.000894	-0.000889	-0.000893	1.000000	0.000087	0.000889	-0.000086	1.000000
04744	0.222357	0.097622	9.813696	0.003731	0.000392	-0.000550	0.999999	0.000909	-0.000876	-0.000909	1.000000	0.000113	0.000876	-0.000112	1.000000
04745	0.222160	0.097848	9.813698	0.000792	0.003576	-0.003185	0.999999	0.000900	-0.000893	-0.000900	1.000000	0.000109	0.000893	-0.000108	1.000000
04746	0.237332	0.104156	9.783471	0.001238	0.002625	0.001794	0.999999	0.000938	-0.000901	-0.000938	1.000000	0.000109	0.000902	-0.000108	1.000000
04747	0.215575	0.111639	9.833023	0.001137	-0.001338	-0.004016	0.999999	0.000919	-0.000872	-0.000919	1.000000	0.000113	0.000872	-0.000112	1.000000
04748	0.193796	0.116438	9.822838	0.003843	0.002515	-0.001138	0.999999	0.000928	-0.000880	-0.000928	1.000000	0.000140	0.000881	-0.000139	1.000000
04749	0.215353	0.112098	9.833023	0.000340	0.000727	-0.001298	0.999999	0.000929	-0.000874	-0.000929	1.000000	0.000131	0.000874	-0.000130	1.000000
04750	0.212134	0.078790	9.824623	0.000452	0.002850	-0.001887	0.999999	0.000930	-0.000885	-0.000930	1.000000	0.000124	0.000885	-0.000123	1.000000
04751	0.199552	0.103305	9.803524	0.003391	-0.000334	0.000749	0.999999	0.000961	-0.000866	-0.000961	1.000000	0.000146	0.000866	-0.000146	1.000000
04752	0.205796	0.092684	9.843941	-0.000786	0.000225	-0.003681	0.999999	0.000944	-0.000851	-0.000943	1.000000	0.000128	0.000851	-0.000127	1.000000
04753	0.236695	0.108001	9.843211	0.002376	0.001287	-0.002222	0.999999	0.000938	-0.000849	-0.000938	1.000000	0.000138	0.000849	-0.000137	1.000000
04754	0.211713	0.079523	9.824626	0.004183	0.003242	-0.002436	0.999999	0.000934	-0.000865	-0.000934	1.000000	0.000169	0.000865	-0.000168	1.000000
04755	0.214502	0.112952	9.833032	-0.002710	0.001788	-0.003345	0.999999	0.000926	-0.000867	-0.000926	1.000000	0.000129	0.000867	-0.000128	1.000000
04756	0.226798	0.085879	9.794401	0.004071	0.001120	-0.001848	0.999999	0.000928	-0.000862	-0.000928	1.000000	0.000158	0.000862	-0.000157	1.000000
04757	0.208034	0.124075	9.792613	0.002035	0.000560	-0.000924	0.999999	0.000939	-0.000849	-0.000939	1.000000	0.000167	0.000850	-0.000166	1.000000
04758	0.242078	0.095319	9.823906	0.000112	0.002123	-0.000589	0.999999	0.000953	-0.000854	-0.000953	1.000000	0.000157	0.000854	-0.000156	1.000000
04759	0.213961	0.113477	9.833037	0.000680	0.001454	-0.002597	0.999999	0.000955	-0.000850	-0.000955	1.000000	0.000153	0.000850	-0.000152	1.000000
04760	0.223180	0.055949	9.845746	0.002147	0.002683	-0.001512	0.999999	0.000960	-0.000860	-0.000960	1.000000	0.000163	0.000860	-0.000162	1.000000
04761	0.207531	0.124580	9.792617	0.002153	-0.002959	-0.001045	0.999999	0.000972	-0.000814	-0.000972	1.000000	0.000175	0.000814	-0.000174	1.000000
04762	0.226171	0.089719	9.854142	0.001918	0.004079	-0.000803	0.999999	0.000985	-0.000837	-0.000984	0.999999	0.000183	0.000837	-0.000182	1.000000
04763	0.241447	0.096066	9.823914	0.000909	0.000058	-0.003306	0.999999	0.000974	-0.000821	-0.000974	1.000000	0.000180	0.000822	-0.000179	1.000000
04764	0.182500	0.099091	9.833766	0.002035	0.000560	-0.000924	0.999999	0.000985	-0.000810	-0.000985	0.999999	0.000189	0.000810	-0.000188	1.000000
04765	0.235021	0.109916	9.843230	0.000452	0.002850	-0.001887	0.999999	0.000994	-0.000821	-0.000994	0.999999	0.000181	0.000821	-0.000180	1.000000
04766	0.216225	0.067659	9.805336	0.002147	0.002683	-0.001513	0.999999	0.001000	-0.000831	-0.001000	0.999999	0.000191	0.000831	-0.000190	1.000000
04767	0.212756	0.114718	9.833049	0.000451	0.002850	-0.001887	0.999999	0.001002	-0.000843	-0.001002	0.999999	0.000186	0.000843	-0.000185	1.000000
04768	0.218709	0.101274	9.813741	0.002147	0.002683	-0.001512	0.999999	0.001007	-0.000853	-0.001007	0.999999	0.000196	0.000853	-0.000195	1.000000
04769	0.240116	0.096886	9.823938	0.000792	0.003576	-0.003185	0.999999	0.000998	-0.000872	-0.000998	0.999999	0.000193	0.000873	-0.000192	1.000000
04770	0.212026	0.115071	9.833061	0.000569	-0.000669	-0.002008	0.999999	0.000997	-0.000849	-0.000997	0.999999	0.000187	0.000849	-0.000187	1.000000
04771	0.224343	0.087944	9.794439	-0.000118	0.003519	0.000121	0.999999	0.001024	-0.000867	-0.001024	0.999999	0.000175	0.000867	-0.000174	1.000000
04772	0.224098	0.087975	9.794445	0.000680	0.001454	-0.002597	0.999999	0.001018	-0.000864	-0.001018	0.999999	0.000171	0.000865	-0.000170	1.000000
04773	0.211396	0.115287	9.833072	0.002487	0.003410	-0.002811	0.999999	0.001021	-0.000880	-0.001021	0.999999	0.000185	0.000880	-0.000184	1.000000
04774	0.201871	0.095771	9.843992	0.002715	0.002014	-0.003520	0.999999	0.001007	-0.000883	-0.001006	0.999999	0.000201	0.000883	-0.000201	1.000000
04775	0.217093	0.102187	9.813767	0.001577	0.003352	0.000496	0.999999	0.001039	-0.000899	-0.001039	0.999999	0.000202	0.000899	-0.000201	1.000000
04776	0.210563	0.115948	9.833082	0.002146	0.002683	-0.001512	0.999999	0.001044	-0.000909	-0.001044	0.999999	0.000212	0.000909	-0.000211	1.000000
04777	0.222680	0.088831	9.794469	-0.001473	0.004412	-0.001552	0.999999	0.001048	-0.000937	-0.001048	0.999999	0.000186	0.000938	-0.000185	1.000000
04778	0.225403	0.122069	9.802870	-0.001015	0.001620	-0.002971	0.999999	0.001038	-0.000937	-0.001038	0.999999	0.000164	0.000937	-0.000164	1.000000
04779	0.215975	0.102464	9.813789	0.004411	0.001847	-0.003146	0.999999	0.001034	-0.000939	-0.001034	0.999999	0.000197	0.000939	-0.000196	1.000000
04780	0.222042	0.092070	9.854214	0.002375	0.001287	-0.002222	0.999999	0.001032	-0.000935	-0.001032	0.999999	0.000209	0.000935	-0.000208	1.000000
04781	0.200136	0.093899	9.784284	0.000451	0.002850	-0.001887	0.999999	0.001043	-0.000944	-0.001043	0.999999	0.000200	0.000945	-0.000199	1.000000
04782	0.218641	0.058901	9.845831	0.000340	0.000727	-0.001298	0.999999	0.001050	-0.000935	-0.001050	0.999999	0.000192	0.000935	-0.000191	1.000000
04783	0.230763	0.111976	9.843307	-0.001584	0.002289	-0.000964	0.999999	0.001068	-0.000938	-0.001068	0.999999	0.000160	0.000938	-0.000159	1.000000
04784	0.215042	0.102959	9.813804	0.002146	0.002683	-0.001512	0.999999	0.001073	-0.000948	-0.001073	0.999999	0.000170	0.000948	-0.000169	1.000000
04785	0.199335	0.096817	9.844034	-0.001015	0.001620	-0.002972	0.999999	0.001069	-0.000945	-0.001069	0.999999	0.000147	0.000945	-0.000146	1.000000
04786	0.214683	0.103092	9.813811	0.002375	0.001287	-0.002222	0.999999	0.001068	-0.000941	-0.001067	0.999999	0.000159	0.000941	-0.000158	1.000000
04787	0.193021	0.110609	9.863341	0.000459	-0.002792	-0.001419	0.999999	0.001082	-0.000895	-0.001082	0.999999	0.000149	0.000895	-0.000148	1.000000
04788	0.211842	0.069921	9.805415	0.000340	0.000727	-0.001298	0.999999	0.001089	-0.000885	-0.001089	0.999999	0.000141	0.000885	-0.000140	1.000000
04789	0.205461	0.083522	9.824726	0.000111	0.002123	-0.000589	0.999999	0.001114	-0.000885	-0.001114	0.999999	0.000129	0.000886	-0.000128	1.000000
04790	0.230067	0.109528	9.783585	0.000340	0.000727	-0.001298	0.999999	0.001121	-0.000876	-0.001120	0.999999	0.000121	0.000876	-0.000120	1.000000
04791	0.226873	0.079228	9.834932	0.003841	0.002517	-0.001137	0.999999	0.001137	-0.000884	-0.001137	0.999999	0.000147	0.000884	-0.000146	1.000000
04792	0.214252	0.103741	9.813813	0.000340	0.000727	-0.001298	0.999999	0.001144	-0.000874	-0.001144	0.999999	0.000139	0.000874	-0.000138	1.000000
04793	0.214128	0.106728	9.873548	0.002375	0.001287	-0.002222	0.999999	0.001153	-0.000868	-0.001153	0.999999	0.000149	0.000868	-0.000148	1.000000
04794	0.229478	0.110205	9.783592	0.000111	0.002123	-0.000589	0.999999	0.001167	-0.000872	-0.001167	0.999999	0.000138	0.000873	-0.000137	1.000000
04795	0.207534	0.117724	9.833125	0.002715	0.002014	-0.003520	0.999999	0.001161	-0.000875	-0.001161	0.999999	0.000151	0.000876	-0.000150	1.000000
04796	0.213536	0.104307	9.813823	0.000451	0.002850	-0.001887	0.999999	0.001162	-0.000887	-0.001162	0.999999	0.000145	0.000887	-0.000144	1.000000
04797	0.204071	0.084588	9.824746	0.000680	0.001454	-0.002597	0.999999	0.001170	-0.000883	-0.001170	0.999999	0.000139	0.000883	-0.000138	1.000000
04798	0.234882	0.099835	9.824036	-0.001015	0.001620	-0.002972	0.999999	0.001160	-0.000883	-0.001160	0.999999	0.000118	0.000883	-0.000117	1.000000
04799	0.219177	0.090592	9.794532	-0.002940	0.003182	-0.002637	0.999999	0.001164	-0.000894	-0.001164	0.999999	0.000075	0.000894	-0.000074	1.000000
04800	0.212624	0.107152	9.873576	0.005535	0.002351	-0.000762	0.999999	0.001178	-0.000901	-0.001177	0.999999	0.000118	0.000901	-0.000117	1.000000
04801	0.221711	0.124306	9.802926	-0.001015	0.001620	-0.002972	0.999999	0.001176	-0.000899	-0.001176	0.999999	0.000096	0.000899	-0.000095	1.000000
04802	0.203160	0.084728	9.824763	0.000570	-0.000669	-0.002008	0.999999	0.001176	-0.000875	-0.001175	0.999999	0.000090	0.000875	-0.000089	1.000000
04803	0.243169	0.122749	9.872870	0.001916	0.004080	-0.000803	0.999999	0.001195	-0.000899	-0.001195	0.999999	0.000095	0.000899	-0.000094	1.000000
04804	0.202746	0.084883	9.824770	-0.001355	0.000893	-0.001673	0.999999	0.001198	-0.000891	-0.001198	0.999999	0.000070	0.000891	-0.000069	1.000000
04805	0.202561	0.084842	9.824775	0.000450	0.002850	-0.001887	0.999999	0.001211	-0.000900	-0.001211	0.999999	0.000061	0.000900	-0.000060	1.000000
04806	0.211538	0.104754	9.813861	0.002145	0.002684	-0.001512	0.999999	0.001216	-0.000910	-0.001216	0.999999	0.000072	0.000910	-0.000070	1.000000
04807	0.202051	0.085086	9.824783	0.000110	0.002123	-0.000589	0.999999	0.001239	-0.000912	-0.001239	0.999999	0.000056	0.000912	-0.000055	1.000000
04808	0.242009	0.120078	9.813164	-0.001245	0.003016	-0.002263	0.999999	0.001236	-0.000925	-0.001236	0.999999	0.000032	0.000925	-0.000031	1.000000
04809	0.210834	0.104875	9.813875	0.002375	0.001288	-0.002222	0.999999	0.001243	-0.000919	-0.001243	0.999999	0.000040	0.000919	-0.000039	1.000000
04810	0.201528	0.085295	9.824792	0.001695	-0.000166	0.000375	0.999999	0.001267	-0.000901	-0.001267	0.999999	0.000045	0.000901	-0.000044	1.000000
04811	0.226058	0.114179	9.843391	-0.000905	0.003743	-0.003561	0.999999	0.001266	-0.000917	-0.001266	0.999999	0.000021	0.000917	-0.000020	1.000000
04812	0.194770	0.098898	9.844104	0.000450	0.002850	-0.001887	0.999999	0.001267	-0.000928	-0.001267	0.999999	0.000015	0.000928	-0.000013	1.000000
04813	0.210029	0.105132	9.813890	0.000110	0.002123	-0.000589	0.999999	0.001295	-0.000930	-0.001295	0.999999	-0.000001	0.000930	0.000003	1.000000
04814	0.200683	0.085439	9.824808	0.001695	-0.000166	0.000375	0.999999	0.001318	-0.000911	-0.001318	0.999999	0.000004	0.000911	-0.000002	1.000000
04815	0.216106	0.094651	9.854322	0.001250	0.000785	-0.004604	0.999999	0.001297	-0.000903	-0.001297	0.999999	0.000001	0.000903	0.000000	1.000000
04816	0.209727	0.105543	9.813892	0.002145	0.002684	-0.001512	0.999999	0.001302	-0.000913	-0.001302	0.999999	0.000011	0.000913	-0.000010	1.000000
04817	0.252934	0.096575	9.834323	-0.001015	0.001620	-0.002972	0.999999	0.001297	-0.000911	-0.001297	0.999999	-0.000014	0.000911	0.000015	1.000000
04818	0.231078	0.101162	9.824112	0.002375	0.001288	-0.002221	0.999999	0.001296	-0.000907	-0.001296	0.999999	-0.000002	0.000907	0.000003	1.000000
04819	0.215463	0.095012	9.854332	-0.001355	0.000893	-0.001674	0.999999	0.001310	-0.000897	-0.001310	0.999999	-0.000030	0.000897	0.000031	1.000000
04820	0.221604	0.081406	9.835034	0.000680	0.001454	-0.002597	0.999999	0.001304	-0.000894	-0.001304	0.999999	-0.000035	0.000894	0.000036	1.000000
04821	0.202869	0.119243	9.833204	-0.001465	-0.001230	-0.001085	0.999999	0.001328	-0.000861	-0.001328	0.999999	-0.000060	0.000861	0.000062	1.000000
04822	0.209124	0.105714	9.813903	0.002375	0.001288	-0.002221	0.999999	0.001326	-0.000857	-0.001326	0.999999	-0.000048	0.000857	0.000049	1.000000
04823	0.221390	0.081646	9.835037	0.002145	0.002684	-0.001512	0.999999	0.001342	-0.000865	-0.001342	0.999999	-0.000040	0.000865	0.000041	1.000000
04824	0.199535	0.086229	9.824824	-0.000785	0.000224	-0.003681	0.999999	0.001325	-0.000851	-0.001325	0.999999	-0.000059	0.000850	0.000060	1.000000
04825	0.230415	0.101586	9.824123	0.002375	0.001288	-0.002221	0.999999	0.001340	-0.000842	-0.001340	0.999999	-0.000049	0.000842	0.000050	1.000000
04826	0.214721	0.095340	9.854345	-0.003280	0.002455	-0.001340	0.999999	0.001345	-0.000850	-0.001345	0.999999	-0.000093	0.000850	0.000095	1.000000
04827	0.217624	0.125862	9.802998	0.003730	0.000396	-0.000548	0.999999	0.001365	-0.000836	-0.001365	0.999999	-0.000073	0.000836	0.000074	1.000000
04828	0.214472	0.092626	9.794617	-0.001246	0.003016	-0.002263	0.999999	0.001362	-0.000849	-0.001362	0.999999	-0.000097	0.000849	0.000098	1.000000
04829	0.214196	0.095550	9.854355	0.002375	0.001288	-0.002221	0.999999	0.001372	-0.000843	-0.001372	0.999999	-0.000093	0.000842	0.000094	1.000000
04830	0.229577	0.101994	9.824139	0.002374	0.001288	-0.002221	0.999999	0.001370	-0.000839	-0.001370	0.999999	-0.000080	0.000838	0.000081	1.000000
04831	0.213934	0.093149	9.794624	0.002144	0.002685	-0.001512	0.999999	0.001384	-0.000846	-0.001384	0.999999	-0.000074	0.000846	0.000075	1.000000
04832	0.229210	0.102346	9.824144	0.000340	0.000727	-0.001298	0.999999	0.001391	-0.000836	-0.001391	0.999999	-0.000082	0.000836	0.000083	1.000000
04833	0.213719	0.096136	9.854360	-0.000555	-0.001173	-0.004391	0.999999	0.001386	-0.000801	-0.001386	0.999999	-0.000103	0.000801	0.000104	1.000000
04834	0.207623	0.107020	9.813921	0.003960	-0.001000	-0.001257	0.999999	0.001394	-0.000774	-0.001394	0.999999	-0.000075	0.000774	0.000076	1.000000
04835	0.219780	0.082881	9.835063	-0.001027	0.007262	-0.003442	0.999999	0.001381	-0.000829	-0.001381	0.999999	-0.000106	0.000829	0.000107	1.000000
04836	0.219365	0.083037	9.835071	0.004069	0.001123	-0.001846	0.999999	0.001383	-0.000824	-0.001383	0.999999	-0.000076	0.000824	0.000078	1.000000
04837	0.228443	0.103077	9.824154	0.001019	0.002181	-0.003895	0.999999	0.001375	-0.000828	-0.001375	0.999999	-0.000080	0.000827	0.000081	1.000000
04838	0.218959	0.083455	9.835077	0.002144	0.002685	-0.001512	0.999999	0.001380	-0.000837	-0.001380	0.999999	-0.000070	0.000837	0.000071	1.000000
04839	0.206287	0.107883	9.813939	0.000679	0.001454	-0.002597	0.999999	0.001389	-0.000831	-0.001389	0.999999	-0.000078	0.000831	0.000079	1.000000
04840	0.212352	0.094446	9.794646	0.002144	0.002685	-0.001512	0.999999	0.001395	-0.000841	-0.001395	0.999999	-0.000068	0.000841	0.000069	1.000000
04841	0.196489	0.088278	9.824868	-0.001477	0.004412	-0.001554	0.999999	0.001405	-0.000868	-0.001405	0.999999	-0.000098	0.000867	0.000099	1.000000
04842	0.220983	0.117100	9.843472	0.000570	-0.000669	-0.002007	0.999999	0.001404	-0.000844	-0.001404	0.999999	-0.000104	0.000844	0.000105	1.000000
04843	0.217944	0.083904	9.835095	0.002714	0.002016	-0.003520	0.999999	0.001398	-0.000845	-0.001398	0.999999	-0.000094	0.000845	0.000095	1.000000
04844	0.227057	0.103927	9.824177	0.002035	0.000562	-0.000923	0.999999	0.001409	-0.000834	-0.001409	0.999999	-0.000085	0.000834	0.000086	1.000000
04845	0.205171	0.108467	9.813956	-0.001246	0.003016	-0.002264	0.999999	0.001413	-0.000845	-0.001413	0.999999	-0.000113	0.000845	0.000114	1.000000
04846	0.198719	0.122088	9.833254	0.002035	0.000562	-0.000923	0.999999	0.001424	-0.000834	-0.001424	0.999999	-0.000104	0.000834	0.000105	1.000000
04847	0.235815	0.124034	9.813266	0.002714	0.002016	-0.003520	0.999999	0.001420	-0.000835	-0.001420	0.999999	-0.000091	0.000835	0.000093	1.000000
04848	0.217292	0.084532	9.835104	-0.001464	-0.001231	-0.001085	0.999999	0.001428	-0.000806	-0.001428	0.999999	-0.000118	0.000806	0.000119	1.000000
04849	0.195418	0.089105	9.824882	0.003038	0.004585	0.001580	0.999999	0.001472	-0.000833	-0.001472	0.999999	-0.000107	0.000833	0.000108	1.000000
04850	0.235247	0.124480	9.813274	0.003053	0.002743	-0.004818	0.999999	0.001445	-0.000843	-0.001445	0.999999	-0.000087	0.000843	0.000088	1.000000
04851	0.219615	0.118379	9.843488	-0.001125	-0.000504	-0.002383	0.999999	0.001448	-0.000820	-0.001448	0.999999	-0.000115	0.000820	0.000116	1.000000
04852	0.194903	0.089575	9.824888	0.002374	0.001289	-0.002221	0.999999	0.001446	-0.000816	-0.001447	0.999999	-0.000102	0.000816	0.000103	1.000000
04853	0.219376	0.118672	9.843489	0.002143	0.002685	-0.001512	0.999999	0.001468	-0.000822	-0.001468	0.999999	-0.000094	0.000822	0.000096	1.000000
04854	0.225417	0.105205	9.824201	0.000109	0.002123	-0.000590	0.999999	0.001482	-0.000826	-0.001482	0.999999	-0.000105	0.000826	0.000106	1.000000
04855	0.203459	0.109775	9.813977	0.001358	0.002908	-0.005194	0.999999	0.001466	-0.000835	-0.001466	0.999999	-0.000103	0.000835	0.000105	1.000000
04856	0.203486	0.109854	9.813976	0.000122	-0.003519	-0.000119	0.999999	0.001484	-0.000782	-0.001484	0.999999	-0.000114	0.000782	0.000115	1.000000
04857	0.225189	0.105410	9.824204	0.000788	0.003577	-0.003186	0.999999	0.001479	-0.000801	-0.001479	0.999999	-0.000120	0.000801	0.000121	1.000000
04858	0.243811	0.067792	9.826063	0.003960	-0.000999	-0.001256	0.999999	0.001487	-0.000774	-0.001487	0.999999	-0.000092	0.000774	0.000093	1.000000
04859	0.215866	0.086108	9.835122	0.000910	0.000058	-0.003306	0.999999	0.001488	-0.000754	-0.001488	0.999999	-0.000098	0.000754	0.000100	1.000000
04860	0.203259	0.110537	9.813973	0.002143	0.002685	-0.001512	0.999999	0.001493	-0.000764	-0.001493	0.999999	-0.000088	0.000764	0.000090	1.000000
04861	0.209233	0.099905	9.854418	-0.001016	0.001619	-0.002973	0.999999	0.001487	-0.000763	-0.001487	0.999999	-0.000115	0.000763	0.000116	1.000000
04862	0.218240	0.119584	9.843504	-0.001247	0.003015	-0.002264	0.999999	0.001484	-0.000776	-0.001484	0.999999	-0.000138	0.000776	0.000140	1.000000
04863	0.233627	0.125895	9.813294	0.003390	-0.000330	0.000752	0.999999	0.001527	-0.000752	-0.001527	0.999999	-0.000120	0.000752	0.000121	1.000000
04864	0.202590	0.110818	9.813984	0.001018	0.002181	-0.003895	0.999999	0.001508	-0.000758	-0.001508	0.999999	-0.000120	0.000757	0.000121	1.000000
04865	0.223971	0.106314	9.824222	-0.001478	0.004411	-0.001555	0.999999	0.001518	-0.000783	-0.001518	0.999999	-0.000151	0.000783	0.000153	1.000000
04866	0.223802	0.106439	9.824225	0.003960	-0.000999	-0.001255	0.999999	0.001526	-0.000756	-0.001526	0.999999	-0.000123	0.000756	0.000124	1.000000
04867	0.201961	0.111032	9.813994	-0.001817	0.003684	-0.000257	0.999998	0.001554	-0.000773	-0.001554	0.999999	-0.000158	0.000772	0.000160	1.000000
04868	0.229754	0.093059	9.804941	0.003729	0.000397	-0.000546	0.999998	0.001569	-0.000760	-0.001569	0.999999	-0.000133	0.000759	0.000134	1.000000
04869	0.223307	0.106849	9.824232	0.000448	0.002850	-0.001888	0.999998	0.001578	-0.000770	-0.001578	0.999999	-0.000144	0.000769	0.000146	1.000000
04870	0.207638	0.100718	9.854444	0.000910	0.000058	-0.003306	0.999998	0.001564	-0.000753	-0.001565	0.999999	-0.000146	0.000753	0.000147	1.000000
04871	0.244763	0.102623	9.834469	0.002713	0.002016	-0.003519	0.999999	0.001558	-0.000755	-0.001558	0.999999	-0.000135	0.000754	0.000136	1.000000
04872	0.198159	0.081273	9.865367	0.000339	0.000727	-0.001298	0.999998	0.001565	-0.000745	-0.001565	0.999999	-0.000143	0.000745	0.000144	1.000000
04873	0.238157	0.113562	9.794032	0.001466	0.005032	-0.005784	0.999999	0.001536	-0.000776	-0.001536	0.999999	-0.000145	0.000776	0.000146	1.000000
04874	0.197739	0.078633	9.805644	0.001695	-0.000165	0.000376	0.999998	0.001560	-0.000757	-0.001560	0.999999	-0.000140	0.000757	0.000141	1.000000
04875	0.222362	0.107621	9.824245	0.000339	0.000727	-0.001298	0.999998	0.001579	-0.000745	-0.001579	0.999999	-0.000151	0.000745	0.000153	1.000000
04876	0.185098	0.103024	9.784488	0.000108	0.002123	-0.000590	0.999998	0.001593	-0.000749	-0.001593	0.999999	-0.000162	0.000749	0.000163	1.000000
04877	0.250078	0.089605	9.815200	0.000339	0.000727	-0.001298	0.999998	0.001603	-0.000739	-0.001603	0.999999	-0.000174	0.000739	0.000175	1.000000
04878	0.206384	0.101591	9.854461	0.002142	0.002686	-0.001512	0.999998	0.001608	-0.000749	-0.001608	0.999999	-0.000164	0.000749	0.000165	1.000000
04879	0.200080	0.112464	9.814016	0.001695	-0.000165	0.000376	0.999998	0.001641	-0.000728	-0.001641	0.999999	-0.000163	0.000728	0.000164	1.000000
04880	0.237196	0.117135	9.853777	-0.000785	0.000222	-0.003682	0.999998	0.001624	-0.000714	-0.001624	0.999999	-0.000182	0.000713	0.000183	1.000000
04881	0.199997	0.112596	9.814017	0.002373	0.001290	-0.002221	0.999998	0.001624	-0.000710	-0.001624	0.999999	-0.000173	0.000709	0.000174	1.000000
04882	0.234031	0.083924	9.845417	-0.001016	0.001619	-0.002973	0.999998	0.001614	-0.000709	-0.001614	0.999999	-0.000194	0.000709	0.000195	1.000000
04883	0.181103	0.073142	9.835868	0.001911	0.004082	-0.000803	0.999998	0.001637	-0.000730	-0.001637	0.999999	-0.000191	0.000730	0.000192	1.000000
04884	0.245684	0.137242	9.842869	0.000339	0.000727	-0.001298	0.999998	0.001643	-0.000720	-0.001643	0.999999	-0.000199	0.000720	0.000200	1.000000
04885	0.189922	0.093083	9.824952	0.000447	0.002850	-0.001888	0.999998	0.001662	-0.000728	-0.001662	0.999999	-0.000207	0.000728	0.000208	1.000000
04886	0.220579	0.108440	9.824276	0.000447	0.002850	-0.001888	0.999998	0.001663	-0.000740	-0.001663	0.999999	-0.000214	0.000739	0.000215	1.000000
04887	0.207812	0.132717	9.803120	-0.000338	0.003073	-0.005570	0.999998	0.001635	-0.000752	-0.001635	0.999999	-0.000231	0.000752	0.000232	1.000000
04888	0.232350	0.084430	9.845452	0.005068	0.005150	0.000658	0.999998	0.001663	-0.000787	-0.001663	0.999999	-0.000192	0.000786	0.000194	1.000000
04889	0.197839	0.113368	9.814051	-0.001016	0.001619	-0.002973	0.999998	0.001663	-0.000783	-0.001664	0.999999	-0.000217	0.000783	0.000218	1.000000
04890	0.213075	0.122602	9.843580	0.003497	0.001795	0.000163	0.999998	0.001686	-0.000784	-0.001686	0.999999	-0.000194	0.000784	0.000195	1.000000
04891	0.194448	0.083237	9.865425	0.000679	0.001454	-0.002597	0.999998	0.001679	-0.000782	-0.001679	0.999999	-0.000202	0.000781	0.000203	1.000000
04892	0.216145	0.076010	9.815939	0.002373	0.001290	-0.002221	0.999998	0.001677	-0.000778	-0.001678	0.999999	-0.000189	0.000777	0.000191	1.000000
04893	0.228148	0.129375	9.813378	0.001802	0.001959	-0.000214	0.999998	0.001702	-0.000779	-0.001703	0.999999	-0.000187	0.000778	0.000188	1.000000
04894	0.225108	0.096059	9.805020	-0.000785	0.000222	-0.003682	0.999998	0.001685	-0.000764	-0.001685	0.999999	-0.000206	0.000764	0.000207	1.000000
04895	0.197001	0.114252	9.814058	0.003497	0.001795	0.000163	0.999998	0.001717	-0.000762	-0.001717	0.999999	-0.000186	0.000762	0.000188	1.000000
04896	0.218508	0.110006	9.824305	0.001018	0.002181	-0.003896	0.999998	0.001698	-0.000767	-0.001698	0.999999	-0.000187	0.000767	0.000188	1.000000
04897	0.209389	0.087190	9.775498	-0.003497	-0.001795	-0.000163	0.999998	0.001720	-0.000731	-0.001720	0.999998	-0.000238	0.000731	0.000239	1.000000
04898	0.233838	0.118986	9.853835	0.003052	0.002744	-0.004818	0.999998	0.001693	-0.000742	-0.001693	0.999999	-0.000218	0.000742	0.000219	1.000000
04899	0.215129	0.076686	9.815956	0.000554	0.004974	-0.002478	0.999998	0.001692	-0.000774	-0.001692	0.999999	-0.000228	0.000774	0.000229	1.000000
04900	0.217639	0.110212	9.824322	0.002481	0.003413	-0.002810	0.999998	0.001684	-0.000791	-0.001685	0.999999	-0.000214	0.000791	0.000215	1.000000
04901	0.223777	0.096752	9.805044	0.000000	0.000000	-0.000000	0.999998	0.001705	-0.000774	-0.001705	0.999999	-0.000230	0.000774	0.000231	1.000000
04902	0.245408	0.092321	9.815293	0.000678	0.001454	-0.002597	0.999998	0.001699	-0.000772	-0.001699	0.999999	-0.000234	0.000771	0.000236	1.000000
04903	0.226419	0.130173	9.813407	-0.000464	0.002793	0.001417	0.999998	0.001745	-0.000779	-0.001746	0.999998	-0.000256	0.000778	0.000257	1.000000
04904	0.201404	0.104212	9.854537	0.001018	0.002181	-0.003896	0.999998	0.001727	-0.000784	-0.001727	0.999998	-0.000256	0.000783	0.000258	1.000000
04905	0.216615	0.110398	9.824342	-0.001480	0.004411	-0.001557	0.999998	0.001734	-0.000810	-0.001735	0.999998	-0.000287	0.000809	0.000288	1.000000
04906	0.216430	0.110357	9.824347	0.000571	-0.000669	-0.002007	0.999998	0.001734	-0.000786	-0.001734	0.999998	-0.000293	0.000786	0.000294	1.000000
04907	0.213392	0.076956	9.815992	-0.001248	0.003015	-0.002265	0.999998	0.001737	-0.000798	-0.001737	0.999998	-0.000321	0.000797	0.000322	1.000000
04908	0.237733	0.105911	9.834606	0.002141	0.002687	-0.001512	0.999998	0.001742	-0.000807	-0.001743	0.999998	-0.000311	0.000807	0.000312	1.000000
04909	0.187846	0.128551	9.833385	0.000339	0.000727	-0.001298	0.999998	0.001757	-0.000796	-0.001757	0.999998	-0.000323	0.000795	0.000324	1.000000
04910	0.206522	0.090767	9.835281	0.000678	0.001454	-0.002597	0.999998	0.001751	-0.000794	-0.001751	0.999998	-0.000327	0.000793	0.000328	1.000000
04911	0.243598	0.092632	9.815335	0.001802	0.001959	-0.000213	0.999998	0.001780	-0.000794	-0.001780	0.999998	-0.000323	0.000793	0.000324	1.000000
04912	0.215376	0.110824	9.824365	0.001017	0.002182	-0.003895	0.999998	0.001761	-0.000799	-0.001761	0.999998	-0.000323	0.000798	0.000325	1.000000
04913	0.193460	0.115347	9.814116	0.000107	0.002124	-0.000590	0.999998	0.001786	-0.000799	-0.001786	0.999998	-0.000340	0.000798	0.000341	1.000000
04914	0.233572	0.073185	9.826273	0.002587	0.005537	-0.003400	0.999998	0.001773	-0.000837	-0.001773	0.999998	-0.000325	0.000837	0.000327	1.000000
04915	0.229755	0.120298	9.853915	0.000446	0.002851	-0.001889	0.999998	0.001784	-0.000846	-0.001784	0.999998	-0.000335	0.000846	0.000336	1.000000
04916	0.214163	0.111318	9.824386	0.002373	0.001290	-0.002220	0.999998	0.001782	-0.000842	-0.001782	0.999998	-0.000322	0.000842	0.000324	1.000000
04917	0.226612	0.087301	9.845561	0.002266	-0.000833	-0.001630	0.999998	0.001785	-0.000818	-0.001786	0.999998	-0.000314	0.000817	0.000315	1.000000
04918	0.214046	0.111770	9.824383	0.002141	0.002687	-0.001512	0.999998	0.001791	-0.000827	-0.001791	0.999998	-0.000304	0.000827	0.000305	1.000000
04919	0.198330	0.105691	9.854583	0.000339	0.000727	-0.001299	0.999998	0.001801	-0.000817	-0.001801	0.999998	-0.000316	0.000816	0.000318	1.000000
04920	0.235546	0.107585	9.834641	0.002605	-0.000106	-0.002928	0.999998	0.001792	-0.000799	-0.001792	0.999998	-0.000301	0.000798	0.000303	1.000000
04921	0.204555	0.092505	9.835306	0.002373	0.001291	-0.002220	0.999998	0.001787	-0.000795	-0.001787	0.999998	-0.000294	0.000795	0.000295	1.000000
04922	0.232295	0.074509	9.826293	-0.001481	0.004411	-0.001557	0.999998	0.001791	-0.000822	-0.001791	0.999998	-0.000320	0.000822	0.000321	1.000000
04923	0.213174	0.112324	9.824396	0.001017	0.002182	-0.003896	0.999998	0.001777	-0.000826	-0.001777	0.999998	-0.000325	0.000825	0.000327	1.000000
04924	0.212960	0.112384	9.824400	0.000107	0.002124	-0.000590	0.999998	0.001791	-0.000830	-0.001791	0.999998	-0.000336	0.000830	0.000337	1.000000
04925	0.228221	0.121485	9.853936	-0.000784	0.000222	-0.003682	0.999998	0.001781	-0.000813	-0.001781	0.999998	-0.000359	0.000813	0.000361	1.000000
04926	0.212793	0.112339	9.824404	0.000339	0.000727	-0.001299	0.999998	0.001788	-0.000803	-0.001788	0.999998	-0.000367	0.000803	0.000369	1.000000
04927	0.225150	0.088065	9.845588	-0.001017	0.001618	-0.002974	0.999999	0.001487	-0.000779	-0.001487	0.999999	-0.000264	0.000779	0.000265	1.000000
04928	0.212325	0.112346	9.824414	0.001676	0.005480	-0.000095	0.999999	0.001506	-0.000817	-0.001507	0.999999	-0.000259	0.000816	0.000260	1.000000
04929	0.218411	0.098873	9.805144	0.000571	-0.000669	-0.002007	0.999999	0.001512	-0.000792	-0.001512	0.999999	-0.000268	0.000792	0.000269	1.000000
04930	0.233642	0.108077	9.834681	0.000785	0.003578	-0.003187	0.999999	0.001500	-0.000811	-0.001500	0.999999	-0.000271	0.000811	0.000272	1.000000
04931	0.217985	0.098993	9.805152	0.000107	0.002124	-0.000590	0.999999	0.001518	-0.000815	-0.001518	0.999999	-0.000287	0.000814	0.000289	1.000000
04932	0.232944	0.111166	9.894421	0.002140	0.002687	-0.001512	0.999999	0.001523	-0.000824	-0.001523	0.999999	-0.000277	0.000824	0.000278	1.000000
04933	0.211156	0.112905	9.824433	0.002140	0.002687	-0.001512	0.999998	0.001532	-0.000834	-0.001533	0.999999	-0.000271	0.000834	0.000272	1.000000
04934	0.229776	0.075167	9.826348	-0.000445	0.000949	-0.004981	0.999999	0.001502	-0.000827	-0.001502	0.999999	-0.000285	0.000826	0.000287	1.000000
04935	0.220008	0.132793	9.813518	0.000445	0.002851	-0.001889	0.999999	0.001508	-0.000837	-0.001509	0.999999	-0.000296	0.000837	0.000298	1.000000
04936	0.207710	0.079668	9.816092	0.000339	0.000727	-0.001299	0.999999	0.001515	-0.000828	-0.001515	0.999999	-0.000304	0.000827	0.000306	1.000000
04937	0.223164	0.086010	9.785899	0.002373	0.001291	-0.002220	0.999999	0.001510	-0.000825	-0.001511	0.999999	-0.000298	0.000824	0.000299	1.000000
04938	0.210431	0.113217	9.824445	-0.001695	0.000164	-0.000377	0.999999	0.001526	-0.000809	-0.001526	0.999999	-0.000327	0.000809	0.000328	1.000000
04939	0.238353	0.095236	9.815439	0.002711	0.002018	-0.003518	0.999999	0.001515	-0.000812	-0.001515	0.999999	-0.000314	0.000812	0.000315	1.000000
04940	0.210080	0.113432	9.824450	0.000445	0.002851	-0.001889	0.999999	0.001516	-0.000824	-0.001516	0.999999	-0.000321	0.000823	0.000322	1.000000
04941	0.206983	0.080197	9.816103	0.002372	0.001291	-0.002220	0.999999	0.001516	-0.000821	-0.001516	0.999999	-0.000311	0.000820	0.000313	1.000000
04942	0.209668	0.113717	9.824455	0.000445	0.002851	-0.001889	0.999999	0.001517	-0.000832	-0.001517	0.999999	-0.000318	0.000832	0.000319	1.000000
04943	0.231283	0.109573	9.834720	0.005655	-0.001159	-0.000875	0.999998	0.001535	-0.000803	-0.001535	0.999999	-0.000277	0.000803	0.000278	1.000000
04944	0.215808	0.100487	9.805185	-0.004639	0.003341	-0.003021	0.999999	0.001523	-0.000819	-0.001524	0.999999	-0.000334	0.000819	0.000336	1.000000
04945	0.206331	0.080643	9.816113	0.003495	0.001797	0.000164	0.999998	0.001550	-0.000821	-0.001550	0.999999	-0.000313	0.000820	0.000314	1.000000
04946	0.237237	0.096303	9.815456	0.002838	-0.001502	-0.003636	0.999999	0.001534	-0.000789	-0.001534	0.999999	-0.000296	0.000788	0.000297	1.000000
04947	0.224595	0.123556	9.853993	-0.001356	0.000891	-0.001676	0.999999	0.001544	-0.000780	-0.001544	0.999999	-0.000323	0.000779	0.000324	1.000000
04948	0.199831	0.094664	9.835382	0.002140	0.002688	-0.001512	0.999998	0.001549	-0.000790	-0.001549	0.999999	-0.000313	0.000789	0.000314	1.000000
04949	0.208855	0.114681	9.824461	0.002372	0.001291	-0.002220	0.999998	0.001550	-0.000786	-0.001551	0.999999	-0.000305	0.000785	0.000306	1.000000
04950	0.236790	0.096788	9.815462	0.000339	0.000727	-0.001299	0.999998	0.001557	-0.000776	-0.001557	0.999999	-0.000313	0.000775	0.000314	1.000000
04951	0.205760	0.081493	9.816118	0.000678	0.001455	-0.002597	0.999998	0.001551	-0.000774	-0.001551	0.999999	-0.000320	0.000774	0.000322	1.000000
04952	0.208535	0.114926	9.824465	0.000339	0.000727	-0.001299	0.999998	0.001558	-0.000765	-0.001558	0.999999	-0.000328	0.000764	0.000330	1.000000
04953	0.220913	0.090830	9.845658	0.002372	0.001291	-0.002220	0.999998	0.001559	-0.000761	-0.001559	0.999999	-0.000320	0.000760	0.000321	1.000000
04954	0.214394	0.101612	9.805204	0.000318	0.006371	-0.001772	0.999998	0.001562	-0.000807	-0.001562	0.999999	-0.000328	0.000807	0.000329	1.000000
04955	0.204892	0.081868	9.816133	0.000572	-0.000669	-0.002007	0.999998	0.001566	-0.000783	-0.001567	0.999999	-0.000336	0.000782	0.000338	1.000000
04956	0.214140	0.101738	9.805209	0.000911	0.000058	-0.003305	0.999999	0.001553	-0.000767	-0.001553	0.999999	-0.000338	0.000766	0.000339	1.000000
04957	0.192251	0.106184	9.794941	-0.000911	0.003742	-0.003565	0.999999	0.001534	-0.000789	-0.001534	0.999999	-0.000364	0.000788	0.000365	1.000000
04958	0.222789	0.124522	9.854022	0.001695	-0.000163	0.000377	0.999998	0.001557	-0.000770	-0.001558	0.999999	-0.000359	0.000769	0.000360	1.000000
04959	0.235399	0.097384	9.815489	-0.001017	0.001618	-0.002975	0.999998	0.001554	-0.000768	-0.001555	0.999999	-0.000386	0.000767	0.000388	1.000000
04960	0.188723	0.076051	9.846332	0.005528	0.002362	-0.000757	0.999998	0.001568	-0.000774	-0.001568	0.999999	-0.000343	0.000774	0.000344	1.000000
04961	0.191585	0.106763	9.794948	0.000106	0.002124	-0.000591	0.999998	0.001583	-0.000779	-0.001583	0.999999	-0.000355	0.000778	0.000357	1.000000
04962	0.228356	0.111524	9.834766	0.000783	0.003578	-0.003188	0.999998	0.001571	-0.000798	-0.001572	0.999999	-0.000359	0.000797	0.000360	1.000000
04963	0.234486	0.097997	9.815505	0.000339	0.000727	-0.001299	0.999998	0.001576	-0.000790	-0.001576	0.999999	-0.000368	0.000789	0.000370	1.000000
04964	0.215545	0.135784	9.813576	-0.001017	0.001618	-0.002975	0.999998	0.001566	-0.000789	-0.001566	0.999999	-0.000390	0.000788	0.000391	1.000000
04965	0.197038	0.096366	9.835422	0.004300	-0.000268	-0.002550	0.999998	0.001575	-0.000766	-0.001576	0.999999	-0.000360	0.000766	0.000361	1.000000
04966	0.227890	0.111843	9.834774	-0.001928	0.001559	0.000330	0.999998	0.001598	-0.000765	-0.001598	0.999999	-0.000391	0.000764	0.000392	1.000000
04967	0.190525	0.109907	9.854691	-0.001568	0.000442	-0.007365	0.999999	0.001547	-0.000753	-0.001547	0.999999	-0.000420	0.000752	0.000421	1.000000
04968	0.190922	0.106887	9.794960	-0.000296	-0.004416	-0.011496	0.999999	0.001451	-0.000692	-0.001451	0.999999	-0.000431	0.000692	0.000432	1.000000
04969	0.250025	0.107164	9.845040	-0.000530	-0.003019	-0.010788	0.999999	0.001367	-0.000646	-0.001367	0.999999	-0.000448	0.000646	0.000449	1.000000
04970	0.213195	0.102348	9.805223	-0.001674	-0.001681	-0.006775	0.999999	0.001318	-0.000613	-0.001318	0.999999	-0.000475	0.000612	0.000475	1.000000
04971	0.231745	0.064504	9.807160	0.000866	0.007547	0.002619	0.999999	0.001368	-0.000671	-0.001368	0.999999	-0.000482	0.000670	0.000483	1.000000
04972	0.205637	0.115888	9.824515	-0.000957	0.011230	0.002359	0.999999	0.001412	-0.000765	-0.001412	0.999999	-0.000504	0.000765	0.000505	1.000000
04973	0.211057	0.102259	9.805270	0.000082	0.007768	-0.001064	0.999999	0.001417	-0.000828	-0.001418	0.999999	-0.000517	0.000827	0.000519	1.000000
04974	0.201353	0.082522	9.816201	0.001016	0.002182	-0.003896	0.999999	0.001398	-0.000833	-0.001399	0.999999	-0.000518	0.000832	0.000519	1.000000
04975	0.219388	0.125015	9.854092	-0.002140	0.001112	-0.005359	0.999999	0.001364	-0.000828	-0.001364	0.999999	-0.000553	0.000827	0.000554	1.000000
04976	0.189081	0.106750	9.794997	0.002884	-0.008988	-0.009559	0.999999	0.001287	-0.000722	-0.001288	0.999999	-0.000533	0.000721	0.000534	1.000000
04977	0.165289	0.081164	9.836083	0.005383	-0.011216	-0.011896	0.999999	0.001196	-0.000592	-0.001197	0.999999	-0.000491	0.000592	0.000492	1.000000
04978	0.256448	0.094434	9.825764	0.004300	-0.015409	-0.027074	0.999999	0.000945	-0.000424	-0.000945	0.999999	-0.000453	0.000423	0.000454	1.000000
04979	0.208094	0.117228	9.824447	0.002459	-0.013682	-0.014067	1.000000	0.000821	-0.000272	-0.000821	1.000000	-0.000442	0.000272	0.000442	1.000000
04980	0.215947	0.104101	9.805144	0.006100	-0.017246	-0.020418	1.000000	0.000636	-0.000084	-0.000636	1.000000	-0.000387	0.000084	0.000387	1.000000
04981	0.097338	0.047218	9.867461	0.029053	-0.087682	0.020505	0.999999	0.000863	0.000812	-0.000863	1.000000	-0.000119	-0.000813	0.000119	1.000000
04982	0.492620	0.205308	9.760380	0.047171	-0.149385	0.064919	0.999996	0.001529	0.002330	-0.001529	0.999999	0.000324	-0.002329	-0.000327	0.999997
04983	0.110094	-0.013536	9.850624	0.000193	0.011837	-0.014927	0.999997	0.001402	0.002227	-0.001403	0.999999	0.000314	-0.002227	-0.000317	0.999997
04984	0.196719	-0.033713	9.831782	0.008294	-0.004744	-0.055935	0.999997	0.000864	0.002286	-0.000865	1.000000	0.000400	-0.002286	-0.000402	0.999997
04985	0.134643	-0.254673	9.812958	0.009040	-0.021844	-0.102833	0.999997	-0.000146	0.002510	0.000145	1.000000	0.000503	-0.002510	-0.000503	0.999997
04986	0.277628	-0.340691	9.827379	-0.000070	-0.023383	-0.233490	0.999993	-0.002463	0.002737	0.002461	0.999997	0.000554	-0.002738	-0.000548	0.999996
04987	0.302748	0.112496	9.794543	-0.001297	-0.012802	-0.382196	0.999976	-0.006264	0.002842	0.006263	0.999980	0.000630	-0.002846	-0.000612	0.999996
04988	0.338891	0.577800	9.850982	-0.008999	0.004668	-0.277810	0.999955	-0.009024	0.002783	0.009022	0.999959	0.000604	-0.002788	-0.000579	0.999996
04989	0.274234	0.432627	9.808403	-0.004115	0.013912	-0.138670	0.999942	-0.010398	0.002644	0.010396	0.999946	0.000584	-0.002650	-0.000557	0.999996
04990	0.264753	0.254364	9.807462	-0.013565	0.049637	-0.035356	0.999940	-0.010730	0.002161	0.010729	0.999942	0.000446	-0.002166	-0.000423	0.999998
04991	0.241598	0.102631	9.845057	-0.010759	0.036163	-0.004398	0.999941	-0.010745	0.001818	0.010744	0.999942	0.000324	-0.001822	-0.000305	0.999998
04992	0.268816	0.117339	9.844429	-0.010381	0.034923	0.007573	0.999942	-0.010649	0.001487	0.010648	0.999943	0.000207	-0.001489	-0.000191	0.999999
04993	0.286163	0.141955	9.803480	-0.023586	0.108186	-0.005625	0.999943	-0.010679	0.000422	0.010679	0.999943	-0.000043	-0.000421	0.000047	1.000000
04994	0.142005	0.104409	9.844950	-0.008427	0.060501	-0.002829	0.999943	-0.010684	-0.000166	0.010684	0.999943	-0.000138	0.000168	0.000136	1.000000
04995	0.300802	-0.065932	9.834199	-0.001960	0.055496	-0.012817	0.999942	-0.010786	-0.000705	0.010786	0.999942	-0.000170	0.000707	0.000162	1.000000
04996	0.406122	-0.277905	9.865297	-0.001589	0.027710	-0.037104	0.999938	-0.011135	-0.000969	0.011135	0.999938	-0.000189	0.000971	0.000178	1.000000
04997	0.231612	-0.020520	9.811850	-0.007269	0.019227	-0.041565	0.999933	-0.011531	-0.001149	0.011531	0.999933	-0.000268	0.001152	0.000254	0.999999
04998	0.335175	0.002194	9.831216	-0.003990	0.008154	0.046511	0.999938	-0.011047	-0.001209	0.011047	0.999939	-0.000330	0.001212	0.000317	0.999999
04999	0.023087	0.381395	9.830839	0.002335	0.013576	0.121241	0.999951	-0.009805	-0.001314	0.009805	0.999952	-0.000351	0.001317	0.000338	0.999999
05000	0.128992	0.133158	9.793793	0.001821	0.014687	0.096589	0.999960	-0.008818	-0.001434	0.008818	0.999961	-0.000367	0.001438	0.000354	0.999999
05001	0.128778	0.246755	9.838080	-0.002259	0.013411	0.118095	0.999970	-0.007610	-0.001539	0.007609	0.999971	-0.000430	0.001542	0.000419	0.999999
05002	0.191006	0.197351	9.800945	-0.001566	0.007276	0.129239	0.999979	-0.006298	-0.001582	0.006297	0.999980	-0.000487	0.001585	0.000477	0.999999
05003	0.175271	0.190585	9.831126	-0.002571	0.001431	0.120337	0.999986	-0.005078	-0.001570	0.005077	0.999987	-0.000557	0.001572	0.000549	0.999999
05004	0.178115	0.223688	9.839468	0.000271	-0.001750	0.090637	0.999990	-0.004153	-0.001526	0.004152	0.999991	-0.000587	0.001529	0.000580	0.999999
05005	0.171751	0.045936	9.838230	-0.001099	-0.010212	0.044293	0.999992	-0.003688	-0.001403	0.003688	0.999993	-0.000624	0.001405	0.000619	0.999999
05006	0.134270	-0.070062	9.813801	-0.003168	-0.016460	0.013342	0.999993	-0.003538	-0.001220	0.003537	0.999994	-0.000671	0.001222	0.000666	0.999999
05007	0.129907	-0.056647	9.833029	0.000322	-0.025974	-0.017888	0.999993	-0.003702	-0.000946	0.003702	0.999993	-0.000680	0.000948	0.000677	0.999999
05008	0.282375	0.144032	9.833669	-0.029446	-0.034924	-0.013079	0.999993	-0.003824	-0.000580	0.003823	0.999992	-0.000983	0.000584	0.000981	0.999999
05009	0.230200	0.096548	9.815621	-0.028179	-0.026617	0.020586	0.999993	-0.003612	-0.000297	0.003612	0.999993	-0.001285	0.000302	0.001284	0.999999
05010	0.252162	0.057187	9.817484	-0.003104	-0.031948	0.080151	0.999996	-0.002795	0.000046	0.002795	0.999995	-0.001347	-0.000042	0.001347	0.999999
05011	0.295054	0.277680	9.707026	0.004660	0.001956	0.093890	0.999998	-0.001833	0.000052	0.001833	0.999997	-0.001338	-0.000049	0.001338	0.999999
05012	0.245320	0.229629	9.848936	0.026091	0.006329	0.080666	0.999999	-0.001000	0.000012	0.001000	0.999999	-0.001109	-0.000011	0.001109	0.999999
05013	0.190417	0.107387	9.794964	0.030153	0.005634	0.072425	1.000000	-0.000248	-0.000021	0.000248	1.000000	-0.000842	0.000021	0.000842	1.000000
05014	0.208164	0.152802	9.832811	0.029850	0.003187	0.047661	1.000000	0.000255	-0.000031	-0.000255	1.000000	-0.000567	0.000031	0.000567	1.000000
05015	0.151235	0.161013	9.902096	0.026618	-0.047450	0.038498	1.000000	0.000667	0.000464	-0.000666	1.000000	-0.000323	-0.000465	0.000323	1.000000
05016	0.132621	0.114967	10.054159	0.121980	-0.137023	0.052890	0.999998	0.001231	0.001857	-0.001232	0.999999	0.000871	-0.001856	-0.000873	0.999998
05017	0.213577	0.238487	9.968331	0.249348	-0.252212	0.095987	0.999988	0.002250	0.004410	-0.002265	0.999992	0.003323	-0.004402	-0.003333	0.999985
05018	0.397690	0.294070	9.875355	0.346181	-0.269105	0.193724	0.999965	0.004251	0.007147	-0.004299	0.999968	0.006713	-0.007118	-0.006744	0.999952
05019	0.322872	0.196746	10.031373	0.444646	-0.249362	0.215175	0.999932	0.006490	0.009700	-0.006597	0.999917	0.011071	-0.009627	-0.011134	0.999892
05020	0.473920	0.373170	9.880278	0.494180	-0.304842	0.264446	0.999875	0.009202	0.012828	-0.009406	0.999829	0.015904	-0.012679	-0.016022	0.999791
05021	0.518801	0.418784	9.726964	0.514875	-0.299085	0.328347	0.999795	0.012537	0.015927	-0.012869	0.999699	0.020908	-0.015660	-0.021108	0.999655
05022	0.529660	0.354660	9.831707	0.492013	-0.256783	0.385775	0.999691	0.016445	0.018641	-0.016920	0.999528	0.025650	-0.018211	-0.025958	0.999497
05023	0.483057	0.397331	9.869866	0.444050	-0.265687	0.401912	0.999559	0.020498	0.021470	-0.021136	0.999330	0.029893	-0.020843	-0.030334	0.999322
05024	0.602086	0.376135	9.940025	0.403815	-0.278936	0.396551	0.999402	0.024458	0.024443	-0.025276	0.999111	0.033726	-0.023596	-0.034323	0.999132
05025	0.574675	0.619885	10.170053	0.383756	-0.398346	0.347916	0.999202	0.027866	0.028601	-0.028927	0.998883	0.037363	-0.027528	-0.038161	0.998892
05026	0.302136	0.521301	10.336659	0.439138	-0.572718	0.308591	0.998931	0.030785	0.034493	-0.032210	0.998617	0.041562	-0.033165	-0.042629	0.998540
05027	0.236504	0.571546	10.386401	0.446218	-0.674961	0.211487	0.998610	0.032673	0.041369	-0.034564	0.998349	0.045871	-0.039802	-0.047237	0.998090
05028	0.765433	0.575649	10.186019	0.356734	-0.694020	0.129188	0.998261	0.033658	0.048387	-0.036044	0.998132	0.049328	-0.046636	-0.050987	0.997610
05029	1.046578	0.586776	10.059915	0.322231	-0.720897	0.210331	0.997817	0.035426	0.055730	-0.038354	0.997891	0.052370	-0.053758	-0.054393	0.997071
05030	1.141190	0.827609	10.237383	0.337619	-0.737387	0.344435	0.997252	0.038474	0.063318	-0.042006	0.997578	0.055434	-0.061032	-0.057941	0.996453
05031	1.218128	1.002305	10.300652	0.316296	-0.697248	0.436563	0.996603	0.042450	0.070577	-0.046596	0.997218	0.058177	-0.067911	-0.061268	0.995808
05032	1.254359	0.893542	10.166348	0.252274	-0.550272	0.379449	0.996025	0.045911	0.076336	-0.050573	0.996898	0.060304	-0.073330	-0.063925	0.995257
05033	1.232063	0.518386	9.856865	0.284547	-0.375794	0.404901	0.995521	0.049762	0.080389	-0.054876	0.996522	0.062703	-0.076989	-0.066833	0.994789
05034	0.962226	0.658701	10.073603	0.335834	-0.287198	0.423139	0.995045	0.053849	0.083580	-0.059413	0.996077	0.065575	-0.079721	-0.070216	0.994341
05035	0.921412	0.860376	10.265521	0.314006	-0.169745	0.314062	0.994707	0.056942	0.085535	-0.062875	0.995679	0.068345	-0.081274	-0.073361	0.993988
05036	0.953356	0.969643	9.978391	0.343780	0.032663	0.206999	0.994591	0.059130	0.085400	-0.065313	0.995299	0.071512	-0.080770	-0.076703	0.993777
05037	0.961680	1.025877	9.931394	0.387841	0.285731	0.101885	0.994738	0.060509	0.082672	-0.066773	0.994928	0.075231	-0.077701	-0.080355	0.993733
05038	1.072164	1.042246	9.821236	0.447925	0.458264	0.089591	0.995009	0.061949	0.078227	-0.068172	0.994496	0.079560	-0.072868	-0.084496	0.993756
05039	0.905061	0.997653	10.064356	0.455307	0.520761	0.022770	0.995345	0.062807	0.073105	-0.068899	0.994078	0.084035	-0.067394	-0.088680	0.993778
05040	0.928753	1.044168	10.078965	0.389348	0.501686	-0.143502	0.995756	0.061998	0.068013	-0.067888	0.993803	0.088014	-0.062135	-0.092258	0.993795
05041	1.118815	0.989985	9.986218	0.378512	0.364993	-0.121775	0.996048	0.061279	0.064294	-0.067053	0.993512	0.091863	-0.058248	-0.095811	0.993694
05042	1.047292	1.004175	9.961185	0.383379	0.072842	0.049921	0.996047	0.061964	0.063651	-0.067890	0.993101	0.095607	-0.057287	-0.099551	0.993382
05043	1.017532	1.032351	9.919688	0.332177	-0.250467	0.168763	0.995777	0.063458	0.066342	-0.069838	0.992660	0.098739	-0.059589	-0.102955	0.992899
05044	1.122763	1.061667	9.826974	0.279344	-0.544775	0.272053	0.995239	0.065617	0.072068	-0.072748	0.992198	0.101244	-0.064863	-0.106004	0.992248
05045	1.102617	1.013668	9.662365	0.279898	-0.727578	0.396851	0.994439	0.068781	0.079747	-0.076896	0.991641	0.103611	-0.071954	-0.109167	0.991416
05046	0.963407	1.062889	9.745669	0.314576	-0.888804	0.498907	0.993359	0.072740	0.089144	-0.082092	0.990953	0.106174	-0.080614	-0.112787	0.990344
05047	1.026658	1.025710	9.715727	0.310932	-0.998779	0.508840	0.992069	0.076624	0.099641	-0.087393	0.990232	0.108639	-0.090343	-0.116485	0.989075
05048	1.056883	1.084196	9.693716	0.351425	-0.968376	0.422554	0.990763	0.079660	0.109736	-0.091914	0.989498	0.111556	-0.099697	-0.120612	0.987681
05049	1.225442	1.159053	9.785529	0.348974	-0.848598	0.243679	0.989649	0.081046	0.118429	-0.094703	0.988881	0.114651	-0.107820	-0.124680	0.986321
05050	1.449254	1.178564	9.806701	0.371218	-0.745771	0.143344	0.988675	0.081550	0.125981	-0.096565	0.988297	0.118085	-0.114877	-0.128913	0.984980
05051	1.470851	1.181076	9.681487	0.375757	-0.633233	0.017613	0.987905	0.080941	0.132259	-0.097229	0.987788	0.121739	-0.120791	-0.133126	0.983711
05052	1.506733	1.236428	9.514342	0.368991	-0.537473	-0.113147	0.987346	0.079153	0.137416	-0.096625	0.987373	0.125528	-0.125745	-0.137217	0.982527
05053	1.459712	1.106028	9.371925	0.298645	-0.529151	-0.114502	0.986773	0.077328	0.142477	-0.095921	0.987043	0.128632	-0.130684	-0.140597	0.981404
05054	1.710343	1.142478	9.247514	0.300579	-0.585801	-0.025176	0.986010	0.076278	0.148208	-0.096108	0.986632	0.131606	-0.136188	-0.144009	0.980160
05055	1.834967	1.288056	9.333869	0.279178	-0.567499	0.073824	0.985144	0.076209	0.153892	-0.097252	0.986171	0.134196	-0.141537	-0.147169	0.978932
05056	1.748145	1.349389	9.602130	0.226691	-0.521089	0.100460	0.984289	0.076445	0.159156	-0.098585	0.985761	0.136218	-0.146477	-0.149769	0.977811
05057	1.825140	1.509083	9.763947	0.212326	-0.521989	0.100541	0.983406	0.076664	0.164423	-0.099905	0.985368	0.138093	-0.151431	-0.152228	0.976676
05058	1.912617	1.499724	9.781561	0.190719	-0.482963	0.118434	0.982538	0.077103	0.169333	-0.101374	0.984989	0.139715	-0.156018	-0.154441	0.975606
05059	1.994894	1.493906	9.726680	0.181990	-0.436779	0.142049	0.981696	0.077839	0.173824	-0.103071	0.984601	0.141197	-0.160156	-0.156529	0.974602
05060	2.256718	1.233636	9.494018	0.208543	-0.382815	0.245524	0.980809	0.079677	0.177946	-0.105837	0.984088	0.142722	-0.163743	-0.158816	0.973635
05061	2.116363	1.259529	9.554920	0.185194	-0.307821	0.282027	0.979987	0.081987	0.181394	-0.108929	0.983574	0.143933	-0.166613	-0.160811	0.972820
05062	2.107425	1.230299	9.479529	0.176696	-0.278657	0.286269	0.979191	0.084377	0.184566	-0.112049	0.983060	0.145042	-0.169201	-0.162704	0.972059
05063	1.820658	1.161943	9.517282	0.155172	-0.334316	0.312122	0.978255	0.086914	0.188318	-0.115378	0.982552	0.145878	-0.172353	-0.164434	0.971214
05064	1.884817	1.140033	9.406726	0.235220	-0.449516	0.355967	0.977040	0.089688	0.193258	-0.119282	0.981861	0.147380	-0.176534	-0.167049	0.970016
05065	1.962215	1.321407	9.510217	0.283637	-0.476809	0.399352	0.975698	0.092727	0.198532	-0.123601	0.981046	0.149234	-0.180931	-0.170146	0.968666
05066	2.223468	1.504077	9.522379	0.279761	-0.402689	0.416830	0.974421	0.096159	0.203119	-0.128201	0.980188	0.150986	-0.184576	-0.173164	0.967443
05067	2.151159	1.473889	9.586027	0.314096	-0.309844	0.408962	0.973305	0.099554	0.206801	-0.132686	0.979268	0.153063	-0.187276	-0.176417	0.966336
05068	2.165863	1.497312	9.641352	0.319839	-0.274055	0.368003	0.972273	0.102727	0.210077	-0.136917	0.978338	0.155272	-0.189576	-0.179730	0.965276
05069	2.188651	1.554677	9.771316	0.369020	-0.239375	0.311231	0.971377	0.105294	0.212933	-0.140594	0.977367	0.158071	-0.191470	-0.183483	0.964196
05070	2.559268	1.627617	9.799167	0.368155	-0.328917	0.248632	0.970370	0.107180	0.216551	-0.143777	0.976426	0.160997	-0.194191	-0.187362	0.962905
05071	2.735508	1.386158	9.541605	0.429510	-0.481659	0.349831	0.968908	0.109619	0.221815	-0.147941	0.975261	0.164253	-0.198322	-0.191961	0.961155
05072	2.586341	1.400858	9.499769	0.529420	-0.638812	0.444943	0.966928	0.112781	0.228759	-0.153370	0.973749	0.168198	-0.203785	-0.197720	0.958842
05073	2.706692	1.520713	9.285021	0.568155	-0.779542	0.535770	0.964462	0.116368	0.237215	-0.159643	0.972034	0.172234	-0.210538	-0.203983	0.956067
05074	2.850579	1.558869	9.322866	0.557950	-0.833781	0.621181	0.961634	0.120727	0.246342	-0.166855	0.970167	0.175885	-0.217759	-0.210240	0.953090
05075	2.832586	1.653641	9.260441	0.505106	-0.841222	0.627678	0.958692	0.124925	0.255545	-0.173886	0.968371	0.178945	-0.225108	-0.215989	0.950092
05076	2.913064	1.700331	9.172208	0.472155	-0.819271	0.611094	0.955708	0.129079	0.264501	-0.180828	0.966591	0.181669	-0.232215	-0.221452	0.947120
05077	2.925468	1.727032	9.107345	0.491574	-0.739859	0.619349	0.952816	0.133294	0.272716	-0.187764	0.964734	0.184483	-0.238508	-0.226984	0.944241
05078	2.990939	1.762702	9.324944	0.527398	-0.607165	0.532651	0.950303	0.137100	0.279515	-0.194152	0.962822	0.187827	-0.243372	-0.232760	0.941590
05079	3.205954	2.006645	9.315020	0.557518	-0.449451	0.349528	0.948501	0.139360	0.284474	-0.198778	0.961061	0.191961	-0.246645	-0.238623	0.939269
05080	3.597762	1.906877	9.059847	0.633032	-0.274531	0.264594	0.947250	0.141367	0.287633	-0.202972	0.959157	0.197029	-0.248032	-0.245017	0.937255
05081	3.303600	1.808502	9.233974	0.736384	-0.229496	0.318723	0.946001	0.143846	0.290499	-0.207800	0.956904	0.202866	-0.248798	-0.252277	0.935124
05082	3.060221	1.711782	9.190682	0.734731	-0.295983	0.272643	0.944644	0.145845	0.293900	-0.212350	0.954624	0.208807	-0.250111	-0.259658	0.932750
05083	3.246236	1.752750	9.058754	0.660450	-0.362537	0.236418	0.943210	0.147116	0.297845	-0.216201	0.952574	0.214151	-0.252214	-0.266384	0.930284
05084	3.954789	1.552391	8.540013	0.723513	-0.418390	0.475720	0.941056	0.150641	0.302855	-0.222629	0.949923	0.219276	-0.254657	-0.273776	0.927468
05085	3.673147	1.624046	8.513228	0.888370	-0.482146	0.878567	0.937778	0.157613	0.309404	-0.233108	0.946172	0.224543	-0.257359	-0.282696	0.924040
05086	3.298440	2.196195	9.014577	0.928986	-0.529642	0.982827	0.933983	0.165518	0.316670	-0.244824	0.941956	0.229739	-0.260263	-0.292101	0.920294
05087	3.641956	2.572026	9.117779	0.936586	-0.476270	0.949428	0.930309	0.173033	0.323397	-0.256094	0.937648	0.235013	-0.262568	-0.301455	0.916615
05088	3.718260	2.808229	9.278893	0.993250	-0.400591	0.924630	0.926748	0.180627	0.329413	-0.267435	0.933005	0.240790	-0.263851	-0.311248	0.912966
05089	3.801546	2.974669	9.414806	1.050058	-0.392004	0.932856	0.923102	0.188093	0.335415	-0.278834	0.928043	0.246957	-0.264829	-0.321492	0.909125
05090	3.588591	3.110164	9.539413	1.136129	-0.428106	0.916575	0.919257	0.195373	0.341754	-0.290460	0.922599	0.253856	-0.265705	-0.332625	0.904854
05091	3.531774	2.955790	9.585327	1.202586	-0.511533	0.758490	0.915591	0.200644	0.348475	-0.300625	0.917101	0.261822	-0.267054	-0.344482	0.900008
05092	3.660547	2.598086	9.296817	1.236543	-0.593506	0.547685	0.912232	0.203786	0.355393	-0.309143	0.911656	0.270765	-0.268818	-0.356868	0.894641
05093	3.735325	2.626831	8.865129	1.290288	-0.586566	0.458922	0.909151	0.205881	0.362019	-0.316845	0.906078	0.280414	-0.270286	-0.369643	0.888994
05094	3.863729	2.667594	8.653594	1.314352	-0.502160	0.480980	0.906138	0.208575	0.367982	-0.324994	0.900128	0.290084	-0.270726	-0.382448	0.883426
05095	4.395265	2.749012	8.200326	1.226037	-0.346925	0.489168	0.903520	0.211676	0.372618	-0.332787	0.894394	0.298851	-0.270008	-0.394020	0.878546
05096	4.146191	2.572006	8.222901	1.171515	-0.202141	0.672961	0.900587	0.217088	0.376586	-0.342217	0.888283	0.306333	-0.268014	-0.404754	0.874267
05097	3.636033	2.620517	8.388967	1.047046	-0.367598	0.863198	0.896537	0.223211	0.382621	-0.352754	0.882203	0.311901	-0.267929	-0.414602	0.869666
05098	3.685274	2.921375	8.324956	1.003972	-0.476354	0.991815	0.891594	0.230072	0.390035	-0.364439	0.875803	0.316470	-0.268783	-0.424307	0.864708
05099	3.710817	3.247159	8.458933	0.968568	-0.496895	0.911750	0.886822	0.235872	0.397381	-0.375118	0.869643	0.320947	-0.269878	-0.433688	0.859698
05100	3.992429	3.406529	8.375530	0.927624	-0.522191	0.832961	0.882143	0.240925	0.404696	-0.385106	0.863641	0.325295	-0.271141	-0.442807	0.854637
05101	4.051979	3.430084	8.362509	0.912315	-0.618252	0.840360	0.877137	0.245315	0.412856	-0.394897	0.857653	0.329373	-0.273288	-0.451941	0.849154
05102	4.118224	3.265227	8.118930	0.940705	-0.630608	0.825523	0.872006	0.249603	0.421075	-0.404800	0.851367	0.333633	-0.275213	-0.461381	0.843437
05103	4.065849	3.182475	8.043479	0.956248	-0.540460	0.805834	0.867160	0.253862	0.428471	-0.414382	0.845016	0.337989	-0.276262	-0.470641	0.837960
05104	4.058470	3.339192	8.296799	0.841724	-0.470725	0.703825	0.862814	0.257662	0.434928	-0.422900	0.839262	0.341752	-0.276962	-0.478799	0.833093
05105	4.203284	3.527428	8.403338	0.681381	-0.464615	0.604270	0.858922	0.260376	0.440972	-0.429891	0.834543	0.344574	-0.278291	-0.485532	0.828741
05106	4.369125	3.690798	8.371264	0.613827	-0.463760	0.512218	0.855339	0.262443	0.446676	-0.436060	0.830240	0.347207	-0.279726	-0.491757	0.824578
05107	4.160366	3.706169	8.248850	0.728395	-0.387966	0.425955	0.852359	0.263953	0.451456	-0.441647	0.825629	0.351118	-0.280057	-0.498663	0.820307
05108	4.248288	3.984770	8.173277	0.838131	-0.251207	0.226881	0.850551	0.264703	0.454418	-0.446070	0.820801	0.356802	-0.278540	-0.506180	0.816209
05109	4.452291	3.818336	8.196292	0.926334	-0.072731	0.063280	0.850010	0.264851	0.455342	-0.449192	0.815956	0.363926	-0.275152	-0.513877	0.812540
05110	4.839857	3.611553	8.085692	1.057411	0.003927	0.084148	0.849509	0.265769	0.455743	-0.453019	0.810198	0.371959	-0.270387	-0.522442	0.808669
05111	4.775939	3.518595	8.041826	1.078637	-0.050901	0.225716	0.848273	0.267318	0.457136	-0.457847	0.803988	0.379447	-0.266099	-0.531173	0.804392
05112	4.797185	3.526207	8.007234	0.974330	-0.186123	0.418328	0.845727	0.269832	0.460366	-0.464140	0.797647	0.385140	-0.263287	-0.539397	0.799832
05113	4.740077	3.739824	7.847556	0.824357	-0.278354	0.550721	0.842372	0.272628	0.464847	-0.470904	0.791807	0.388961	-0.262028	-0.546549	0.795378
05114	4.770906	3.686432	7.693420	0.700666	-0.273874	0.558353	0.838912	0.275617	0.469320	-0.477528	0.786463	0.391718	-0.261139	-0.552730	0.791388
05115	4.547408	3.705405	7.746414	0.629263	-0.298195	0.630427	0.835075	0.278785	0.474266	-0.484349	0.781379	0.393514	-0.260876	-0.558324	0.787539
05116	4.259291	3.683829	7.683237	0.575482	-0.393134	0.653189	0.830782	0.281715	0.480040	-0.491347	0.776383	0.394725	-0.261495	-0.563796	0.783425
05117	4.452558	3.665231	7.682289	0.601029	-0.438546	0.586418	0.826722	0.283622	0.485890	-0.497656	0.771491	0.396409	-0.262429	-0.569526	0.778955
05118	4.611383	4.026988	7.605928	0.732129	-0.448934	0.527978	0.822804	0.285186	0.491591	-0.504021	0.765833	0.399328	-0.262593	-0.576341	0.773871
05119	4.973096	4.188068	7.511515	0.816644	-0.326643	0.409594	0.819836	0.286323	0.495872	-0.509459	0.760064	0.403428	-0.261384	-0.583371	0.768998
05120	4.991419	4.116641	7.560740	0.792817	-0.253108	0.339181	0.817331	0.287519	0.499303	-0.514428	0.754442	0.407652	-0.259487	-0.590042	0.764537
05121	4.589062	3.780186	7.484072	0.728039	-0.365897	0.386822	0.814355	0.288150	0.503781	-0.519395	0.749150	0.411100	-0.258949	-0.596443	0.759738
05122	4.544714	3.580477	7.267260	0.716544	-0.624014	0.489407	0.810093	0.288118	0.510625	-0.525303	0.743482	0.413873	-0.260397	-0.603508	0.753639
05123	4.889291	3.793621	7.236588	0.691925	-0.781607	0.601272	0.804862	0.287662	0.519084	-0.531835	0.737745	0.415794	-0.263343	-0.610724	0.746771
05124	5.209643	3.924942	7.199159	0.582514	-0.732501	0.634386	0.799459	0.287845	0.527267	-0.538492	0.732420	0.416637	-0.266254	-0.617013	0.740542
05125	5.366199	4.294857	7.446120	0.586393	-0.722025	0.639226	0.794069	0.287843	0.535351	-0.544993	0.727162	0.417396	-0.269142	-0.623203	0.734289
05126	5.615793	4.489977	7.281686	0.700106	-0.807461	0.690349	0.788014	0.287806	0.544244	-0.552385	0.720868	0.418593	-0.271855	-0.630490	0.727034
05127	5.572339	4.568345	7.178658	0.730172	-0.752740	0.613920	0.782533	0.287280	0.552370	-0.559069	0.714679	0.420328	-0.274015	-0.637733	0.719869
05128	5.697771	4.523601	6.978527	0.731705	-0.680589	0.505449	0.777731	0.286563	0.559479	-0.565086	0.708586	0.422591	-0.275341	-0.644816	0.713022
05129	5.834745	4.198525	6.665715	0.701929	-0.585682	0.501405	0.773253	0.286150	0.565861	-0.570787	0.702801	0.424585	-0.276193	-0.651298	0.706773
05130	5.707455	3.889243	6.578059	0.650150	-0.521574	0.533566	0.768658	0.286514	0.571904	-0.576755	0.697078	0.425954	-0.276620	-0.657261	0.701063
05131	5.872958	3.678400	6.541833	0.666280	-0.593277	0.643074	0.763191	0.287092	0.578894	-0.583573	0.690910	0.426715	-0.277457	-0.663492	0.694835
05132	5.827820	3.933185	6.563465	0.655269	-0.652819	0.668824	0.757359	0.287363	0.586370	-0.590518	0.684705	0.427162	-0.278740	-0.669777	0.688261
05133	6.151880	4.107516	6.662672	0.671637	-0.711997	0.675987	0.751264	0.287199	0.594238	-0.597529	0.678330	0.427584	-0.280288	-0.676303	0.681215
05134	5.981671	4.128274	6.778085	0.740026	-0.833857	0.748590	0.744322	0.286597	0.603198	-0.605240	0.671250	0.427911	-0.282259	-0.683583	0.673086
05135	5.732624	4.010956	6.516030	0.795236	-1.034362	0.764708	0.736635	0.284599	0.613492	-0.613184	0.663703	0.428373	-0.285261	-0.691738	0.663418
05136	5.693871	3.835115	6.317709	0.881612	-1.122575	0.767891	0.728574	0.281865	0.624285	-0.621370	0.655494	0.429216	-0.288234	-0.700628	0.652719
05137	6.237310	4.113976	6.118854	0.877112	-1.080345	0.702523	0.720951	0.278849	0.634408	-0.629039	0.647435	0.430275	-0.290757	-0.709275	0.642176
05138	6.399264	4.574667	6.077913	0.740733	-0.873132	0.646358	0.714222	0.276802	0.642859	-0.635869	0.640450	0.430691	-0.292503	-0.716383	0.633433
05139	6.213685	4.531302	6.237195	0.621995	-0.746882	0.594748	0.708148	0.275228	0.650212	-0.641945	0.634420	0.430601	-0.293993	-0.722330	0.625945
05140	6.471602	4.527802	6.249186	0.605047	-0.733153	0.659136	0.701651	0.274073	0.657701	-0.648389	0.628322	0.429887	-0.295427	-0.728077	0.618568
05141	6.576599	4.455703	6.125893	0.656232	-0.693776	0.802497	0.694266	0.274015	0.665516	-0.655947	0.621447	0.428412	-0.296192	-0.733975	0.611189
05142	6.524696	4.424711	6.097454	0.814988	-0.666869	0.953085	0.685865	0.274991	0.673772	-0.664966	0.612962	0.426729	-0.295650	-0.740714	0.603269
05143	6.582363	4.405354	5.963658	0.886912	-0.611703	1.005780	0.677176	0.276578	0.681864	-0.674478	0.603733	0.424955	-0.294130	-0.747671	0.595379
05144	6.701923	4.404579	6.041836	0.877060	-0.571499	0.965027	0.668795	0.278088	0.689478	-0.683589	0.594608	0.423259	-0.292266	-0.754393	0.587769
05145	6.943764	4.273666	5.892414	0.885082	-0.535254	0.888578	0.660971	0.279305	0.696496	-0.692126	0.585549	0.422011	-0.289963	-0.761000	0.580345
05146	6.703765	4.124947	5.693600	0.994227	-0.439263	0.816820	0.653839	0.280741	0.702623	-0.700441	0.575764	0.421755	-0.286141	-0.767906	0.573100
05147	6.671305	3.916008	5.707613	1.117302	-0.384862	0.886510	0.646291	0.282892	0.708717	-0.709471	0.564752	0.421552	-0.280996	-0.775260	0.565697
05148	6.719536	3.947590	5.682186	1.095901	-0.471894	1.074956	0.637091	0.285262	0.716059	-0.719499	0.553310	0.419725	-0.276471	-0.782607	0.557755
05149	6.720657	3.911833	5.274093	0.920783	-0.621137	1.191259	0.626583	0.286904	0.724624	-0.729591	0.542852	0.415943	-0.274028	-0.789302	0.549465
05150	6.976337	4.287552	5.135832	0.655923	-0.638855	1.216236	0.615783	0.288348	0.733258	-0.738927	0.534373	0.410406	-0.273493	-0.794545	0.542126
05151	6.959290	4.377392	5.368222	0.392147	-0.676218	1.074771	0.605879	0.288601	0.741364	-0.746520	0.528354	0.404414	-0.274988	-0.798468	0.535565
05152	7.474773	4.641096	5.511389	0.384560	-0.781007	0.964978	0.596431	0.287347	0.749468	-0.753334	0.522685	0.399109	-0.277053	-0.802641	0.528214
05153	7.961649	4.808826	5.661730	0.430224	-0.868797	0.989255	0.586469	0.285422	0.758016	-0.760333	0.516582	0.393748	-0.279192	-0.807266	0.519975
05154	8.034997	4.559683	5.600540	0.482687	-0.950743	1.033885	0.575841	0.282954	0.767036	-0.767643	0.509937	0.388185	-0.281301	-0.812343	0.510851
05155	8.171086	4.266751	5.513130	0.618074	-1.067024	1.062407	0.564553	0.279564	0.776610	-0.775404	0.502112	0.382926	-0.282893	-0.818369	0.500244
05156	8.046738	3.807533	5.253465	0.812950	-1.195026	1.135978	0.552199	0.275333	0.786936	-0.784022	0.492489	0.377842	-0.283525	-0.825619	0.487819
05157	8.196590	3.382177	4.929164	1.005670	-1.369305	1.166893	0.538978	0.269604	0.798008	-0.793224	0.481175	0.373184	-0.283369	-0.834137	0.473199
05158	8.255103	3.423757	4.473069	1.086982	-1.425200	1.138188	0.525715	0.263020	0.808977	-0.802352	0.469234	0.368849	-0.282585	-0.842994	0.457719
05159	8.071701	3.766390	4.271563	1.001717	-1.303767	1.010281	0.513751	0.256628	0.818658	-0.810425	0.458309	0.364917	-0.281550	-0.850938	0.443435
05160	8.366741	3.906633	4.148010	0.916277	-1.091908	0.882184	0.503368	0.251270	0.826731	-0.817488	0.448401	0.361456	-0.279884	-0.857788	0.431121
05161	8.679618	4.116629	3.789532	0.691800	-0.775512	0.848015	0.494128	0.248332	0.833168	-0.823641	0.440492	0.357186	-0.278303	-0.862727	0.422196
05162	8.104779	4.168468	3.251974	0.461140	-0.394755	0.798897	0.486330	0.248373	0.837731	-0.828824	0.434680	0.352284	-0.276647	-0.865658	0.417256
05163	8.170696	3.984378	3.904272	0.105357	-0.076373	0.684416	0.480382	0.250622	0.840489	-0.832391	0.432206	0.346876	-0.276329	-0.866249	0.416240
05164	8.188478	3.245795	3.866465	-0.140412	-0.101934	0.598226	0.475114	0.252247	0.842993	-0.834803	0.432061	0.341214	-0.278154	-0.865849	0.415855
05165	7.757733	2.770787	1.804775	-0.039599	0.081140	0.606049	0.470239	0.255506	0.844744	-0.837521	0.430999	0.335856	-0.278270	-0.865423	0.416664
05166	6.732263	2.641269	3.635411	-0.019910	0.618191	0.439593	0.468186	0.262723	0.843670	-0.839529	0.430117	0.331948	-0.275667	-0.863699	0.421939
05167	7.590443	3.069584	4.240346	0.214966	-0.046325	0.268780	0.465733	0.263468	0.844794	-0.841385	0.427602	0.330497	-0.274160	-0.864721	0.420826
05168	7.977939	3.411493	2.939423	0.430823	-0.261897	0.613540	0.459740	0.263781	0.847973	-0.845401	0.422369	0.326958	-0.271912	-0.867193	0.417181
05169	7.576753	4.522775	3.484817	0.333467	-0.105818	1.037180	0.450551	0.267150	0.851842	-0.850993	0.416928	0.319347	-0.269843	-0.868793	0.415190
05170	7.724396	4.262120	3.979661	0.205227	-0.238607	1.205211	0.439543	0.269970	0.856690	-0.856846	0.412163	0.309738	-0.269476	-0.870194	0.412486
05171	7.599714	4.075237	3.889062	0.096228	-0.412071	1.251018	0.427641	0.271392	0.862247	-0.862443	0.408214	0.299253	-0.270767	-0.871612	0.408629
05172	7.470109	3.523633	3.651985	0.046493	-0.448580	1.081855	0.417048	0.271764	0.867304	-0.867057	0.405116	0.289989	-0.272550	-0.872941	0.404587
05173	8.344915	2.974506	3.747355	0.071671	-0.445222	0.869020	0.408263	0.271290	0.871621	-0.870773	0.402327	0.282642	-0.273999	-0.874377	0.400487
05174	8.181687	2.282059	3.579646	0.038099	-0.526086	0.776788	0.400036	0.269710	0.875915	-0.873952	0.400075	0.275949	-0.276006	-0.875897	0.395759
05175	8.027912	2.063264	3.095080	0.033828	-0.557929	0.559472	0.393602	0.266980	0.879659	-0.876213	0.398413	0.271140	-0.278079	-0.877490	0.390747
05176	7.917248	2.102669	3.073405	0.002618	-0.421141	0.372401	0.389166	0.264707	0.882315	-0.877641	0.397496	0.267850	-0.279815	-0.878594	0.387010
05177	8.890197	2.272367	3.421669	0.013788	-0.328652	0.420722	0.384544	0.263434	0.884720	-0.879271	0.396366	0.264154	-0.281085	-0.879487	0.384050
05178	8.963069	2.255722	3.805411	-0.016187	-0.353188	0.511574	0.379045	0.262284	0.887430	-0.881132	0.395289	0.259525	-0.282722	-0.880315	0.380939
05179	8.872142	2.824683	4.006341	0.048157	-0.419230	0.558739	0.372919	0.260728	0.890479	-0.883323	0.393535	0.254697	-0.284028	-0.881562	0.377064
05180	9.149566	2.984023	4.144499	0.056661	-0.464487	0.582173	0.366439	0.258844	0.893713	-0.885587	0.391662	0.249671	-0.285407	-0.882950	0.372749
05181	9.533671	3.094314	4.251178	0.067277	-0.516079	0.621498	0.359446	0.256637	0.897182	-0.887983	0.389613	0.244312	-0.286854	-0.884499	0.367934
05182	9.257413	3.118562	4.279181	0.073338	-0.581585	0.670790	0.351804	0.254012	0.900951	-0.890521	0.387411	0.238505	-0.288456	-0.886223	0.362496
05183	8.458676	3.146234	3.946923	0.067434	-0.650934	0.522415	0.345272	0.250186	0.904541	-0.892487	0.385625	0.234011	-0.290268	-0.888088	0.356433
05184	8.307642	3.171218	3.847078	0.069271	-0.634677	0.322138	0.340557	0.245730	0.907545	-0.893757	0.384297	0.231330	-0.291922	-0.889906	0.350498
05185	8.796118	2.514306	3.823849	0.051820	-0.634381	0.185280	0.337063	0.240749	0.910180	-0.894510	0.383440	0.229837	-0.293667	-0.891635	0.344596
05186	9.074633	2.452265	3.675259	0.051519	-0.660946	0.170307	0.333612	0.235459	0.912832	-0.895206	0.382629	0.228474	-0.295480	-0.893395	0.338434
05187	9.213385	2.634622	3.698416	0.078920	-0.625499	0.231603	0.329697	0.230708	0.915464	-0.896181	0.381448	0.226623	-0.296918	-0.895138	0.332518
05188	9.298511	2.519965	3.546035	0.168688	-0.621507	0.434941	0.323932	0.226738	0.918509	-0.898068	0.379047	0.223153	-0.297560	-0.897170	0.326411
05189	9.277441	2.452387	3.294441	0.228634	-0.627444	0.601415	0.316625	0.223309	0.921890	-0.900631	0.375778	0.218299	-0.297677	-0.899402	0.320100
05190	9.106883	2.378422	3.109905	0.261881	-0.609562	0.712442	0.308339	0.220413	0.925389	-0.903588	0.372001	0.212470	-0.297414	-0.901684	0.313865
05191	9.464868	2.400677	3.195231	0.198379	-0.577437	0.799324	0.299354	0.218080	0.928886	-0.906548	0.368641	0.205607	-0.297587	-0.903629	0.308054
05192	9.232356	2.265234	3.133529	0.078743	-0.581520	0.819127	0.290173	0.215735	0.932340	-0.909128	0.366348	0.198180	-0.298807	-0.905123	0.302435
05193	9.251539	2.155982	3.138111	0.012220	-0.563274	0.681889	0.282290	0.213040	0.935375	-0.911053	0.364942	0.191831	-0.300490	-0.906329	0.297110
05194	9.197451	2.074287	3.152563	-0.033894	-0.584326	0.372172	0.277163	0.209032	0.937809	-0.911948	0.364566	0.188260	-0.302541	-0.907412	0.291671
05195	9.081620	2.337178	2.949022	-0.044425	-0.639900	0.168505	0.273726	0.203788	0.939970	-0.912247	0.364678	0.186590	-0.304761	-0.908560	0.285727
05196	9.468093	2.397619	2.921847	-0.105687	-0.649639	0.033298	0.271492	0.197960	0.941862	-0.911989	0.365602	0.186039	-0.307518	-0.909476	0.279796
05197	9.479319	2.761389	2.958998	-0.147149	-0.634543	0.005443	0.269552	0.192165	0.943618	-0.911525	0.366954	0.185655	-0.310588	-0.910174	0.274076
05198	9.608576	2.683127	2.867296	-0.090175	-0.660321	0.095500	0.266675	0.186453	0.945579	-0.911471	0.367638	0.184564	-0.313218	-0.911086	0.267987
05199	9.287538	2.225577	2.331668	-0.008173	-0.656949	0.419930	0.260812	0.181939	0.948091	-0.912504	0.367049	0.180586	-0.315140	-0.912236	0.261750
05200	9.273441	2.144513	1.960541	0.069479	-0.552908	0.650986	0.253113	0.179194	0.950696	-0.914338	0.365398	0.174560	-0.316102	-0.913441	0.256331
05201	9.130863	2.257416	2.019946	0.148626	-0.410063	0.824530	0.244230	0.178365	0.953172	-0.916793	0.362756	0.167026	-0.315977	-0.914655	0.252120
05202	9.057311	1.837870	2.127702	0.148144	-0.404186	0.760646	0.235929	0.177336	0.955452	-0.919028	0.360226	0.160076	-0.315791	-0.915854	0.247965
05203	9.023732	1.374239	1.856299	0.134023	-0.453772	0.597408	0.228976	0.175258	0.957525	-0.920792	0.358085	0.154651	-0.315772	-0.917093	0.243369
05204	8.693512	1.717301	1.899953	0.081887	-0.577117	0.300684	0.224384	0.170987	0.959383	-0.921702	0.356894	0.151963	-0.316414	-0.918363	0.237680
05205	7.390726	3.030928	1.385360	-0.166825	-0.544021	-0.354526	0.225999	0.164714	0.960101	-0.920381	0.358961	0.155066	-0.319097	-0.918704	0.232724
05206	9.649994	2.848694	1.886586	-0.036179	-0.502751	-0.485185	0.228898	0.158364	0.960482	-0.919188	0.359983	0.159703	-0.320466	-0.919420	0.227966
05207	10.420547	1.958281	1.234260	0.131386	-0.672524	0.086909	0.225953	0.152462	0.962133	-0.919794	0.358669	0.159174	-0.320819	-0.920930	0.221276
05208	8.212498	3.407556	0.968989	0.016967	-0.386426	0.137883	0.223447	0.149363	0.963204	-0.920140	0.358348	0.157889	-0.321579	-0.921563	0.217506
05209	8.936704	2.367261	1.408543	0.079543	-0.282685	0.117721	0.221441	0.147157	0.964006	-0.920647	0.357473	0.156912	-0.321515	-0.922257	0.214639
05210	9.667267	1.876077	1.607626	0.211214	-0.296870	0.299114	0.217680	0.145455	0.965121	-0.921964	0.355158	0.154420	-0.320310	-0.923420	0.211415
05211	9.104404	1.428649	1.321621	0.301469	-0.322278	0.459967	0.212336	0.144068	0.966518	-0.923889	0.351810	0.150530	-0.318345	-0.924918	0.207805
05212	9.139941	1.079775	1.001857	0.389227	-0.257162	0.553743	0.206295	0.143588	0.967897	-0.926253	0.347535	0.145862	-0.315434	-0.926608	0.204694
05213	9.296224	0.837538	0.995370	0.299380	-0.224515	0.559619	0.200319	0.143400	0.969179	-0.928299	0.344082	0.140959	-0.313264	-0.927925	0.202044
05214	9.544503	0.541696	0.973456	0.152870	-0.280360	0.516885	0.194593	0.142517	0.970475	-0.929760	0.342048	0.136198	-0.312539	-0.928812	0.199067
05215	10.201297	0.651344	1.054947	0.012255	-0.325187	0.461662	0.189278	0.141013	0.971745	-0.930643	0.341394	0.131731	-0.313173	-0.929282	0.195851
05216	11.065137	1.785436	1.189764	-0.085324	-0.373956	0.507877	0.183392	0.139196	0.973135	-0.931272	0.341607	0.126639	-0.314802	-0.929478	0.192277
05217	10.223790	0.666267	0.983186	-0.131814	-0.422041	0.633670	0.176188	0.137348	0.974727	-0.931932	0.342116	0.120246	-0.316954	-0.929566	0.188275
