// General information: 
//  MT Manager version: 2019.2.0 
//  XDA version: 2019.2.0 build 3853 rev 94535 built on 2019-09-09
// Device information: 
//  DeviceId: 00B44113
//  ProductCode: MTW2-3A7G6
//  Firmware Version: 4.3.5
//  Hardware Version: 1.1.0
// Device settings: 
//  Filter Profile: human(46.1)
//  Option Flags: Orientation Smoother Disabled, AHS Disabled, ICC Disabled
// Coordinate system: ENU
PacketCounter	Acc_X	Acc_Y	Acc_Z	Gyr_X	Gyr_Y	Gyr_Z	Mat[1][1]	Mat[2][1]	Mat[3][1]	Mat[1][2]	Mat[2][2]	Mat[3][2]	Mat[1][3]	Mat[2][3]	Mat[3][3]
22534	0.208941	0.127259	10.027037	0.009146	0.002353	0.002652	0.999993	0.003443	0.001108	-0.003443	0.999994	-0.000058	-0.001108	0.000054	0.999999
22535	0.208700	0.128068	10.027031	0.007121	0.002523	0.003411	0.999993	0.003468	0.001121	-0.003468	0.999994	-0.000057	-0.001121	0.000053	0.999999
22536	0.214781	0.138032	9.958892	0.007030	0.002678	-0.000005	0.999993	0.003457	0.001131	-0.003457	0.999994	-0.000056	-0.001131	0.000052	0.999999
22537	0.211270	0.134145	9.992957	0.007876	0.004192	0.002142	0.999993	0.003432	0.001129	-0.003432	0.999994	-0.000049	-0.001129	0.000045	0.999999
22538	0.207766	0.130265	10.027022	0.007121	0.002523	0.003411	0.999993	0.003455	0.001141	-0.003455	0.999994	-0.000049	-0.001141	0.000045	0.999999
22539	0.229300	0.135383	9.977172	0.005650	0.002843	-0.000638	0.999993	0.003458	0.001146	-0.003458	0.999994	-0.000063	-0.001146	0.000059	0.999999
22540	0.207081	0.131688	10.027018	0.010101	0.005542	0.004922	0.999993	0.003497	0.001129	-0.003497	0.999994	-0.000033	-0.001129	0.000029	0.999999
22541	0.209756	0.137095	9.992949	0.005761	0.004517	-0.000515	0.999993	0.003474	0.001118	-0.003474	0.999994	-0.000046	-0.001118	0.000042	0.999999
22542	0.224943	0.132970	10.011238	0.007010	0.000850	0.003288	0.999993	0.003496	0.001147	-0.003495	0.999994	-0.000047	-0.001147	0.000043	0.999999
22543	0.227787	0.157625	10.014774	0.007251	0.006027	0.000240	0.999993	0.003471	0.001126	-0.003471	0.999994	-0.000043	-0.001126	0.000039	0.999999
22544	0.208723	0.139187	9.992942	0.007766	0.002519	0.002020	0.999993	0.003480	0.001139	-0.003480	0.999994	-0.000035	-0.001139	0.000031	0.999999
22545	0.205283	0.135318	10.027007	0.007030	0.002679	-0.000005	0.999993	0.003460	0.001149	-0.003460	0.999994	-0.000036	-0.001149	0.000032	0.999999
22546	0.223564	0.135843	10.011230	0.006496	0.004358	0.001509	0.999993	0.003464	0.001143	-0.003464	0.999994	-0.000041	-0.001143	0.000037	0.999999
22547	0.223225	0.155897	10.048830	0.007765	0.002520	0.002020	0.999993	0.003462	0.001153	-0.003462	0.999994	-0.000036	-0.001154	0.000032	0.999999
22548	0.226232	0.141851	9.977152	0.006275	0.001011	0.001265	0.999993	0.003463	0.001181	-0.003463	0.999994	-0.000043	-0.001181	0.000039	0.999999
22549	0.204230	0.138106	10.026990	0.007676	0.002674	-0.001396	0.999993	0.003422	0.001189	-0.003422	0.999994	-0.000033	-0.001189	0.000029	0.999999
22550	0.222578	0.138517	10.011215	0.003626	0.003014	0.000120	0.999993	0.003411	0.001197	-0.003411	0.999994	-0.000067	-0.001197	0.000063	0.999999
22551	0.222227	0.139193	10.011214	0.009901	0.004025	0.001385	0.999993	0.003406	0.001194	-0.003406	0.999994	-0.000039	-0.001194	0.000035	0.999999
22552	0.215350	0.111479	10.041761	0.006606	0.006034	0.001631	0.999993	0.003411	0.001171	-0.003411	0.999994	-0.000043	-0.001171	0.000039	0.999999
22553	0.239844	0.140507	9.995445	0.006496	0.004360	0.001509	0.999993	0.003413	0.001162	-0.003413	0.999994	-0.000047	-0.001162	0.000043	0.999999
22554	0.205416	0.165487	10.030504	0.007765	0.002521	0.002021	0.999993	0.003422	0.001175	-0.003422	0.999994	-0.000040	-0.001175	0.000036	0.999999
22555	0.220607	0.142082	10.011209	0.006385	0.002686	0.001387	0.999993	0.003429	0.001187	-0.003429	0.999994	-0.000045	-0.001187	0.000041	0.999999
22556	0.201543	0.142996	10.026976	0.008631	0.005864	0.000873	0.999993	0.003427	0.001166	-0.003427	0.999994	-0.000029	-0.001166	0.000025	0.999999
22557	0.216484	0.139044	10.045280	0.007230	0.004202	0.003534	0.999993	0.003472	0.001162	-0.003472	0.999994	-0.000029	-0.001162	0.000025	0.999999
22558	0.216149	0.120416	10.007690	0.007676	0.002674	-0.001395	0.999993	0.003447	0.001172	-0.003447	0.999994	-0.000022	-0.001172	0.000018	0.999999
22559	0.222191	0.169159	10.014712	0.009255	0.004032	0.002776	0.999993	0.003476	0.001169	-0.003476	0.999994	0.000000	-0.001169	-0.000004	0.999999
22560	0.215397	0.122045	10.007686	0.006496	0.004361	0.001509	0.999993	0.003480	0.001163	-0.003480	0.999994	-0.000005	-0.001163	0.000001	0.999999
22561	0.218235	0.146636	10.011195	0.006385	0.002687	0.001387	0.999993	0.003483	0.001175	-0.003483	0.999994	-0.000009	-0.001175	0.000005	0.999999
22562	0.233323	0.142574	10.029503	0.007141	0.004355	0.000118	0.999993	0.003473	0.001168	-0.003473	0.999994	-0.000008	-0.001169	0.000004	0.999999
22563	0.217457	0.148060	10.011191	0.007875	0.004197	0.002143	0.999993	0.003500	0.001164	-0.003500	0.999994	-0.000001	-0.001164	-0.000003	0.999999
22564	0.220146	0.153238	9.977119	0.004581	0.006206	0.002387	0.999993	0.003513	0.001140	-0.003513	0.999994	-0.000025	-0.001140	0.000021	0.999999
22565	0.213306	0.144871	10.045265	0.010435	0.002347	-0.000126	0.999993	0.003506	0.001155	-0.003506	0.999994	0.000011	-0.001155	-0.000015	0.999999
22566	0.213166	0.126348	10.007681	0.007009	0.000855	0.003291	0.999993	0.003528	0.001185	-0.003528	0.999994	0.000010	-0.001185	-0.000014	0.999999
22567	0.194253	0.127198	10.023439	0.006407	0.004513	-0.001907	0.999993	0.003472	0.001180	-0.003472	0.999994	0.000005	-0.001180	-0.000009	0.999999
22568	0.231098	0.127516	9.991919	0.007141	0.004356	0.000118	0.999993	0.003462	0.001174	-0.003462	0.999994	0.000006	-0.001174	-0.000010	0.999999
22569	0.230650	0.147668	10.029491	0.007875	0.004199	0.002143	0.999993	0.003427	0.001170	-0.003427	0.999994	0.000016	-0.001170	-0.000020	0.999999
22570	0.230329	0.129040	9.991917	0.007676	0.002675	-0.001394	0.999994	0.003402	0.001181	-0.003402	0.999994	0.000023	-0.001181	-0.000027	0.999999
22571	0.211484	0.149333	10.045239	0.006363	0.000863	0.004683	0.999993	0.003450	0.001209	-0.003450	0.999994	0.000015	-0.001209	-0.000020	0.999999
22572	0.214533	0.154608	10.011155	0.008410	0.002518	0.000631	0.999993	0.003445	0.001221	-0.003445	0.999994	0.000029	-0.001221	-0.000034	0.999999
22573	0.245186	0.107134	9.972656	0.007676	0.002675	-0.001394	0.999993	0.003440	0.001231	-0.003440	0.999994	0.000035	-0.001231	-0.000039	0.999999
22574	0.182967	0.185063	10.012069	0.008074	0.005724	0.005680	0.999993	0.003486	0.001212	-0.003486	0.999994	0.000044	-0.001212	-0.000048	0.999999
22575	0.210239	0.132927	10.007657	0.005651	0.002845	-0.000637	0.999993	0.003488	0.001219	-0.003488	0.999994	0.000033	-0.001219	-0.000038	0.999999
22576	0.209963	0.133528	10.007655	0.006385	0.002689	0.001388	0.999993	0.003490	0.001230	-0.003490	0.999994	0.000027	-0.001230	-0.000031	0.999999
22577	0.212748	0.138736	9.973578	0.007252	0.006032	0.000238	0.999993	0.003504	0.001203	-0.003504	0.999994	0.000030	-0.001203	-0.000034	0.999999
22578	0.227635	0.154231	10.029461	0.008521	0.004194	0.000752	0.999993	0.003500	0.001198	-0.003500	0.999994	0.000045	-0.001198	-0.000049	0.999999
22579	0.211957	0.159757	10.011129	0.007654	0.000851	0.001902	0.999993	0.003523	0.001226	-0.003523	0.999994	0.000050	-0.001226	-0.000054	0.999999
22580	0.242584	0.131662	10.010218	0.007787	0.004350	-0.001273	0.999993	0.003500	0.001220	-0.003500	0.999994	0.000058	-0.001220	-0.000063	0.999999
22581	0.208155	0.137217	10.007643	0.005093	0.002703	0.004170	0.999993	0.003524	0.001228	-0.003524	0.999994	0.000040	-0.001228	-0.000045	0.999999
22582	0.241856	0.152418	10.047770	0.008521	0.004194	0.000752	0.999993	0.003521	0.001224	-0.003521	0.999994	0.000055	-0.001223	-0.000060	0.999999
22583	0.207378	0.138574	10.007641	0.005116	0.004528	0.000874	0.999993	0.003506	0.001216	-0.003506	0.999994	0.000036	-0.001215	-0.000041	0.999999
22584	0.225633	0.158423	10.029441	0.007031	0.002683	-0.000002	0.999993	0.003494	0.001226	-0.003494	0.999994	0.000037	-0.001226	-0.000041	0.999999
22585	0.203566	0.115965	10.004164	0.007764	0.002527	0.002023	0.999993	0.003483	0.001238	-0.003483	0.999994	0.000045	-0.001238	-0.000049	0.999999
22586	0.240493	0.135747	10.010214	0.007141	0.004358	0.000118	0.999993	0.003473	0.001232	-0.003473	0.999994	0.000046	-0.001232	-0.000050	0.999999
22587	0.224611	0.160726	10.029427	0.009254	0.004039	0.002778	0.999993	0.003469	0.001231	-0.003470	0.999994	0.000068	-0.001230	-0.000072	0.999999
22588	0.221075	0.137516	10.025957	0.005651	0.002846	-0.000637	0.999993	0.003451	0.001239	-0.003452	0.999994	0.000055	-0.001239	-0.000059	0.999999
22589	0.208572	0.166713	10.011087	0.005093	0.002705	0.004170	0.999993	0.003505	0.001248	-0.003505	0.999994	0.000039	-0.001248	-0.000044	0.999999
22590	0.235921	0.114494	10.006747	0.007229	0.004210	0.003534	0.999993	0.003529	0.001244	-0.003529	0.999994	0.000041	-0.001243	-0.000045	0.999999
22591	0.207806	0.168071	10.011080	0.007787	0.004351	-0.001273	0.999993	0.003513	0.001235	-0.003513	0.999994	0.000046	-0.001235	-0.000051	0.999999
22592	0.234928	0.135428	10.044292	0.006606	0.006041	0.001628	0.999993	0.003518	0.001213	-0.003518	0.999994	0.000042	-0.001212	-0.000046	0.999999
22593	0.215880	0.116824	10.022498	0.006385	0.002691	0.001389	0.999993	0.003554	0.001222	-0.003554	0.999994	0.000034	-0.001222	-0.000038	0.999999
22594	0.221974	0.145975	9.991873	0.007874	0.004203	0.002144	0.999993	0.003565	0.001217	-0.003565	0.999994	0.000042	-0.001217	-0.000047	0.999999
22595	0.233727	0.137643	10.044290	0.009167	0.004189	-0.000637	0.999993	0.003557	0.001212	-0.003557	0.999994	0.000065	-0.001212	-0.000070	0.999999
22596	0.217884	0.143059	10.025950	0.005203	0.004382	0.004290	0.999993	0.003589	0.001207	-0.003589	0.999994	0.000046	-0.001206	-0.000051	0.999999
22597	0.198925	0.124376	10.004156	0.006384	0.002692	0.001389	0.999993	0.003602	0.001219	-0.003602	0.999994	0.000038	-0.001219	-0.000042	0.999999
22598	0.217173	0.144242	10.025948	0.005762	0.004522	-0.000517	0.999993	0.003585	0.001211	-0.003585	0.999994	0.000026	-0.001211	-0.000030	0.999999
22599	0.223182	0.173354	9.995316	0.007874	0.004204	0.002144	0.999993	0.003634	0.001204	-0.003634	0.999993	0.000030	-0.001204	-0.000035	0.999999
22600	0.235065	0.145512	10.010205	0.008410	0.002522	0.000634	0.999993	0.003629	0.001216	-0.003629	0.999993	0.000044	-0.001216	-0.000049	0.999999
22601	0.197486	0.146772	10.041674	0.007764	0.002530	0.002025	0.999993	0.003635	0.001228	-0.003635	0.999993	0.000052	-0.001228	-0.000056	0.999999
22602	0.234396	0.147102	10.010198	0.007985	0.005880	0.002263	0.999993	0.003647	0.001207	-0.003647	0.999993	0.000061	-0.001206	-0.000066	0.999999
22603	0.196563	0.148418	10.041668	0.009167	0.004189	-0.000637	0.999993	0.003645	0.001200	-0.003645	0.999993	0.000083	-0.001199	-0.000087	0.999999
22604	0.248982	0.163472	10.066062	0.004981	0.001034	0.004051	0.999992	0.003674	0.001227	-0.003674	0.999993	0.000062	-0.001227	-0.000066	0.999999
22605	0.208224	0.101619	10.019049	0.007899	0.006027	-0.001153	0.999993	0.003642	0.001204	-0.003642	0.999993	0.000073	-0.001204	-0.000077	0.999999
22606	0.220638	0.178597	9.995280	0.005091	0.002709	0.004170	0.999993	0.003672	0.001215	-0.003672	0.999993	0.000053	-0.001215	-0.000057	0.999999
22607	0.207351	0.102915	10.019053	0.007899	0.006027	-0.001153	0.999993	0.003663	0.001188	-0.003663	0.999993	0.000065	-0.001188	-0.000069	0.999999
22608	0.191537	0.127854	10.038219	0.007006	0.000864	0.003297	0.999992	0.003684	0.001217	-0.003684	0.999993	0.000064	-0.001217	-0.000068	0.999999
22609	0.247216	0.147360	10.028536	0.007142	0.004360	0.000118	0.999993	0.003669	0.001210	-0.003669	0.999993	0.000067	-0.001210	-0.000071	0.999999
22610	0.190915	0.109831	10.000699	0.008521	0.004198	0.000754	0.999993	0.003666	0.001206	-0.003666	0.999993	0.000082	-0.001205	-0.000086	0.999999
22611	0.230947	0.153508	10.010182	0.005116	0.004531	0.000873	0.999993	0.003677	0.001197	-0.003677	0.999993	0.000062	-0.001196	-0.000066	0.999999
22612	0.208894	0.130522	10.022477	0.009482	-0.000844	-0.002383	0.999993	0.003642	0.001242	-0.003642	0.999993	0.000087	-0.001242	-0.000091	0.999999
22613	0.211756	0.155329	10.025898	0.007449	0.007567	0.003772	0.999993	0.003672	0.001205	-0.003672	0.999993	0.000090	-0.001204	-0.000095	0.999999
22614	0.223430	0.127377	10.040831	0.006213	0.002985	-0.005443	0.999993	0.003606	0.001211	-0.003606	0.999993	0.000084	-0.001211	-0.000088	0.999999
22615	0.214226	0.161187	9.991809	0.008495	0.002379	0.004052	0.999993	0.003638	0.001226	-0.003638	0.999993	0.000098	-0.001226	-0.000102	0.999999
22616	0.222824	0.128897	10.040825	0.007141	0.004362	0.000118	0.999993	0.003628	0.001220	-0.003628	0.999993	0.000099	-0.001219	-0.000103	0.999999
22617	0.244257	0.153294	10.028519	0.006495	0.004370	0.001508	0.999993	0.003638	0.001214	-0.003638	0.999993	0.000093	-0.001214	-0.000097	0.999999
22618	0.194442	0.163634	10.007522	0.008410	0.002524	0.000636	0.999993	0.003633	0.001226	-0.003633	0.999993	0.000107	-0.001226	-0.000111	0.999999
22619	0.225057	0.135488	10.006735	0.006384	0.002695	0.001390	0.999993	0.003635	0.001237	-0.003635	0.999993	0.000101	-0.001237	-0.000105	0.999999
22620	0.205955	0.136489	10.022458	0.008631	0.005876	0.000872	0.999993	0.003633	0.001216	-0.003633	0.999993	0.000117	-0.001215	-0.000121	0.999999
22621	0.208640	0.141599	9.988375	0.005312	0.006064	0.004407	0.999993	0.003659	0.001192	-0.003659	0.999993	0.000099	-0.001192	-0.000104	0.999999
22622	0.254567	0.108718	10.005967	0.008299	0.000849	0.000518	0.999993	0.003652	0.001221	-0.003653	0.999993	0.000112	-0.001221	-0.000117	0.999999
22623	0.189278	0.162884	10.041584	0.007788	0.004354	-0.001272	0.999993	0.003614	0.001214	-0.003614	0.999993	0.000121	-0.001214	-0.000126	0.999999
22624	0.219798	0.115196	10.003323	0.007141	0.004363	0.000118	0.999993	0.003604	0.001208	-0.003604	0.999993	0.000123	-0.001208	-0.000127	0.999999
22625	0.222736	0.139896	10.006726	0.007652	0.000859	0.001909	0.999993	0.003604	0.001239	-0.003604	0.999993	0.000130	-0.001239	-0.000134	0.999999
22626	0.219276	0.136191	10.040807	0.006384	0.002696	0.001390	0.999993	0.003606	0.001250	-0.003606	0.999993	0.000123	-0.001249	-0.000128	0.999999
22627	0.222209	0.141236	10.006719	0.006495	0.004372	0.001508	0.999993	0.003625	0.001243	-0.003625	0.999993	0.000117	-0.001243	-0.000121	0.999999
22628	0.224972	0.165846	10.010121	0.006495	0.004372	0.001508	0.999993	0.003629	0.001237	-0.003629	0.999993	0.000111	-0.001237	-0.000116	0.999999
22629	0.218057	0.138234	10.040806	0.008520	0.004202	0.000755	0.999993	0.003640	0.001230	-0.003640	0.999993	0.000126	-0.001230	-0.000131	0.999999
22630	0.233101	0.114722	10.021690	0.005763	0.004525	-0.000518	0.999993	0.003624	0.001222	-0.003624	0.999993	0.000114	-0.001222	-0.000118	0.999999
22631	0.239155	0.163361	10.028484	0.008494	0.002383	0.004054	0.999993	0.003637	0.001240	-0.003637	0.999993	0.000127	-0.001239	-0.000131	0.999999
22632	0.216949	0.120840	10.003319	0.006605	0.006048	0.001626	0.999993	0.003642	0.001217	-0.003643	0.999993	0.000122	-0.001217	-0.000127	0.999999
22633	0.204239	0.169787	10.025820	0.008409	0.002526	0.000637	0.999993	0.003652	0.001229	-0.003652	0.999993	0.000138	-0.001229	-0.000142	0.999999
22634	0.219386	0.146365	10.006708	0.007873	0.004212	0.002145	0.999993	0.003662	0.001225	-0.003663	0.999993	0.000146	-0.001224	-0.000150	0.999999
22635	0.212470	0.118836	10.037404	0.008520	0.004203	0.000755	0.999993	0.003666	0.001222	-0.003666	0.999993	0.000160	-0.001221	-0.000164	0.999999
22636	0.221909	0.171817	10.010089	0.004978	0.001041	0.004054	0.999992	0.003695	0.001249	-0.003695	0.999993	0.000139	-0.001249	-0.000143	0.999999
22637	0.218357	0.148493	10.006699	0.007900	0.006030	-0.001154	0.999992	0.003682	0.001226	-0.003682	0.999993	0.000149	-0.001225	-0.000154	0.999999
22638	0.214737	0.125378	10.003311	0.009141	0.002376	0.002664	0.999992	0.003697	0.001240	-0.003698	0.999993	0.000170	-0.001239	-0.000175	0.999999
22639	0.214392	0.126155	10.003308	0.006410	0.004516	-0.001908	0.999993	0.003646	0.001233	-0.003646	0.999993	0.000166	-0.001232	-0.000170	0.999999
22640	0.235835	0.150488	9.990982	0.006494	0.004374	0.001508	0.999993	0.003649	0.001227	-0.003650	0.999993	0.000160	-0.001226	-0.000165	0.999999
22641	0.216805	0.151477	10.006688	0.007762	0.002537	0.002028	0.999993	0.003666	0.001241	-0.003666	0.999993	0.000169	-0.001240	-0.000173	0.999999
22642	0.213260	0.128254	10.003306	0.007142	0.004365	0.000118	0.999993	0.003656	0.001234	-0.003656	0.999993	0.000170	-0.001234	-0.000175	0.999999
22643	0.212983	0.128855	10.003304	0.004894	0.001184	0.000638	0.999993	0.003648	0.001259	-0.003648	0.999993	0.000149	-0.001259	-0.000154	0.999999
22644	0.215849	0.153633	10.006676	0.011388	0.005558	0.002146	0.999993	0.003660	0.001241	-0.003660	0.999993	0.000193	-0.001241	-0.000197	0.999999
22645	0.227448	0.125920	10.021686	0.006605	0.006051	0.001625	0.999992	0.003686	0.001220	-0.003687	0.999993	0.000188	-0.001219	-0.000193	0.999999
22646	0.189539	0.127046	10.053101	0.004468	0.004546	0.002261	0.999992	0.003697	0.001212	-0.003698	0.999993	0.000162	-0.001211	-0.000167	0.999999
22647	0.229761	0.151012	10.025063	0.007031	0.002689	0.000002	0.999992	0.003682	0.001220	-0.003683	0.999993	0.000163	-0.001220	-0.000167	0.999999
22648	0.226373	0.127710	10.021688	0.006272	0.001023	0.001275	0.999992	0.003683	0.001248	-0.003684	0.999993	0.000155	-0.001247	-0.000160	0.999999
22649	0.226105	0.128346	10.021685	0.006494	0.004376	0.001508	0.999992	0.003671	0.001243	-0.003671	0.999993	0.000147	-0.001242	-0.000151	0.999999
22650	0.213587	0.157695	10.006661	0.008409	0.002529	0.000639	0.999992	0.003666	0.001255	-0.003666	0.999993	0.000161	-0.001254	-0.000165	0.999999
22651	0.225499	0.129864	10.021680	0.007031	0.002690	0.000002	0.999993	0.003658	0.001267	-0.003659	0.999993	0.000159	-0.001266	-0.000163	0.999999
22652	0.209773	0.135106	10.003289	0.005199	0.004396	0.004288	0.999992	0.003690	0.001261	-0.003690	0.999993	0.000140	-0.001260	-0.000144	0.999999
22653	0.227905	0.154985	10.025044	0.005763	0.004526	-0.000519	0.999993	0.003664	0.001253	-0.003664	0.999993	0.000128	-0.001253	-0.000132	0.999999
22654	0.224265	0.131732	10.021683	0.008520	0.004206	0.000756	0.999993	0.003661	0.001249	-0.003661	0.999993	0.000143	-0.001248	-0.000147	0.999999
22655	0.245818	0.156181	10.009340	0.007031	0.002690	0.000002	0.999993	0.003643	0.001260	-0.003643	0.999993	0.000140	-0.001260	-0.000145	0.999999
22656	0.208280	0.137778	10.003284	0.005735	0.002711	0.002782	0.999992	0.003659	0.001271	-0.003659	0.999993	0.000127	-0.001270	-0.000132	0.999999
22657	0.207852	0.138492	10.003283	0.008631	0.005882	0.000872	0.999993	0.003626	0.001252	-0.003627	0.999993	0.000146	-0.001251	-0.000151	0.999999
22658	0.219475	0.130356	10.055769	0.007761	0.002540	0.002029	0.999993	0.003635	0.001264	-0.003636	0.999993	0.000153	-0.001263	-0.000158	0.999999
22659	0.225803	0.139884	9.987579	0.009899	0.004046	0.001393	0.999993	0.003658	0.001262	-0.003658	0.999993	0.000180	-0.001261	-0.000185	0.999999
22660	0.206594	0.140977	10.003274	0.005875	0.006203	-0.000403	0.999993	0.003643	0.001237	-0.003643	0.999993	0.000169	-0.001236	-0.000174	0.999999
22661	0.236993	0.132506	10.040068	0.009759	0.000555	0.004578	0.999992	0.003678	0.001272	-0.003679	0.999993	0.000198	-0.001271	-0.000203	0.999999
22662	0.206008	0.142527	10.003265	0.005764	0.004527	-0.000519	0.999992	0.003662	0.001264	-0.003662	0.999993	0.000186	-0.001263	-0.000191	0.999999
22663	0.227551	0.166794	9.990915	0.006383	0.002701	0.001392	0.999993	0.003653	0.001274	-0.003653	0.999993	0.000177	-0.001273	-0.000182	0.999999
22664	0.198830	0.115420	10.034011	0.005005	0.002862	0.000755	0.999993	0.003649	0.001283	-0.003649	0.999993	0.000157	-0.001282	-0.000162	0.999999
22665	0.205009	0.144307	10.003260	0.007142	0.004367	0.000119	0.999992	0.003669	0.001278	-0.003669	0.999993	0.000162	-0.001278	-0.000167	0.999999
22666	0.216732	0.116398	10.018321	0.006494	0.004378	0.001508	0.999992	0.003673	0.001272	-0.003673	0.999993	0.000157	-0.001272	-0.000162	0.999999
22667	0.219432	0.141226	10.021661	0.010657	0.005713	0.000120	0.999993	0.003658	0.001252	-0.003658	0.999993	0.000194	-0.001252	-0.000198	0.999999
22668	0.234593	0.117717	10.002630	0.004976	0.001048	0.004056	0.999992	0.003687	0.001280	-0.003687	0.999993	0.000173	-0.001279	-0.000177	0.999999
22669	0.203458	0.147155	10.003250	0.005764	0.004528	-0.000519	0.999992	0.003668	0.001271	-0.003669	0.999993	0.000161	-0.001270	-0.000165	0.999999
22670	0.233911	0.138561	10.040059	0.007002	0.000877	0.003304	0.999992	0.003690	0.001300	-0.003690	0.999993	0.000160	-0.001299	-0.000165	0.999999
22671	0.203000	0.128957	9.965812	0.010010	0.005725	0.001510	0.999992	0.003705	0.001284	-0.003705	0.999993	0.000190	-0.001283	-0.000194	0.999999
22672	0.220925	0.168853	10.024977	0.007142	0.004368	0.000119	0.999992	0.003695	0.001278	-0.003695	0.999993	0.000191	-0.001277	-0.000196	0.999999
22673	0.232956	0.121323	10.002625	0.007650	0.000867	0.001915	0.999992	0.003699	0.001305	-0.003699	0.999993	0.000197	-0.001304	-0.000202	0.999999
22674	0.232704	0.122129	10.002621	0.008520	0.004209	0.000756	0.999992	0.003696	0.001300	-0.003696	0.999993	0.000212	-0.001299	-0.000217	0.999999
22675	0.201596	0.151843	10.003217	0.007650	0.000867	0.001915	0.999992	0.003700	0.001330	-0.003700	0.999993	0.000219	-0.001329	-0.000224	0.999999
22676	0.213317	0.123977	10.018303	0.006716	0.007733	0.001738	0.999992	0.003707	0.001290	-0.003707	0.999993	0.000216	-0.001289	-0.000221	0.999999
22677	0.253535	0.167727	10.027672	0.008076	-0.002498	0.000296	0.999992	0.003691	0.001351	-0.003691	0.999993	0.000226	-0.001350	-0.000231	0.999999
22678	0.197380	0.149754	10.037298	0.006605	0.006057	0.001623	0.999992	0.003696	0.001328	-0.003696	0.999993	0.000222	-0.001327	-0.000227	0.999999
22679	0.231058	0.125736	10.002615	0.005764	0.004529	-0.000520	0.999992	0.003667	0.001322	-0.003667	0.999993	0.000210	-0.001321	-0.000215	0.999999
22680	0.181049	0.155624	10.018883	0.007142	0.004369	0.000119	0.999992	0.003657	0.001316	-0.003657	0.999993	0.000212	-0.001315	-0.000216	0.999999
22681	0.227136	0.103077	9.999298	0.006272	0.001027	0.001278	0.999992	0.003674	0.001345	-0.003674	0.999993	0.000205	-0.001344	-0.000210	0.999999
22682	0.214573	0.152030	10.021608	0.007142	0.004369	0.000119	0.999992	0.003664	0.001338	-0.003664	0.999993	0.000206	-0.001338	-0.000211	0.999999
22683	0.214294	0.133034	9.984195	0.007223	0.004233	0.003535	0.999992	0.003692	0.001334	-0.003692	0.999993	0.000210	-0.001334	-0.000215	0.999999
22684	0.247703	0.148599	10.024344	0.008631	0.005887	0.000872	0.999992	0.003690	0.001313	-0.003690	0.999993	0.000226	-0.001312	-0.000231	0.999999
22685	0.210079	0.130271	10.018292	0.005542	0.001175	-0.000749	0.999992	0.003677	0.001338	-0.003677	0.999993	0.000213	-0.001337	-0.000218	0.999999
22686	0.231712	0.154473	10.005921	0.005764	0.004529	-0.000520	0.999992	0.003660	0.001330	-0.003661	0.999993	0.000201	-0.001329	-0.000206	0.999999
22687	0.209355	0.131520	10.018290	0.007872	0.004223	0.002146	0.999992	0.003671	0.001326	-0.003672	0.999993	0.000210	-0.001325	-0.000215	0.999999
22688	0.227639	0.131892	10.002614	0.006494	0.004382	0.001508	0.999992	0.003675	0.001319	-0.003675	0.999993	0.000205	-0.001319	-0.000209	0.999999
22689	0.230411	0.156548	10.005919	0.007142	0.004370	0.000119	0.999992	0.003675	0.001310	-0.003676	0.999993	0.000204	-0.001310	-0.000209	0.999999
22690	0.192797	0.138286	9.999863	0.008409	0.002534	0.000643	0.999992	0.003671	0.001322	-0.003671	0.999993	0.000218	-0.001322	-0.000223	0.999999
22691	0.241801	0.149298	10.058431	0.007841	0.002412	0.005449	0.999992	0.003717	0.001340	-0.003717	0.999993	0.000226	-0.001339	-0.000231	0.999999
22692	0.226279	0.134932	10.002604	0.007791	0.004358	-0.001271	0.999992	0.003693	0.001333	-0.003694	0.999993	0.000234	-0.001332	-0.000239	0.999999
22693	0.207302	0.136020	10.018273	0.007000	0.000882	0.003307	0.999992	0.003719	0.001362	-0.003719	0.999993	0.000234	-0.001361	-0.000239	0.999999
22694	0.225749	0.136305	10.002597	0.005764	0.004530	-0.000520	0.999992	0.003702	0.001354	-0.003702	0.999993	0.000222	-0.001353	-0.000227	0.999999
22695	0.225313	0.136985	10.002598	0.007871	0.004224	0.002146	0.999992	0.003690	0.001350	-0.003690	0.999993	0.000230	-0.001349	-0.000235	0.999999
22696	0.221610	0.133635	10.036693	0.009787	0.002376	0.001282	0.999992	0.003692	0.001364	-0.003692	0.999993	0.000257	-0.001363	-0.000262	0.999999
22697	0.224732	0.138704	10.002587	0.007031	0.002694	0.000005	0.999992	0.003674	0.001372	-0.003674	0.999993	0.000259	-0.001371	-0.000264	0.999999
22698	0.224387	0.139481	10.002584	0.008520	0.004213	0.000757	0.999992	0.003670	0.001367	-0.003671	0.999993	0.000274	-0.001366	-0.000279	0.999999
22699	0.239300	0.135615	10.021016	0.005845	0.004396	0.002897	0.999992	0.003687	0.001359	-0.003688	0.999993	0.000263	-0.001358	-0.000268	0.999999
22700	0.208106	0.165242	10.021535	0.008409	0.002536	0.000644	0.999992	0.003683	0.001371	-0.003683	0.999993	0.000277	-0.001370	-0.000282	0.999999
22701	0.201161	0.137757	10.052348	0.005765	0.004530	-0.000520	0.999992	0.003663	0.001361	-0.003663	0.999993	0.000267	-0.001360	-0.000272	0.999999
22702	0.200801	0.118682	10.014966	0.007902	0.006037	-0.001157	0.999992	0.003641	0.001338	-0.003641	0.999993	0.000276	-0.001337	-0.000281	0.999999
22703	0.222220	0.143052	10.002582	0.007222	0.004239	0.003536	0.999992	0.003676	0.001329	-0.003676	0.999993	0.000275	-0.001328	-0.000280	0.999999
22704	0.218406	0.139523	10.036683	0.006493	0.004385	0.001508	0.999992	0.003680	0.001323	-0.003680	0.999993	0.000270	-0.001322	-0.000275	0.999999
22705	0.218061	0.140200	10.036682	0.007111	0.002562	0.003422	0.999992	0.003717	0.001333	-0.003717	0.999993	0.000268	-0.001332	-0.000273	0.999999
22706	0.233311	0.116525	10.017739	0.006382	0.002708	0.001394	0.999992	0.003719	0.001344	-0.003720	0.999993	0.000261	-0.001343	-0.000266	0.999999
22707	0.214158	0.117712	10.033402	0.009929	0.005866	-0.001907	0.999992	0.003672	0.001326	-0.003672	0.999993	0.000291	-0.001325	-0.000296	0.999999
22708	0.201690	0.147007	10.018232	0.004973	0.001057	0.004059	0.999992	0.003700	0.001353	-0.003701	0.999993	0.000270	-0.001352	-0.000275	0.999999
22709	0.220062	0.147277	10.002569	0.007903	0.006037	-0.001157	0.999992	0.003661	0.001331	-0.003661	0.999993	0.000279	-0.001330	-0.000284	0.999999
22710	0.222744	0.171942	10.005840	0.005765	0.004531	-0.000520	0.999992	0.003645	0.001323	-0.003645	0.999993	0.000267	-0.001322	-0.000272	0.999999
22711	0.215875	0.124594	9.999303	0.006493	0.004386	0.001508	0.999993	0.003641	0.001315	-0.003642	0.999993	0.000262	-0.001315	-0.000266	0.999999
22712	0.234073	0.144752	10.021011	0.008409	0.002538	0.000645	0.999993	0.003637	0.001328	-0.003637	0.999993	0.000276	-0.001327	-0.000280	0.999999
22713	0.233727	0.145530	10.021008	0.007142	0.004373	0.000119	0.999993	0.003635	0.001323	-0.003635	0.999993	0.000278	-0.001322	-0.000283	0.999999
22714	0.196020	0.127171	10.014957	0.006493	0.004387	0.001508	0.999993	0.003639	0.001316	-0.003639	0.999993	0.000273	-0.001315	-0.000278	0.999999
22715	0.217599	0.151347	10.002562	0.005004	0.002867	0.000755	0.999993	0.003624	0.001326	-0.003624	0.999993	0.000254	-0.001325	-0.000259	0.999999
22716	0.213835	0.147806	10.036663	0.007792	0.004360	-0.001270	0.999993	0.003600	0.001319	-0.003600	0.999993	0.000262	-0.001319	-0.000267	0.999999
22717	0.213505	0.128658	9.999302	0.005306	0.006091	0.004399	0.999993	0.003622	0.001296	-0.003623	0.999993	0.000244	-0.001295	-0.000249	0.999999
22718	0.216373	0.153314	10.002558	0.008297	0.000861	0.000533	0.999993	0.003616	0.001325	-0.003617	0.999993	0.000257	-0.001324	-0.000262	0.999999
22719	0.194134	0.150250	10.052307	0.006192	0.001164	-0.002135	0.999993	0.003572	0.001350	-0.003572	0.999994	0.000247	-0.001349	-0.000252	0.999999
22720	0.209652	0.106774	9.996035	0.007680	0.002683	-0.001383	0.999993	0.003547	0.001360	-0.003547	0.999994	0.000254	-0.001359	-0.000259	0.999999
22721	0.197074	0.155827	10.018191	0.006382	0.002710	0.001395	0.999993	0.003550	0.001370	-0.003550	0.999994	0.000247	-0.001369	-0.000252	0.999999
22722	0.230777	0.151528	10.020988	0.006493	0.004388	0.001508	0.999993	0.003554	0.001363	-0.003554	0.999994	0.000241	-0.001363	-0.000246	0.999999
22723	0.230788	0.132307	9.983628	0.005510	-0.000631	0.002558	0.999993	0.003565	0.001408	-0.003565	0.999994	0.000228	-0.001407	-0.000233	0.999999
22724	0.230238	0.152801	10.020981	0.008014	0.007716	-0.001045	0.999993	0.003544	0.001368	-0.003545	0.999994	0.000238	-0.001367	-0.000243	0.999999
22725	0.207770	0.129861	10.033386	0.005083	0.002738	0.004173	0.999993	0.003586	0.001375	-0.003586	0.999994	0.000215	-0.001375	-0.000220	0.999999
22726	0.214144	0.158708	10.002522	0.009136	0.002395	0.002675	0.999993	0.003602	0.001389	-0.003602	0.999993	0.000236	-0.001388	-0.000241	0.999999
22727	0.241235	0.126404	10.036186	0.006493	0.004389	0.001508	0.999993	0.003583	0.001381	-0.003583	0.999994	0.000232	-0.001380	-0.000237	0.999999
22728	0.194635	0.160561	10.018164	0.007143	0.004375	0.000119	0.999993	0.003573	0.001375	-0.003573	0.999994	0.000233	-0.001374	-0.000238	0.999999
22729	0.206311	0.132780	10.033378	0.007870	0.004231	0.002147	0.999993	0.003597	0.001371	-0.003598	0.999993	0.000242	-0.001370	-0.000247	0.999999
22730	0.209458	0.137599	9.999269	0.005542	0.001177	-0.000746	0.999993	0.003578	0.001396	-0.003578	0.999994	0.000227	-0.001395	-0.000232	0.999999
22731	0.242954	0.153204	10.039423	0.008631	0.005896	0.000871	0.999993	0.003571	0.001372	-0.003571	0.999994	0.000244	-0.001372	-0.000249	0.999999
22732	0.208760	0.139051	9.999263	0.006270	0.001034	0.001283	0.999993	0.003572	0.001400	-0.003572	0.999994	0.000237	-0.001399	-0.000242	0.999999
22733	0.204909	0.135659	10.033368	0.008743	0.007574	0.000983	0.999993	0.003544	0.001361	-0.003544	0.999994	0.000252	-0.001360	-0.000257	0.999999
22734	0.219919	0.112027	10.014493	0.006382	0.002712	0.001396	0.999993	0.003546	0.001371	-0.003547	0.999994	0.000245	-0.001371	-0.000250	0.999999
22735	0.222872	0.136751	10.017721	0.008408	0.002541	0.000647	0.999993	0.003549	0.001381	-0.003550	0.999994	0.000261	-0.001380	-0.000266	0.999999
22736	0.210224	0.185939	10.039817	0.007870	0.004233	0.002148	0.999993	0.003560	0.001376	-0.003560	0.999994	0.000269	-0.001375	-0.000274	0.999999
22737	0.237631	0.113919	9.998847	0.007143	0.004376	0.000119	0.999993	0.003538	0.001369	-0.003538	0.999994	0.000272	-0.001368	-0.000277	0.999999
22738	0.221743	0.138920	10.017716	0.005004	0.002870	0.000756	0.999993	0.003534	0.001377	-0.003534	0.999994	0.000252	-0.001376	-0.000257	0.999999
22739	0.240131	0.139151	10.002074	0.007870	0.004233	0.002148	0.999993	0.003544	0.001373	-0.003544	0.999994	0.000259	-0.001372	-0.000264	0.999999
22740	0.217527	0.136223	10.051821	0.007792	0.004362	-0.001270	0.999993	0.003520	0.001366	-0.003521	0.999994	0.000267	-0.001365	-0.000272	0.999999
22741	0.202004	0.121641	9.996022	0.007220	0.004248	0.003536	0.999993	0.003525	0.001364	-0.003525	0.999994	0.000268	-0.001363	-0.000273	0.999999
22742	0.238895	0.161282	10.039394	0.007613	-0.000928	0.005230	0.999993	0.003565	0.001411	-0.003566	0.999994	0.000273	-0.001410	-0.000278	0.999999
22743	0.216975	0.118540	10.014482	0.006415	0.004519	-0.001910	0.999993	0.003556	0.001400	-0.003556	0.999994	0.000268	-0.001399	-0.000273	0.999999
22744	0.216621	0.119250	10.014481	0.007758	0.002556	0.002036	0.999993	0.003565	0.001412	-0.003566	0.999994	0.000275	-0.001411	-0.000280	0.999999
22745	0.219575	0.144009	10.017692	0.007681	0.002685	-0.001381	0.999993	0.003547	0.001422	-0.003547	0.999994	0.000284	-0.001421	-0.000289	0.999999
22746	0.231312	0.116205	10.032949	0.006493	0.004392	0.001507	0.999993	0.003551	0.001415	-0.003551	0.999994	0.000279	-0.001414	-0.000284	0.999999
22747	0.218875	0.145463	10.017686	0.008408	0.002542	0.000648	0.999993	0.003520	0.001428	-0.003521	0.999994	0.000296	-0.001427	-0.000301	0.999999
22748	0.199691	0.146532	10.033321	0.004577	0.006242	0.002367	0.999993	0.003533	0.001404	-0.003533	0.999994	0.000272	-0.001403	-0.000277	0.999999
22749	0.217899	0.146626	10.017690	0.005766	0.004534	-0.000522	0.999993	0.003518	0.001397	-0.003518	0.999994	0.000258	-0.001396	-0.000263	0.999999
22750	0.232765	0.142819	10.036166	0.008520	0.004221	0.000760	0.999993	0.003515	0.001392	-0.003515	0.999994	0.000273	-0.001391	-0.000278	0.999999
22751	0.229025	0.119519	10.032963	0.005227	0.006228	0.000978	0.999993	0.003534	0.001366	-0.003534	0.999994	0.000255	-0.001365	-0.000260	0.999999
22752	0.235242	0.148214	10.002060	0.007031	0.002700	0.000008	0.999993	0.003523	0.001376	-0.003523	0.999994	0.000256	-0.001375	-0.000260	0.999999
22753	0.231532	0.144826	10.036166	0.007108	0.002573	0.003426	0.999993	0.003559	0.001389	-0.003559	0.999994	0.000256	-0.001388	-0.000261	0.999999
22754	0.209134	0.121984	10.048594	0.007254	0.006056	0.000230	0.999993	0.003550	0.001366	-0.003551	0.999994	0.000259	-0.001365	-0.000264	0.999999
22755	0.196620	0.151241	10.033311	0.007758	0.002558	0.002037	0.999993	0.003562	0.001376	-0.003562	0.999994	0.000268	-0.001376	-0.000273	0.999999
22756	0.245951	0.122612	10.017334	0.007108	0.002574	0.003426	0.999993	0.003585	0.001389	-0.003585	0.999994	0.000269	-0.001388	-0.000274	0.999999
22757	0.199323	0.176711	10.036495	0.007681	0.002685	-0.001380	0.999993	0.003572	0.001396	-0.003572	0.999994	0.000275	-0.001395	-0.000280	0.999999
22758	0.230137	0.128704	9.998843	0.009135	0.002403	0.002678	0.999993	0.003588	0.001410	-0.003588	0.999994	0.000296	-0.001409	-0.000301	0.999999
22759	0.214350	0.153867	10.017658	0.005731	0.002731	0.002785	0.999992	0.003615	0.001420	-0.003615	0.999993	0.000283	-0.001419	-0.000288	0.999999
22760	0.229377	0.149958	10.036140	0.006381	0.002716	0.001397	0.999992	0.003617	0.001430	-0.003617	0.999993	0.000276	-0.001429	-0.000281	0.999999
22761	0.207287	0.107132	10.011274	0.006493	0.004394	0.001507	0.999992	0.003618	0.001419	-0.003619	0.999993	0.000275	-0.001418	-0.000280	0.999999
22762	0.197993	0.160268	9.999165	0.006493	0.004394	0.001507	0.999992	0.003622	0.001413	-0.003622	0.999993	0.000269	-0.001412	-0.000274	0.999999
22763	0.228221	0.151823	10.036138	0.005004	0.002872	0.000756	0.999992	0.003608	0.001422	-0.003608	0.999993	0.000250	-0.001421	-0.000255	0.999999
22764	0.224470	0.128418	10.032956	0.006716	0.007751	0.001728	0.999993	0.003615	0.001382	-0.003615	0.999993	0.000247	-0.001381	-0.000252	0.999999
22765	0.245924	0.152618	10.020522	0.006381	0.002716	0.001397	0.999993	0.003611	0.001390	-0.003611	0.999993	0.000241	-0.001389	-0.000246	0.999999
22766	0.211452	0.158421	10.017649	0.010659	0.005730	0.000124	0.999993	0.003602	0.001370	-0.003602	0.999993	0.000278	-0.001369	-0.000283	0.999999
22767	0.226560	0.134766	9.998845	0.005004	0.002873	0.000756	0.999993	0.003603	0.001378	-0.003604	0.999993	0.000262	-0.001377	-0.000267	0.999999
22768	0.210660	0.159744	10.017645	0.005842	0.004411	0.002896	0.999993	0.003621	0.001371	-0.003621	0.999993	0.000250	-0.001370	-0.000255	0.999999
22769	0.222299	0.131932	10.032959	0.007869	0.004239	0.002149	0.999993	0.003623	0.001365	-0.003624	0.999993	0.000261	-0.001364	-0.000266	0.999999
22770	0.225357	0.136834	9.998844	0.009246	0.004083	0.002790	0.999992	0.003640	0.001362	-0.003641	0.999993	0.000283	-0.001361	-0.000288	0.999999
22771	0.243453	0.157176	10.020511	0.007869	0.004240	0.002149	0.999992	0.003646	0.001353	-0.003646	0.999993	0.000291	-0.001352	-0.000296	0.999999
22772	0.190542	0.143312	9.995960	0.005655	0.002858	-0.000632	0.999992	0.003628	0.001362	-0.003628	0.999993	0.000278	-0.001361	-0.000283	0.999999
22773	0.235954	0.130431	10.051452	0.006604	0.006075	0.001618	0.999992	0.003641	0.001338	-0.003641	0.999993	0.000272	-0.001337	-0.000277	0.999999
22774	0.205205	0.140091	10.014452	0.006772	-0.002458	0.003097	0.999992	0.003660	0.001400	-0.003660	0.999993	0.000269	-0.001399	-0.000274	0.999999
22775	0.186264	0.141215	10.030060	0.006604	0.006075	0.001617	0.999992	0.003676	0.001378	-0.003676	0.999993	0.000264	-0.001377	-0.000269	0.999999
22776	0.223268	0.140949	9.998834	0.006493	0.004396	0.001507	0.999992	0.003680	0.001371	-0.003680	0.999993	0.000259	-0.001370	-0.000264	0.999999
22777	0.238206	0.137198	10.017332	0.008408	0.002546	0.000651	0.999992	0.003672	0.001386	-0.003672	0.999993	0.000278	-0.001384	-0.000283	0.999999
22778	0.203897	0.142857	10.014439	0.005730	0.002734	0.002786	0.999992	0.003688	0.001396	-0.003689	0.999993	0.000265	-0.001395	-0.000270	0.999999
22779	0.240737	0.162644	10.020490	0.009282	0.005888	-0.000517	0.999992	0.003682	0.001374	-0.003682	0.999993	0.000288	-0.001373	-0.000293	0.999999
22780	0.221794	0.143822	9.998826	0.004353	0.002890	0.002144	0.999992	0.003691	0.001382	-0.003692	0.999993	0.000262	-0.001381	-0.000267	0.999999
22781	0.199096	0.140810	10.048551	0.006604	0.006076	0.001617	0.999992	0.003660	0.001358	-0.003660	0.999993	0.000259	-0.001357	-0.000264	0.999999
22782	0.236206	0.140728	10.017330	0.010435	0.002375	-0.000094	0.999992	0.003648	0.001371	-0.003648	0.999993	0.000293	-0.001370	-0.000298	0.999999
22783	0.217440	0.121994	9.995664	0.005004	0.002874	0.000756	0.999992	0.003635	0.001380	-0.003635	0.999993	0.000275	-0.001379	-0.000280	0.999999
22784	0.238898	0.166130	10.020477	0.007757	0.002563	0.002040	0.999992	0.003644	0.001392	-0.003644	0.999993	0.000282	-0.001391	-0.000287	0.999999
22785	0.220049	0.147331	9.998813	0.006492	0.004398	0.001507	0.999992	0.003638	0.001382	-0.003638	0.999993	0.000278	-0.001381	-0.000283	0.999999
22786	0.219536	0.148050	9.998814	0.007981	0.005921	0.002259	0.999992	0.003650	0.001360	-0.003650	0.999993	0.000288	-0.001359	-0.000293	0.999999
22787	0.215605	0.144688	10.032929	0.005004	0.002875	0.000756	0.999992	0.003632	0.001371	-0.003633	0.999993	0.000269	-0.001370	-0.000274	0.999999
22788	0.234011	0.144855	10.017323	0.007794	0.004365	-0.001268	0.999993	0.003609	0.001364	-0.003609	0.999993	0.000277	-0.001363	-0.000282	0.999999
22789	0.208436	0.098052	10.026632	0.006381	0.002720	0.001398	0.999993	0.003606	0.001372	-0.003607	0.999993	0.000278	-0.001371	-0.000283	0.999999
22790	0.214360	0.166810	10.070179	0.009133	0.002409	0.002682	0.999992	0.003622	0.001385	-0.003623	0.999993	0.000299	-0.001384	-0.000304	0.999999
22791	0.226433	0.119185	10.048282	0.007757	0.002565	0.002040	0.999992	0.003616	0.001395	-0.003616	0.999993	0.000308	-0.001393	-0.000313	0.999999
22792	0.210813	0.124374	10.029768	0.006492	0.004399	0.001507	0.999992	0.003620	0.001388	-0.003620	0.999993	0.000303	-0.001387	-0.000308	0.999999
22793	0.213608	0.149154	10.032906	0.009171	0.004211	-0.000626	0.999993	0.003609	0.001382	-0.003609	0.999993	0.000329	-0.001380	-0.000334	0.999999
22794	0.232050	0.149619	10.017298	0.009784	0.002393	0.001295	0.999993	0.003611	0.001395	-0.003611	0.999993	0.000356	-0.001394	-0.000361	0.999999
22795	0.197592	0.155464	10.014378	0.007981	0.005924	0.002258	0.999993	0.003620	0.001373	-0.003620	0.999993	0.000369	-0.001371	-0.000374	0.999999
22796	0.209213	0.127814	10.029758	0.008408	0.002549	0.000653	0.999993	0.003615	0.001385	-0.003616	0.999993	0.000383	-0.001383	-0.000388	0.999999
22797	0.193513	0.133034	10.011239	0.006604	0.006079	0.001616	0.999993	0.003602	0.001360	-0.003602	0.999993	0.000381	-0.001358	-0.000386	0.999999
22798	0.227102	0.128654	10.014162	0.004930	0.002997	-0.002661	0.999993	0.003563	0.001367	-0.003564	0.999994	0.000361	-0.001365	-0.000366	0.999999
22799	0.245401	0.148745	10.035809	0.006342	0.000921	0.004708	0.999993	0.003597	0.001397	-0.003597	0.999993	0.000362	-0.001396	-0.000367	0.999999
22800	0.229880	0.153917	10.017283	0.007869	0.004246	0.002150	0.999993	0.003607	0.001392	-0.003608	0.999993	0.000370	-0.001391	-0.000375	0.999999
22801	0.207445	0.131163	10.029751	0.007144	0.004384	0.000120	0.999993	0.003587	0.001381	-0.003587	0.999993	0.000375	-0.001380	-0.000380	0.999999
22802	0.222555	0.107353	10.011033	0.006492	0.004401	0.001507	0.999993	0.003591	0.001375	-0.003591	0.999993	0.000370	-0.001374	-0.000374	0.999999
22803	0.231724	0.180134	10.020403	0.009283	0.005891	-0.000517	0.999993	0.003566	0.001350	-0.003566	0.999994	0.000399	-0.001349	-0.000404	0.999999
22804	0.224922	0.132848	10.014157	0.004966	0.001077	0.004066	0.999993	0.003594	0.001377	-0.003595	0.999993	0.000378	-0.001376	-0.000383	0.999999
22805	0.202559	0.109991	10.026629	0.007907	0.006046	-0.001160	0.999993	0.003578	0.001346	-0.003578	0.999994	0.000392	-0.001345	-0.000397	0.999999
22806	0.224036	0.134176	10.014159	0.005767	0.004539	-0.000523	0.999993	0.003561	0.001338	-0.003562	0.999994	0.000380	-0.001337	-0.000385	0.999999
22807	0.208052	0.159425	10.032865	0.009245	0.004092	0.002793	0.999993	0.003567	0.001333	-0.003568	0.999994	0.000408	-0.001331	-0.000412	0.999999
22808	0.223267	0.135703	10.014155	0.006380	0.002723	0.001399	0.999993	0.003570	0.001343	-0.003570	0.999994	0.000401	-0.001342	-0.000406	0.999999
22809	0.222996	0.136373	10.014152	0.007032	0.002705	0.000012	0.999993	0.003587	0.001348	-0.003587	0.999993	0.000408	-0.001346	-0.000413	0.999999
22810	0.203934	0.137514	10.029738	0.005655	0.002860	-0.000631	0.999993	0.003569	0.001356	-0.003569	0.999994	0.000395	-0.001355	-0.000400	0.999999
22811	0.226047	0.141518	9.980028	0.005617	0.001061	0.002679	0.999993	0.003613	0.001380	-0.003614	0.999993	0.000388	-0.001379	-0.000393	0.999999
22812	0.206621	0.162787	10.032841	0.008632	0.005910	0.000870	0.999993	0.003612	0.001359	-0.003612	0.999993	0.000405	-0.001357	-0.000410	0.999999
22813	0.221745	0.138961	10.014145	0.005077	0.002759	0.004175	0.999992	0.003653	0.001366	-0.003653	0.999993	0.000391	-0.001365	-0.000396	0.999999
22814	0.221007	0.159667	10.051370	0.007907	0.006047	-0.001160	0.999993	0.003631	0.001343	-0.003631	0.999993	0.000401	-0.001341	-0.000406	0.999999
22815	0.236432	0.115914	9.995455	0.008408	0.002552	0.000655	0.999992	0.003639	0.001350	-0.003640	0.999993	0.000419	-0.001349	-0.000424	0.999999
22816	0.201827	0.141711	10.029723	0.007032	0.002706	0.000012	0.999992	0.003628	0.001361	-0.003629	0.999993	0.000420	-0.001359	-0.000425	0.999999
22817	0.235512	0.137460	10.032672	0.007144	0.004386	0.000120	0.999992	0.003634	0.001352	-0.003634	0.999993	0.000427	-0.001351	-0.000432	0.999999
22818	0.216589	0.118588	10.011037	0.006492	0.004404	0.001507	0.999992	0.003638	0.001346	-0.003638	0.999993	0.000422	-0.001344	-0.000427	0.999999
22819	0.216066	0.119308	10.011040	0.007907	0.006047	-0.001160	0.999993	0.003637	0.001314	-0.003637	0.999993	0.000436	-0.001313	-0.000440	0.999999
22820	0.234100	0.139547	10.032676	0.005656	0.002861	-0.000631	0.999993	0.003619	0.001323	-0.003619	0.999993	0.000422	-0.001322	-0.000427	0.999999
22821	0.237299	0.144248	9.998553	0.009968	0.003960	0.004824	0.999992	0.003677	0.001315	-0.003678	0.999993	0.000453	-0.001313	-0.000458	0.999999
22822	0.203223	0.129804	9.958377	0.003628	0.003033	0.000114	0.999992	0.003666	0.001322	-0.003667	0.999993	0.000420	-0.001320	-0.000424	0.999999
22823	0.233049	0.141610	10.032672	0.008520	0.004232	0.000763	0.999992	0.003664	0.001312	-0.003665	0.999993	0.000440	-0.001310	-0.000444	0.999999
22824	0.217453	0.146828	10.014126	0.007032	0.002707	0.000013	0.999992	0.003653	0.001322	-0.003654	0.999993	0.000440	-0.001321	-0.000445	0.999999
22825	0.217182	0.147498	10.014122	0.006380	0.002725	0.001400	0.999992	0.003686	0.001325	-0.003686	0.999993	0.000435	-0.001323	-0.000440	0.999999
22826	0.216752	0.148213	10.014121	0.007980	0.005931	0.002258	0.999992	0.003698	0.001303	-0.003698	0.999993	0.000444	-0.001302	-0.000449	0.999999
22827	0.216397	0.148820	10.014120	0.004240	0.001218	0.002037	0.999992	0.003725	0.001322	-0.003725	0.999993	0.000419	-0.001320	-0.000424	0.999999
22828	0.228133	0.120985	10.029579	0.007796	0.004369	-0.001267	0.999992	0.003701	0.001315	-0.003702	0.999993	0.000428	-0.001314	-0.000433	0.999999
22829	0.212472	0.126374	10.011030	0.011271	0.003926	0.002050	0.999992	0.003744	0.001308	-0.003744	0.999993	0.000473	-0.001306	-0.000478	0.999999
22830	0.208423	0.123296	10.045152	0.005300	0.006122	0.004389	0.999992	0.003776	0.001285	-0.003777	0.999993	0.000455	-0.001283	-0.000460	0.999999
22831	0.214766	0.151811	10.014110	0.007032	0.002708	0.000013	0.999992	0.003778	0.001288	-0.003779	0.999993	0.000462	-0.001286	-0.000467	0.999999
22832	0.248778	0.127449	9.979886	0.007216	0.004271	0.003538	0.999992	0.003802	0.001283	-0.003803	0.999993	0.000463	-0.001281	-0.000468	0.999999
22833	0.229230	0.148773	10.032656	0.006492	0.004406	0.001507	0.999992	0.003845	0.001268	-0.003845	0.999992	0.000464	-0.001266	-0.000469	0.999999
22834	0.213550	0.153849	10.014105	0.006492	0.004406	0.001507	0.999992	0.003848	0.001261	-0.003849	0.999992	0.000459	-0.001260	-0.000464	0.999999
22835	0.191005	0.131173	10.026601	0.009284	0.005895	-0.000517	0.999992	0.003851	0.001234	-0.003851	0.999992	0.000483	-0.001232	-0.000487	0.999999
22836	0.221370	0.102954	10.026514	0.005656	0.002862	-0.000630	0.999992	0.003833	0.001242	-0.003833	0.999993	0.000470	-0.001240	-0.000474	0.999999
22837	0.242953	0.126962	10.014020	0.005299	0.006124	0.004388	0.999992	0.003873	0.001215	-0.003874	0.999992	0.000459	-0.001213	-0.000464	0.999999
22838	0.208585	0.132739	10.011029	0.011047	0.000568	0.001839	0.999992	0.003881	0.001247	-0.003881	0.999992	0.000499	-0.001245	-0.000504	0.999999
22839	0.211655	0.157647	10.014086	0.007032	0.002708	0.000014	0.999992	0.003910	0.001248	-0.003911	0.999992	0.000507	-0.001246	-0.000512	0.999999
22840	0.226959	0.133835	9.995450	0.007755	0.002574	0.002045	0.999992	0.003919	0.001260	-0.003920	0.999992	0.000514	-0.001258	-0.000519	0.999999
22841	0.207820	0.135158	10.011013	0.007867	0.004254	0.002151	0.999991	0.003951	0.001248	-0.003951	0.999992	0.000528	-0.001246	-0.000533	0.999999
22842	0.225858	0.155459	10.032631	0.006492	0.004408	0.001507	0.999991	0.003954	0.001241	-0.003955	0.999992	0.000522	-0.001239	-0.000527	0.999999
22843	0.219026	0.108092	10.026511	0.006309	0.002843	-0.002017	0.999991	0.003945	0.001244	-0.003946	0.999992	0.000521	-0.001242	-0.000526	0.999999
22844	0.210324	0.141050	9.976884	0.007103	0.002594	0.003432	0.999991	0.003968	0.001256	-0.003969	0.999992	0.000521	-0.001254	-0.000526	0.999999
22845	0.221556	0.133587	10.029566	0.009213	0.006012	-0.003935	0.999991	0.003943	0.001226	-0.003944	0.999992	0.000549	-0.001224	-0.000554	0.999999
22846	0.221024	0.134274	10.029569	0.004463	0.004581	0.002250	0.999991	0.003954	0.001218	-0.003955	0.999992	0.000523	-0.001216	-0.000528	0.999999
22847	0.208919	0.143057	9.976885	0.005839	0.004428	0.002894	0.999991	0.003988	0.001206	-0.003989	0.999992	0.000516	-0.001204	-0.000521	0.999999
22848	0.254171	0.130500	10.032577	0.007797	0.004370	-0.001267	0.999991	0.003964	0.001199	-0.003965	0.999992	0.000524	-0.001197	-0.000529	0.999999
22849	0.204474	0.140662	10.011006	0.007867	0.004256	0.002151	0.999991	0.003994	0.001187	-0.003994	0.999992	0.000539	-0.001185	-0.000544	0.999999
22850	0.237827	0.156662	10.051182	0.008407	0.002557	0.000659	0.999991	0.003989	0.001199	-0.003990	0.999992	0.000553	-0.001196	-0.000558	0.999999
22851	0.222679	0.141652	9.995439	0.006379	0.002729	0.001401	0.999991	0.004023	0.001202	-0.004024	0.999992	0.000547	-0.001200	-0.000552	0.999999
22852	0.237552	0.137885	10.014005	0.006491	0.004409	0.001507	0.999991	0.004027	0.001195	-0.004028	0.999992	0.000542	-0.001193	-0.000547	0.999999
22853	0.203162	0.143495	10.010992	0.006379	0.002729	0.001402	0.999991	0.004056	0.001196	-0.004057	0.999992	0.000543	-0.001194	-0.000548	0.999999
22854	0.218209	0.139754	10.029556	0.006990	0.000916	0.003327	0.999991	0.004078	0.001225	-0.004078	0.999992	0.000542	-0.001223	-0.000547	0.999999
22855	0.202712	0.144829	10.010982	0.006421	0.004523	-0.001911	0.999991	0.004072	0.001211	-0.004073	0.999992	0.000541	-0.001208	-0.000545	0.999999
22856	0.221081	0.145012	9.995426	0.008520	0.004238	0.000765	0.999991	0.004069	0.001205	-0.004070	0.999992	0.000556	-0.001203	-0.000561	0.999999
22857	0.195020	0.118520	10.042066	0.007144	0.004391	0.000120	0.999991	0.004076	0.001191	-0.004077	0.999992	0.000560	-0.001189	-0.000565	0.999999
22858	0.250742	0.137668	10.032567	0.006379	0.002730	0.001402	0.999991	0.004079	0.001202	-0.004079	0.999992	0.000554	-0.001199	-0.000558	0.999999
22859	0.216437	0.143273	10.029544	0.006379	0.002730	0.001402	0.999991	0.004094	0.001201	-0.004095	0.999991	0.000549	-0.001199	-0.000554	0.999999
22860	0.231825	0.119326	10.010955	0.006267	0.001050	0.001297	0.999991	0.004095	0.001228	-0.004096	0.999991	0.000542	-0.001226	-0.000547	0.999999
22861	0.216062	0.144604	10.029533	0.007685	0.002691	-0.001372	0.999991	0.004086	0.001228	-0.004086	0.999991	0.000552	-0.001225	-0.000557	0.999999
22862	0.238208	0.148694	9.979850	0.009130	0.002426	0.002691	0.999991	0.004102	0.001241	-0.004102	0.999991	0.000573	-0.001239	-0.000578	0.999999
22863	0.212138	0.122188	10.026498	0.005881	0.006224	-0.000420	0.999991	0.004108	0.001211	-0.004109	0.999991	0.000570	-0.001208	-0.000575	0.999999
22864	0.196020	0.147357	10.045077	0.005769	0.004544	-0.000525	0.999991	0.004092	0.001203	-0.004092	0.999991	0.000558	-0.001200	-0.000563	0.999999
22865	0.233275	0.146779	10.013979	0.005656	0.002864	-0.000630	0.999991	0.004095	0.001203	-0.004096	0.999991	0.000549	-0.001201	-0.000554	0.999999
22866	0.229676	0.123412	10.010955	0.007144	0.004392	0.000120	0.999991	0.004085	0.001196	-0.004086	0.999992	0.000550	-0.001194	-0.000555	0.999999
22867	0.201682	0.177215	10.013965	0.009172	0.004220	-0.000622	0.999991	0.004088	0.001186	-0.004089	0.999991	0.000577	-0.001184	-0.000582	0.999999
22868	0.228981	0.124932	10.010952	0.004961	0.001092	0.004071	0.999991	0.004116	0.001213	-0.004117	0.999991	0.000556	-0.001211	-0.000561	0.999999
22869	0.213213	0.150153	10.029513	0.007685	0.002691	-0.001371	0.999991	0.004099	0.001216	-0.004100	0.999991	0.000566	-0.001214	-0.000571	0.999999
22870	0.228522	0.126266	10.010946	0.006379	0.002732	0.001402	0.999991	0.004101	0.001227	-0.004102	0.999991	0.000560	-0.001224	-0.000565	0.999999
22871	0.231394	0.150918	10.013962	0.006422	0.004524	-0.001912	0.999991	0.004076	0.001207	-0.004077	0.999992	0.000557	-0.001205	-0.000562	0.999999
22872	0.190168	0.128786	10.042033	0.007754	0.002580	0.002047	0.999991	0.004085	0.001219	-0.004086	0.999991	0.000564	-0.001217	-0.000569	0.999999
22873	0.242677	0.124047	10.029527	0.008519	0.004241	0.000765	0.999991	0.004112	0.001203	-0.004113	0.999991	0.000585	-0.001201	-0.000590	0.999999
22874	0.174341	0.134653	10.023440	0.004891	0.001204	0.000653	0.999991	0.004106	0.001229	-0.004107	0.999991	0.000564	-0.001226	-0.000569	0.999999
22875	0.223221	0.125914	10.045068	0.007256	0.006074	0.000225	0.999991	0.004131	0.001197	-0.004132	0.999991	0.000569	-0.001195	-0.000574	0.999999
22876	0.248451	0.153978	9.998405	0.009713	0.002520	-0.002113	0.999991	0.004099	0.001209	-0.004100	0.999991	0.000597	-0.001206	-0.000602	0.999999
22877	0.248280	0.154743	9.998398	0.005682	0.000962	0.006103	0.999991	0.004178	0.001229	-0.004178	0.999991	0.000588	-0.001226	-0.000593	0.999999
22878	0.191922	0.136858	10.007883	0.005769	0.004545	-0.000525	0.999991	0.004161	0.001221	-0.004162	0.999991	0.000576	-0.001218	-0.000581	0.999999
22879	0.225605	0.132667	10.010929	0.009782	0.002409	0.001306	0.999990	0.004182	0.001228	-0.004183	0.999991	0.000609	-0.001225	-0.000614	0.999999
22880	0.229045	0.137280	9.976793	0.006920	0.001032	-0.000088	0.999991	0.004170	0.001255	-0.004171	0.999991	0.000608	-0.001252	-0.000613	0.999999
22881	0.209577	0.158814	10.029456	0.007144	0.004394	0.000120	0.999991	0.004177	0.001241	-0.004178	0.999991	0.000614	-0.001239	-0.000619	0.999999
22882	0.224638	0.134892	10.010921	0.006603	0.006095	0.001611	0.999991	0.004182	0.001218	-0.004183	0.999991	0.000609	-0.001215	-0.000615	0.999999
22883	0.227519	0.159511	10.013917	0.005613	0.001074	0.002685	0.999990	0.004226	0.001237	-0.004227	0.999991	0.000599	-0.001235	-0.000604	0.999999
22884	0.201782	0.112766	10.023463	0.008022	0.007735	-0.001059	0.999990	0.004205	0.001197	-0.004205	0.999991	0.000609	-0.001194	-0.000614	0.999999
22885	0.208221	0.141432	9.992324	0.009738	0.000620	0.004621	0.999997	0.002189	0.001068	-0.002190	0.999998	0.000378	-0.001067	-0.000380	0.999999
22886	0.241828	0.137244	9.995383	0.005994	0.007908	-0.000318	0.999997	0.002175	0.001026	-0.002176	0.999998	0.000367	-0.001025	-0.000370	0.999999
22887	0.203645	0.139035	10.026454	0.005725	0.002756	0.002789	0.999997	0.002235	0.001028	-0.002236	0.999997	0.000357	-0.001027	-0.000359	0.999999
22888	0.222107	0.138969	10.010922	0.005116	0.004567	0.000861	0.999997	0.002232	0.001020	-0.002233	0.999997	0.000337	-0.001019	-0.000340	0.999999
22889	0.225291	0.143372	9.976793	0.007866	0.004264	0.002152	0.999997	0.002314	0.001006	-0.002314	0.999997	0.000349	-0.001005	-0.000352	0.999999
22890	0.236133	0.156256	10.066634	0.007032	0.002714	0.000017	0.999997	0.002302	0.001016	-0.002303	0.999997	0.000349	-0.001015	-0.000352	0.999999
22891	0.223941	0.165168	10.013906	0.008720	0.009505	-0.005760	0.999997	0.002278	0.000947	-0.002279	0.999997	0.000373	-0.000946	-0.000375	0.999999
22892	0.220172	0.141977	10.010922	0.007573	0.001012	-0.001473	0.999997	0.002252	0.000973	-0.002253	0.999997	0.000379	-0.000973	-0.000381	0.999999
22893	0.201289	0.122933	9.989340	0.004687	0.007951	0.002454	0.999997	0.002278	0.000924	-0.002278	0.999997	0.000360	-0.000923	-0.000362	1.000000
22894	0.197309	0.119931	10.023468	0.010211	-0.000971	-0.000285	0.999997	0.002264	0.000971	-0.002264	0.999997	0.000392	-0.000970	-0.000394	0.999999
22895	0.215841	0.140615	10.045034	0.010211	-0.000971	-0.000285	0.999997	0.002266	0.001011	-0.002266	0.999997	0.000427	-0.001010	-0.000429	0.999999
22896	0.194767	0.077816	9.983358	0.012916	-0.003062	0.004322	0.999997	0.002298	0.001079	-0.002299	0.999997	0.000485	-0.001078	-0.000488	0.999999
22897	0.010404	-1.124670	10.076613	-0.004806	0.013542	-0.040851	0.999998	0.001903	0.000969	-0.001904	0.999998	0.000378	-0.000968	-0.000380	0.999999
22898	0.150485	-0.912306	10.010231	0.005940	0.007275	0.250492	0.999990	0.004397	0.000969	-0.004397	0.999990	0.000313	-0.000967	-0.000317	0.999999
22899	0.361362	0.747197	10.004531	0.004017	0.012639	0.431175	0.999962	0.008719	0.000935	-0.008719	0.999962	0.000192	-0.000933	-0.000200	1.000000
22900	0.390641	1.858326	10.023487	0.005988	0.004988	0.103013	0.999952	0.009738	0.000936	-0.009738	0.999953	0.000159	-0.000935	-0.000168	1.000000
22901	0.242133	0.192979	10.001371	0.002072	0.011816	-0.005471	0.999953	0.009699	0.000849	-0.009699	0.999953	0.000112	-0.000848	-0.000120	1.000000
22902	0.249285	0.161267	10.051157	0.006492	0.006283	-0.005228	0.999953	0.009636	0.000822	-0.009636	0.999954	0.000108	-0.000821	-0.000116	1.000000
22903	0.248633	0.141213	10.014077	-0.001853	0.011975	0.002849	0.999953	0.009692	0.000735	-0.009692	0.999953	0.000020	-0.000735	-0.000027	1.000000
22904	0.209936	0.122084	10.008040	-0.005137	0.013992	0.003046	0.999953	0.009711	0.000633	-0.009711	0.999953	-0.000102	-0.000634	0.000096	1.000000
22905	0.174989	0.127026	10.004958	-0.000364	0.005172	-0.001724	0.999953	0.009658	0.000613	-0.009658	0.999953	-0.000169	-0.000614	0.000163	1.000000
22906	0.239160	0.092967	10.008204	0.007696	0.002664	-0.001367	0.999953	0.009633	0.000623	-0.009633	0.999954	-0.000162	-0.000624	0.000156	1.000000
22907	0.208406	0.122910	10.008062	0.006989	0.000907	0.003336	0.999953	0.009703	0.000641	-0.009703	0.999953	-0.000161	-0.000643	0.000154	1.000000
22908	0.211573	0.147708	10.011025	0.009254	0.004088	0.002803	0.999953	0.009721	0.000638	-0.009721	0.999953	-0.000139	-0.000639	0.000133	1.000000
22909	0.207822	0.124495	10.008055	0.006387	0.002717	0.001406	0.999952	0.009728	0.000641	-0.009728	0.999953	-0.000143	-0.000642	0.000137	1.000000
22910	0.207290	0.145636	10.045143	0.010444	0.002354	-0.000073	0.999953	0.009717	0.000654	-0.009717	0.999953	-0.000109	-0.000655	0.000102	1.000000
22911	0.210713	0.150032	10.011008	0.003639	0.003026	0.000113	0.999952	0.009730	0.000652	-0.009730	0.999953	-0.000137	-0.000654	0.000131	1.000000
22912	0.206540	0.146721	10.045143	0.003811	0.006490	-0.003101	0.999953	0.009687	0.000624	-0.009687	0.999953	-0.000168	-0.000626	0.000162	1.000000
22913	0.205706	0.147019	10.045155	0.002020	0.010034	-0.002156	0.999953	0.009669	0.000556	-0.009669	0.999953	-0.000214	-0.000558	0.000209	1.000000
22914	0.189535	0.151576	10.026549	-0.000074	0.010317	-0.004836	0.999954	0.009609	0.000489	-0.009609	0.999954	-0.000284	-0.000491	0.000279	1.000000
22915	0.153833	0.176393	10.060552	-0.014436	0.017443	-0.026709	0.999956	0.009342	0.000336	-0.009341	0.999956	-0.000485	-0.000341	0.000482	1.000000
22916	0.182026	0.185231	10.134978	-0.037374	0.016687	-0.039300	0.999960	0.008930	0.000201	-0.008930	0.999960	-0.000921	-0.000210	0.000919	1.000000
22917	0.094150	0.150134	10.070122	-0.075811	0.015366	-0.037208	0.999963	0.008567	0.000074	-0.008567	0.999962	-0.001738	-0.000089	0.001738	0.999998
22918	0.017487	0.124926	9.902854	-0.064537	0.015772	-0.089513	0.999971	0.007648	-0.000057	-0.007648	0.999968	-0.002435	0.000038	0.002435	0.999997
22919	0.181016	0.374787	10.054041	-0.060843	0.012294	-0.098032	0.999978	0.006634	-0.000159	-0.006634	0.999973	-0.003090	0.000138	0.003091	0.999995
22920	0.379411	0.476558	10.141082	-0.108203	0.041417	-0.063648	0.999982	0.005966	-0.000542	-0.005968	0.999973	-0.004229	0.000517	0.004232	0.999991
22921	0.438278	0.366254	10.067558	-0.125010	0.022792	0.046555	0.999979	0.006433	-0.000736	-0.006437	0.999964	-0.005556	0.000700	0.005561	0.999984
22922	0.368096	0.176538	10.145605	-0.170817	0.014074	0.148400	0.999969	0.007869	-0.000828	-0.007874	0.999942	-0.007364	0.000770	0.007370	0.999973
22923	-0.036232	-0.124834	10.244070	-0.253572	0.023856	0.160365	0.999955	0.009434	-0.001027	-0.009444	0.999905	-0.009997	0.000932	0.010006	0.999950
22924	-0.243448	-0.424022	10.241869	-0.318787	0.124100	0.054652	0.999948	0.009904	-0.002229	-0.009932	0.999863	-0.013265	0.002097	0.013286	0.999910
22925	-0.039232	-1.198578	10.576794	-0.170174	0.205447	-0.133306	0.999954	0.008541	-0.004252	-0.008604	0.999850	-0.015008	0.004124	0.015044	0.999878
22926	0.188951	-0.919147	10.867077	-0.180439	0.156167	-0.097438	0.999955	0.007513	-0.005774	-0.007610	0.999829	-0.016867	0.005647	0.016910	0.999841
22927	0.667927	-0.068377	10.472209	-0.411152	0.036692	0.296133	0.999927	0.010411	-0.006126	-0.010538	0.999722	-0.021090	0.005905	0.021153	0.999759
22928	0.507330	0.594134	9.862142	-0.475132	-0.071115	0.516616	0.999866	0.015470	-0.005425	-0.015606	0.999540	-0.025987	0.005021	0.026068	0.999648
22929	0.037895	0.631727	9.310956	-0.356404	-0.071809	0.491881	0.999782	0.020356	-0.004743	-0.020488	0.999349	-0.029692	0.004135	0.029782	0.999548
22930	-0.271104	0.550808	9.197679	-0.125279	-0.018580	0.311892	0.999715	0.023438	-0.004570	-0.023568	0.999239	-0.031064	0.003838	0.031163	0.999507
22931	-0.201551	0.385231	9.867416	0.081005	-0.001755	-0.102579	0.999738	0.022440	-0.004508	-0.022567	0.999286	-0.030301	0.003825	0.030395	0.999531
22932	0.349066	-0.032401	10.170527	0.193270	-0.033175	-0.356287	0.999813	0.018913	-0.004086	-0.019021	0.999416	-0.028380	0.003547	0.028453	0.999589
22933	0.174079	-0.467384	10.544973	0.152749	-0.056256	-0.337317	0.999872	0.015593	-0.003448	-0.015681	0.999516	-0.026858	0.003028	0.026909	0.999633
22934	0.031850	-0.654563	10.677336	0.029829	-0.056653	-0.196996	0.999903	0.013626	-0.002819	-0.013696	0.999552	-0.026595	0.002456	0.026631	0.999642
22935	0.114348	-0.806542	10.928769	-0.094398	-0.043731	-0.140033	0.999922	0.012250	-0.002333	-0.012310	0.999544	-0.027576	0.001994	0.027603	0.999617
22936	0.105532	-0.937438	10.875445	-0.200829	-0.026715	-0.065920	0.999931	0.011541	-0.002017	-0.011596	0.999493	-0.029641	0.001674	0.029662	0.999559
22937	0.134201	-0.588733	10.664823	-0.330103	-0.019520	0.100602	0.999920	0.012523	-0.001811	-0.012576	0.999376	-0.033021	0.001396	0.033042	0.999453
22938	0.142018	-0.348451	10.316629	-0.383013	-0.036260	0.158075	0.999901	0.014019	-0.001441	-0.014062	0.999218	-0.036949	0.000922	0.036966	0.999316
22939	0.053509	-0.108616	10.081605	-0.320474	-0.047429	0.070123	0.999891	0.014714	-0.000952	-0.014740	0.999082	-0.040227	0.000359	0.040236	0.999190
22940	0.215833	0.148489	10.035187	-0.223920	-0.085738	-0.103231	0.999907	0.013647	-0.000027	-0.013636	0.999003	-0.042512	-0.000553	0.042509	0.999096
22941	0.743043	0.274186	10.235714	-0.098031	-0.174526	-0.243069	0.999935	0.011238	0.001827	-0.011147	0.998991	-0.043508	-0.002314	0.043485	0.999051
22942	0.697858	-0.023865	10.270288	0.020144	-0.273239	-0.326026	0.999957	0.008053	0.004691	-0.007842	0.999031	-0.043297	-0.005035	0.043258	0.999051
22943	0.290395	-0.188478	10.162032	0.049822	-0.327659	-0.275598	0.999953	0.005393	0.008084	-0.005042	0.999071	-0.042793	-0.008307	0.042751	0.999051
22944	0.188165	-0.409215	10.114078	-0.017438	-0.315807	-0.223394	0.999930	0.003236	0.011343	-0.002746	0.999073	-0.042968	-0.011471	0.042933	0.999012
22945	-0.073767	-0.428854	9.995059	-0.074722	-0.245152	-0.153460	0.999902	0.001748	0.013876	-0.001140	0.999043	-0.043731	-0.013940	0.043711	0.998947
22946	-0.061344	-0.311575	10.136038	-0.132120	-0.161991	-0.236856	0.999878	-0.000609	0.015606	0.001311	0.998985	-0.045035	-0.015563	0.045050	0.998864
22947	0.182165	-0.433340	10.140608	-0.168385	-0.108511	-0.277950	0.999853	-0.003398	0.016819	0.004180	0.998901	-0.046682	-0.016641	0.046746	0.998768
22948	0.333144	-0.392528	10.266959	-0.221688	-0.093253	-0.232439	0.999824	-0.005746	0.017869	0.006614	0.998783	-0.048875	-0.017566	0.048985	0.998645
22949	0.353754	-0.414589	10.389720	-0.273902	-0.107754	-0.203181	0.999788	-0.007805	0.019060	0.008780	0.998629	-0.051598	-0.018631	0.051755	0.998486
22950	0.236823	-0.521789	10.346561	-0.338919	-0.129886	-0.195434	0.999742	-0.009788	0.020476	0.010901	0.998429	-0.054969	-0.019905	0.055178	0.998278
22951	0.392644	-0.372928	10.176719	-0.398409	-0.133496	-0.136763	0.999697	-0.011191	0.021910	0.012466	0.998183	-0.058955	-0.021211	0.059210	0.998020
22952	0.674320	-0.213408	10.266425	-0.406241	-0.164326	-0.108322	0.999645	-0.012290	0.023645	0.013760	0.997917	-0.063027	-0.022821	0.063330	0.997732
22953	0.643183	-0.279969	10.167621	-0.399526	-0.199948	-0.109034	0.999579	-0.013370	0.025741	0.015070	0.997637	-0.067029	-0.024784	0.067388	0.997419
22954	0.556550	-0.537289	10.328543	-0.397724	-0.224802	-0.111377	0.999501	-0.014450	0.028089	0.016415	0.997341	-0.071007	-0.026989	0.071432	0.997080
22955	0.564425	-0.843303	10.292712	-0.367868	-0.235716	-0.138894	0.999408	-0.015783	0.030567	0.018030	0.997045	-0.074669	-0.029298	0.075176	0.996740
22956	0.174360	-1.042256	10.137589	-0.210739	-0.231334	-0.239283	0.999290	-0.018081	0.033064	0.020574	0.996841	-0.076709	-0.031572	0.077335	0.996505
22957	-0.038429	-1.050329	10.348821	-0.182120	-0.157813	-0.364379	0.999156	-0.021662	0.034910	0.024346	0.996625	-0.078391	-0.033094	0.079175	0.996311
22958	0.448315	-1.029120	10.476793	-0.271530	-0.099488	-0.339750	0.999032	-0.025051	0.036168	0.027914	0.996326	-0.080970	-0.034007	0.081902	0.996060
22959	0.640034	-0.896014	10.429348	-0.341555	-0.087959	-0.233901	0.998930	-0.027402	0.037250	0.030465	0.995974	-0.084303	-0.034790	0.085348	0.995744
22960	0.600732	-0.729363	10.197286	-0.383355	-0.120890	-0.204534	0.998819	-0.029442	0.038647	0.032754	0.995576	-0.088064	-0.035883	0.089226	0.995365
22961	0.522230	-0.361417	9.863055	-0.378058	-0.153692	-0.216386	0.998685	-0.031567	0.040388	0.035167	0.995160	-0.091760	-0.037296	0.093060	0.994962
22962	0.696215	-0.118889	9.769417	-0.370047	-0.152391	-0.173912	0.998560	-0.033263	0.042090	0.037156	0.994746	-0.095397	-0.038695	0.096823	0.994549
22963	0.935595	-0.185620	10.163695	-0.323164	-0.157989	-0.178641	0.998425	-0.034984	0.043856	0.039171	0.994360	-0.098561	-0.040160	0.100123	0.994164
22964	0.960854	-0.613549	10.607444	-0.270784	-0.180271	-0.271504	0.998237	-0.037594	0.045927	0.042087	0.993982	-0.101138	-0.041848	0.102893	0.993812
22965	0.701790	-1.082693	10.792929	-0.321933	-0.208878	-0.246083	0.998036	-0.039929	0.048269	0.044790	0.993544	-0.104233	-0.043795	0.106191	0.993381
22966	0.546006	-1.325877	10.891240	-0.397893	-0.226419	-0.260853	0.997808	-0.042401	0.050808	0.047699	0.992999	-0.108063	-0.045870	0.110250	0.992845
22967	0.594699	-1.366910	10.868025	-0.427004	-0.252218	-0.418531	0.997474	-0.046410	0.053766	0.052210	0.992329	-0.112057	-0.048153	0.114581	0.992246
22968	0.709840	-1.365625	10.626718	-0.464543	-0.273350	-0.483685	0.997068	-0.051038	0.057016	0.057409	0.991547	-0.116356	-0.050595	0.119288	0.991570
22969	0.708551	-1.131844	10.398383	-0.515833	-0.280298	-0.452762	0.996643	-0.055344	0.060324	0.062346	0.990672	-0.121168	-0.053056	0.124522	0.990797
22970	0.541453	-0.979974	10.022785	-0.615661	-0.244856	-0.331315	0.996287	-0.058486	0.063173	0.066155	0.989688	-0.127048	-0.055091	0.130756	0.989883
22971	0.689045	-0.850771	9.924509	-0.613662	-0.196476	-0.271590	0.995982	-0.061076	0.065491	0.069371	0.988693	-0.132946	-0.056630	0.136955	0.988957
22972	1.086890	-0.759881	9.915559	-0.538453	-0.187346	-0.211267	0.995714	-0.063051	0.067657	0.071936	0.987797	-0.138142	-0.058121	0.142417	0.988099
22973	1.145120	-0.926058	10.254795	-0.455674	-0.204657	-0.103845	0.995507	-0.063912	0.069865	0.073377	0.987056	-0.142608	-0.059846	0.147094	0.987310
22974	0.797822	-1.235033	10.309484	-0.425778	-0.212453	-0.070062	0.995315	-0.064412	0.072109	0.074468	0.986359	-0.146804	-0.061669	0.151486	0.986534
22975	0.680115	-1.502569	10.434418	-0.380065	-0.212421	-0.177713	0.995038	-0.065956	0.074498	0.076597	0.985647	-0.150444	-0.063506	0.155404	0.985808
22976	0.767768	-1.658449	10.396000	-0.287602	-0.247099	-0.368325	0.994581	-0.069305	0.077493	0.080553	0.984940	-0.152982	-0.065724	0.158395	0.985186
22977	0.848521	-1.533773	10.467644	-0.307561	-0.292079	-0.418738	0.994030	-0.073079	0.081013	0.085038	0.984145	-0.155651	-0.068353	0.161611	0.984484
22978	0.927344	-1.697419	10.370423	-0.387031	-0.293184	-0.341790	0.993518	-0.076095	0.084446	0.088837	0.983247	-0.159163	-0.070920	0.165633	0.983634
22979	1.784371	-1.179542	10.692285	-0.455388	-0.347352	-0.143001	0.993123	-0.077068	0.088133	0.090746	0.982354	-0.163541	-0.073974	0.170414	0.982592
22980	1.324928	-1.448899	10.648417	-0.675926	-0.389957	0.035638	0.992838	-0.076238	0.091978	0.091116	0.981177	-0.170264	-0.077266	0.177425	0.981096
22981	0.370349	-1.810485	10.361054	-0.847841	-0.327310	0.024670	0.992579	-0.075626	0.095224	0.091777	0.979624	-0.178647	-0.079774	0.186060	0.979294
22982	0.346201	-1.941292	10.060424	-0.972941	-0.330804	-0.131973	0.992163	-0.076539	0.098768	0.094138	0.977638	-0.188049	-0.082166	0.195874	0.977181
22983	0.595204	-2.126915	9.703891	-0.969729	-0.334573	-0.224098	0.991643	-0.078311	0.102521	0.097432	0.975493	-0.197283	-0.084559	0.205623	0.974971
22984	0.716927	-2.204647	9.630516	-0.882068	-0.297830	-0.247750	0.991119	-0.080331	0.105971	0.100881	0.973422	-0.205605	-0.086638	0.214470	0.972881
22985	0.861586	-2.225151	9.663974	-0.681005	-0.282157	-0.490650	0.990346	-0.084684	0.109747	0.106528	0.971525	-0.211641	-0.088699	0.221289	0.971166
22986	1.217245	-2.226126	9.588498	-0.513713	-0.341538	-0.682112	0.989273	-0.090714	0.114497	0.113900	0.969778	-0.215770	-0.091464	0.226497	0.969708
22987	1.158434	-2.172394	9.388547	-0.535127	-0.344201	-0.555679	0.988287	-0.095485	0.119041	0.120057	0.968029	-0.220240	-0.094206	0.231952	0.968155
22988	1.104039	-1.907249	9.302967	-0.641578	-0.263858	-0.328301	0.987614	-0.098219	0.122358	0.124091	0.966185	-0.226027	-0.096020	0.238411	0.966406
22989	1.303636	-2.131175	9.369095	-0.630658	-0.240289	-0.359850	0.986906	-0.101287	0.125529	0.128429	0.964286	-0.231641	-0.097583	0.244730	0.964668
22990	1.840067	-2.134425	9.722614	-0.529373	-0.319159	-0.387822	0.986064	-0.104400	0.129535	0.132942	0.962564	-0.236215	-0.100025	0.250144	0.963028
22991	1.505767	-2.308943	10.003708	-0.711151	-0.287371	-0.201833	0.985474	-0.105803	0.132839	0.135851	0.960519	-0.242790	-0.101906	0.257309	0.960941
22992	1.187800	-2.744203	9.874898	-0.841003	-0.166034	-0.169394	0.985042	-0.107194	0.134915	0.138591	0.958109	-0.250638	-0.102396	0.265587	0.958634
22993	1.365787	-2.562919	9.704678	-0.802532	-0.164010	-0.286986	0.984442	-0.109694	0.137263	0.142442	0.955611	-0.257911	-0.102879	0.273451	0.956368
22994	1.909800	-2.330423	9.520736	-0.751642	-0.229288	-0.277207	0.983776	-0.111897	0.140229	0.146147	0.953195	-0.264688	-0.104048	0.280888	0.954084
22995	2.089520	-2.362397	9.411210	-0.643329	-0.241640	-0.234205	0.983150	-0.113612	0.143210	0.149305	0.951078	-0.270480	-0.105474	0.287305	0.952014
22996	1.757535	-2.430156	9.460257	-0.604521	-0.250115	-0.125741	0.982667	-0.114240	0.145998	0.151359	0.949147	-0.276062	-0.107036	0.293375	0.949986
22997	1.235304	-2.737819	9.344361	-0.594201	-0.207088	-0.116610	0.982239	-0.114884	0.148354	0.153312	0.947221	-0.281547	-0.108179	0.299290	0.948010
22998	0.140219	-1.734244	9.167074	-0.426688	-0.474039	-0.676673	0.980635	-0.120032	0.154751	0.160579	0.945142	-0.284467	-0.112116	0.303808	0.946113
22999	2.703887	-1.771440	8.980439	-0.290241	-0.943124	-1.518803	0.976968	-0.131728	0.167874	0.175951	0.942394	-0.284490	-0.120728	0.307476	0.943866
23000	2.083392	-3.291579	9.731161	-0.411722	0.180455	-0.605456	0.976091	-0.138068	0.167879	0.182419	0.940312	-0.287292	-0.118192	0.311048	0.943016
23001	1.327002	-3.004654	10.699408	-0.628233	-0.249154	-0.487864	0.974862	-0.142044	0.171661	0.188094	0.937641	-0.292319	-0.119434	0.317260	0.940788
23002	2.337334	-2.566468	9.959608	-0.605061	-0.444916	-0.744501	0.972863	-0.147797	0.178029	0.196261	0.934623	-0.296585	-0.122555	0.323476	0.938266
23003	1.919819	-2.424965	9.853375	-0.475731	-0.391687	-0.871619	0.970604	-0.154836	0.184266	0.205467	0.931765	-0.299328	-0.125346	0.328389	0.936189
23004	1.632000	-2.281128	9.454493	-0.523620	-0.479897	-0.895995	0.968082	-0.161785	0.191422	0.214983	0.928623	-0.302393	-0.128836	0.333894	0.933765
23005	1.330018	-2.557922	9.306620	-0.608774	-0.399881	-0.946276	0.965450	-0.169420	0.197999	0.225094	0.925016	-0.306068	-0.131298	0.340062	0.931192
23006	2.216711	-2.928968	9.546550	-0.545473	-0.388115	-0.920723	0.962789	-0.176787	0.204410	0.234850	0.921564	-0.309136	-0.133725	0.345639	0.928790
23007	2.419684	-2.765972	9.848475	-0.555697	-0.403765	-0.718568	0.960493	-0.182182	0.210386	0.242676	0.918333	-0.312686	-0.136239	0.351388	0.926264
23008	2.572223	-2.846073	10.021867	-0.577366	-0.412945	-0.651651	0.958281	-0.186886	0.216265	0.249894	0.915074	-0.316532	-0.138743	0.357370	0.923600
23009	2.645115	-3.260520	10.468533	-0.598048	-0.433553	-0.656716	0.955967	-0.191522	0.222366	0.257197	0.911663	-0.320499	-0.141341	0.363578	0.920779
23010	2.514880	-3.590158	10.598626	-0.671766	-0.499623	-0.670952	0.953453	-0.196014	0.229143	0.264763	0.907881	-0.325042	-0.144322	0.370580	0.917519
23011	2.601426	-3.581141	10.220156	-0.724019	-0.550951	-0.682584	0.950759	-0.200375	0.236448	0.272536	0.903799	-0.329957	-0.147586	0.378150	0.913904
23012	2.666848	-3.311368	10.035542	-0.698802	-0.551635	-0.743491	0.947824	-0.205210	0.243965	0.280846	0.899609	-0.334408	-0.150850	0.385477	0.910303
23013	2.394494	-3.115872	9.874720	-0.677733	-0.624363	-0.882143	0.944295	-0.210946	0.252605	0.290436	0.895132	-0.338208	-0.154771	0.392734	0.906535
23014	2.267323	-2.695199	9.415086	-0.756024	-0.649557	-1.004583	0.940244	-0.217608	0.261892	0.301309	0.889982	-0.342265	-0.158599	0.400723	0.902367
23015	2.292240	-2.844806	9.098733	-0.830959	-0.554236	-1.098652	0.935921	-0.225390	0.270649	0.313163	0.884191	-0.346604	-0.161185	0.409152	0.898117
23016	2.700508	-3.118409	9.246858	-0.848027	-0.587155	-1.143771	0.931249	-0.233328	0.279882	0.325443	0.878071	-0.350824	-0.163899	0.417790	0.893638
23017	2.738535	-3.282658	9.292722	-0.888293	-0.727878	-1.009338	0.926620	-0.239391	0.289944	0.336545	0.871923	-0.355650	-0.167670	0.427131	0.888508
23018	2.586903	-3.121997	8.982495	-0.940478	-0.797879	-0.968385	0.921862	-0.244675	0.300507	0.347363	0.865498	-0.360906	-0.171783	0.437090	0.882861
23019	2.689712	-3.496584	8.788586	-0.957570	-0.839382	-0.923735	0.917046	-0.249254	0.311288	0.357802	0.858957	-0.366293	-0.176083	0.447286	0.876886
23020	2.934615	-3.681028	9.093121	-0.949183	-0.858184	-0.860146	0.912291	-0.253052	0.322008	0.367642	0.852472	-0.371659	-0.180454	0.457445	0.870735
23021	3.140082	-3.751700	9.059949	-0.976954	-0.856644	-0.839090	0.907492	-0.256537	0.332636	0.377346	0.845780	-0.377183	-0.184576	0.467809	0.864342
23022	3.091068	-3.569476	9.091498	-0.974996	-0.900983	-0.883049	0.902319	-0.260041	0.343801	0.387443	0.838855	-0.382373	-0.188967	0.478226	0.857666
23023	3.498526	-3.536024	8.669291	-0.967740	-0.963495	-1.010860	0.896385	-0.264168	0.355962	0.398672	0.831507	-0.386856	-0.193790	0.488684	0.850667
23024	3.626614	-3.441193	8.365805	-0.812045	-0.895777	-1.099032	0.890082	-0.269161	0.367839	0.410322	0.824571	-0.389511	-0.198468	0.497630	0.844379
23025	3.346686	-3.440010	8.210185	-0.737937	-0.788720	-1.201611	0.883409	-0.275364	0.379161	0.422663	0.817615	-0.390975	-0.202347	0.505648	0.838675
23026	3.519250	-4.079553	8.504926	-0.632784	-0.811072	-1.373369	0.875775	-0.282701	0.391278	0.436216	0.810602	-0.390692	-0.206722	0.512840	0.833224
23027	3.343156	-4.227186	8.280260	-0.443022	-0.760771	-1.698897	0.866589	-0.292763	0.404121	0.452064	0.803518	-0.387294	-0.211333	0.518313	0.828667
23028	3.474456	-4.039523	8.498355	-0.198684	-0.609009	-2.164646	0.855291	-0.307156	0.417291	0.471158	0.796152	-0.379674	-0.215608	0.521342	0.825661
23029	4.707817	-3.910531	8.893075	-0.066623	-0.587681	-2.491003	0.842027	-0.324065	0.431244	0.492433	0.788145	-0.369238	-0.220226	0.523267	0.823220
23030	4.898454	-4.204399	8.644960	0.068155	-0.602507	-2.486730	0.828214	-0.340636	0.445004	0.513012	0.780449	-0.357378	-0.225567	0.524278	0.821129
23031	4.884763	-3.863576	8.747719	0.170556	-0.586075	-2.366354	0.814550	-0.356144	0.457897	0.532007	0.773303	-0.344922	-0.231251	0.524561	0.819365
23032	4.931071	-3.755720	8.359953	0.246737	-0.462981	-2.237019	0.801425	-0.371102	0.469043	0.549428	0.766664	-0.332198	-0.236319	0.523937	0.818317
23033	5.025716	-3.510064	9.319277	0.280083	-0.358342	-2.206082	0.788330	-0.386209	0.478935	0.566202	0.759981	-0.319131	-0.240730	0.522754	0.817788
23034	4.957429	-3.285462	9.844702	-0.044563	-0.655618	-2.195885	0.774117	-0.399590	0.490990	0.583455	0.751282	-0.308473	-0.245610	0.525265	0.814722
23035	5.526534	-3.015241	9.817232	-0.546197	-1.143726	-2.106816	0.758695	-0.409592	0.506573	0.601082	0.739950	-0.301951	-0.251162	0.533581	0.807595
23036	5.877707	-2.945445	8.431414	-0.711885	-1.064762	-1.946598	0.744012	-0.418501	0.520867	0.617653	0.728116	-0.297243	-0.254855	0.542867	0.800215
23037	5.278273	-2.617509	8.350089	-0.910704	-0.836216	-1.876177	0.729998	-0.427814	0.532990	0.633954	0.715232	-0.294187	-0.255354	0.552647	0.793332
23038	5.320220	-2.708626	7.619211	-1.155348	-0.714802	-1.656895	0.717376	-0.435920	0.543457	0.649064	0.701633	-0.293984	-0.253154	0.563635	0.786275
23039	5.197752	-2.537473	7.246602	-1.323871	-0.560685	-1.358258	0.706863	-0.442508	0.551843	0.662264	0.688093	-0.296539	-0.248498	0.575078	0.779445
23040	5.225279	-2.438182	7.130490	-1.459995	-0.427470	-1.139257	0.697983	-0.448113	0.558583	0.674066	0.674471	-0.301204	-0.241775	0.586757	0.772827
23041	5.485240	-2.566914	7.016555	-1.540295	-0.381770	-0.977204	0.690197	-0.452694	0.564532	0.684749	0.660847	-0.307245	-0.233981	0.598623	0.766096
23042	5.454330	-2.375967	7.058691	-1.614507	-0.342834	-0.653598	0.684645	-0.455191	0.569264	0.693206	0.647981	-0.315574	-0.225226	0.610673	0.759178
23043	5.929828	-2.555991	7.019107	-1.702869	-0.331760	-0.434380	0.680604	-0.456215	0.573277	0.700203	0.635322	-0.325702	-0.215625	0.623084	0.751846
23044	6.314438	-3.035922	7.512463	-1.633814	-0.343585	-0.326102	0.677305	-0.456365	0.577052	0.706137	0.623375	-0.335817	-0.206465	0.634929	0.744471
23045	6.162998	-3.417066	8.050653	-1.647321	-0.404020	-0.317257	0.673948	-0.455996	0.581259	0.711888	0.611180	-0.345939	-0.197508	0.646936	0.736522
23046	6.239053	-3.718690	7.981378	-1.726772	-0.383619	-0.413119	0.669954	-0.456259	0.585653	0.718273	0.597839	-0.355911	-0.187738	0.659103	0.728243
23047	6.538579	-3.946911	7.532941	-1.621646	-0.214715	-0.597144	0.664984	-0.458620	0.589460	0.725465	0.584197	-0.363889	-0.177474	0.669613	0.721195
23048	6.236211	-3.496540	7.632440	-1.343488	-0.054410	-0.902429	0.658102	-0.463699	0.593199	0.733932	0.570930	-0.367943	-0.168060	0.677512	0.716054
23049	6.177400	-3.002430	7.635763	-1.234433	-0.120122	-1.248571	0.648489	-0.470177	0.598661	0.744268	0.556689	-0.369003	-0.159772	0.684859	0.710944
23050	6.241535	-2.952493	7.220333	-1.189736	-0.148499	-1.376474	0.637754	-0.476976	0.604784	0.755119	0.542000	-0.368824	-0.151873	0.691903	0.705836
23051	6.526839	-2.904061	6.940401	-1.032935	-0.293654	-1.445638	0.626144	-0.482927	0.612148	0.765927	0.527915	-0.366964	-0.145945	0.698632	0.700438
23052	6.271414	-2.214731	7.049830	-1.104131	-0.513701	-1.369239	0.614632	-0.486719	0.620751	0.776166	0.513521	-0.365872	-0.140692	0.706683	0.693401
23053	6.540257	-2.550605	6.709088	-1.286167	-0.588076	-1.221609	0.604021	-0.488997	0.629318	0.785572	0.498371	-0.366746	-0.134296	0.715897	0.685169
23054	6.712629	-3.436458	7.106597	-1.310953	-0.585841	-1.084540	0.594414	-0.490363	0.637351	0.793985	0.483552	-0.368463	-0.127511	0.725067	0.676771
23055	6.504347	-4.050709	7.186926	-1.291649	-0.670212	-1.104799	0.584479	-0.490998	0.645992	0.802304	0.468642	-0.369707	-0.121213	0.734367	0.667841
23056	7.075837	-3.852754	7.205592	-1.159652	-0.589590	-1.186692	0.573956	-0.492370	0.654329	0.810721	0.454214	-0.369351	-0.115348	0.742470	0.659874
23057	7.112050	-3.835875	7.279675	-1.139117	-0.465442	-1.259396	0.562931	-0.494771	0.662050	0.819313	0.439491	-0.368204	-0.108789	0.749700	0.652775
23058	7.090264	-3.869959	7.160044	-1.050042	-0.537376	-1.395121	0.550634	-0.497002	0.670665	0.828339	0.424682	-0.365375	-0.103227	0.756726	0.645531
23059	6.995537	-3.582219	6.824558	-0.938291	-0.675998	-1.630527	0.536132	-0.498936	0.680900	0.838284	0.409488	-0.359998	-0.099205	0.763795	0.637790
23060	6.974873	-3.922247	7.074154	-0.845689	-0.668632	-1.883183	0.519379	-0.501655	0.691800	0.849162	0.393692	-0.352037	-0.095755	0.770291	0.630462
23061	7.183069	-3.539769	6.650617	-0.908111	-0.631607	-1.826218	0.502962	-0.504094	0.702081	0.859464	0.377583	-0.344605	-0.091381	0.776737	0.623161
23062	7.329196	-2.888392	5.977202	-1.130338	-0.653725	-1.521253	0.488970	-0.504873	0.711345	0.868151	0.361114	-0.340457	-0.084989	0.784028	0.614880
23063	7.475308	-2.727892	5.157982	-1.344680	-0.602651	-1.074571	0.478802	-0.504143	0.718741	0.874604	0.345033	-0.340617	-0.076270	0.791702	0.606128
23064	7.474754	-2.676270	4.863053	-1.318944	-0.510351	-0.806721	0.471052	-0.502991	0.724645	0.879544	0.330385	-0.342416	-0.067179	0.798653	0.598031
23065	7.764593	-2.995215	5.204533	-1.147772	-0.497060	-0.818597	0.463240	-0.501824	0.730467	0.884238	0.316992	-0.342987	-0.059433	0.804791	0.590575
23066	7.911669	-3.635902	5.264759	-0.785574	-0.658221	-1.011494	0.453661	-0.499824	0.737813	0.889440	0.305566	-0.339891	-0.055565	0.810435	0.583187
23067	7.493271	-3.453129	5.282278	-0.517968	-0.794793	-1.238126	0.441978	-0.497262	0.746583	0.895362	0.295223	-0.333422	-0.054610	0.815827	0.575712
23068	7.342986	-3.446213	4.782836	-0.391393	-0.857302	-1.366777	0.429047	-0.494401	0.755968	0.901609	0.285317	-0.325108	-0.054957	0.821074	0.568170
23069	8.014565	-3.389997	4.392223	-0.207926	-1.079988	-1.408793	0.415518	-0.489653	0.766541	0.907748	0.276759	-0.315273	-0.057773	0.826828	0.559480
23070	7.992358	-3.346618	4.662362	0.076414	-1.390871	-1.339757	0.402309	-0.481954	0.778375	0.913244	0.270971	-0.304237	-0.064289	0.833244	0.549156
23071	7.860130	-3.224102	5.263881	0.201114	-1.494015	-1.169688	0.390428	-0.472759	0.789978	0.917801	0.267134	-0.293736	-0.072163	0.839725	0.538196
23072	8.035792	-3.353154	5.533850	-0.009763	-1.450783	-0.967071	0.380256	-0.463230	0.800515	0.921607	0.262540	-0.285854	-0.077751	0.846458	0.526748
23073	8.453949	-3.254362	5.471995	-0.263361	-1.343670	-0.661720	0.372855	-0.453646	0.809435	0.924398	0.257213	-0.281657	-0.080424	0.853257	0.515252
23074	8.568824	-2.908801	5.203821	-0.543384	-1.267817	-0.343529	0.368380	-0.443743	0.816938	0.926219	0.250885	-0.281382	-0.080097	0.860319	0.503424
23075	8.569064	-2.720035	4.690905	-0.615927	-1.187426	-0.283277	0.364526	-0.434270	0.823730	0.927859	0.244181	-0.281875	-0.078729	0.867056	0.491951
23076	8.541715	-2.514645	4.547019	-0.686078	-1.216156	-0.226451	0.361175	-0.424303	0.830373	0.929334	0.237081	-0.283075	-0.076756	0.873934	0.479946
23077	8.921259	-2.550027	4.758127	-0.750836	-1.198787	-0.227916	0.357838	-0.414393	0.836798	0.930842	0.229380	-0.284462	-0.074066	0.880717	0.467815
23078	9.147740	-2.587220	4.844580	-0.660552	-1.194344	-0.421619	0.352742	-0.404879	0.843591	0.932934	0.221705	-0.283693	-0.072167	0.887085	0.455930
23079	8.628950	-2.450465	4.593752	-0.564385	-1.151574	-0.708817	0.345028	-0.396295	0.850827	0.935906	0.213799	-0.279947	-0.070964	0.892883	0.444661
23080	8.880994	-2.575711	4.532609	-0.500133	-1.042035	-0.977634	0.334889	-0.389158	0.858141	0.939660	0.205503	-0.273509	-0.069912	0.897956	0.434497
23081	9.001524	-2.484811	4.166939	-0.429823	-1.088714	-1.026484	0.324235	-0.381573	0.865606	0.943416	0.197712	-0.266226	-0.069556	0.902946	0.424088
23082	8.907831	-2.182062	3.583982	-0.424791	-1.108566	-0.944559	0.314306	-0.373505	0.872758	0.946798	0.190323	-0.259519	-0.069174	0.907894	0.413453
23083	8.590615	-1.886638	3.200620	-0.432910	-1.011751	-0.694029	0.306805	-0.365697	0.878713	0.949321	0.183799	-0.254965	-0.068266	0.912405	0.403554
23084	9.038366	-1.751975	3.444413	-0.363592	-0.960109	-0.494262	0.301246	-0.357883	0.883838	0.951136	0.178639	-0.251850	-0.067756	0.916519	0.394210
23085	9.044773	-2.302383	3.464125	-0.319898	-0.930056	-0.211581	0.298405	-0.349747	0.888049	0.952051	0.174857	-0.251045	-0.067479	0.920381	0.385155
23086	8.940364	-2.856250	3.797195	-0.291921	-0.850198	0.007780	0.297720	-0.341893	0.891332	0.952287	0.172062	-0.252081	-0.067180	0.923853	0.376807
23087	9.144274	-2.953558	4.327943	-0.444117	-0.868437	0.095076	0.297830	-0.333686	0.894400	0.952371	0.168115	-0.254413	-0.065467	0.927573	0.367863
23088	9.104136	-3.177750	4.256056	-0.411403	-0.887432	-0.206095	0.295078	-0.325810	0.898207	0.953317	0.163516	-0.253870	-0.064158	0.931187	0.358851
23089	8.764945	-2.975373	3.746126	-0.333012	-0.881110	-0.538804	0.289182	-0.318530	0.902725	0.955160	0.158650	-0.249999	-0.063585	0.934542	0.350125
23090	8.618429	-2.738291	3.402131	-0.365547	-0.776416	-0.671079	0.282092	-0.312393	0.907103	0.957358	0.153118	-0.244989	-0.062361	0.937532	0.342265
23091	8.743677	-2.715625	3.498355	-0.483549	-0.679742	-0.729218	0.274493	-0.307196	0.911199	0.959735	0.146334	-0.239780	-0.059679	0.940328	0.334995
23092	8.885735	-2.673681	3.642713	-0.624323	-0.650097	-0.727330	0.266910	-0.302203	0.915113	0.962122	0.138247	-0.234967	-0.055504	0.943165	0.327656
23093	9.296493	-2.612764	3.329250	-0.700056	-0.681708	-0.732958	0.259249	-0.296843	0.919062	0.964483	0.129444	-0.230253	-0.050618	0.946112	0.319858
23094	9.037296	-2.401907	3.017511	-0.678903	-0.705795	-0.730390	0.251616	-0.291163	0.922992	0.966737	0.120871	-0.225411	-0.045932	0.949007	0.311891
23095	8.908011	-2.373668	2.265223	-0.644708	-0.705613	-0.646254	0.244820	-0.285294	0.926645	0.968680	0.112875	-0.221174	-0.041495	0.951770	0.303993
23096	8.990921	-1.907490	2.273148	-0.587731	-0.689830	-0.489940	0.239575	-0.279311	0.929833	0.970154	0.105859	-0.218165	-0.037495	0.954348	0.296336
23097	9.087528	-2.110706	2.537189	-0.536963	-0.674784	-0.499016	0.234279	-0.273431	0.932925	0.971578	0.099323	-0.214876	-0.033907	0.956750	0.288929
23098	9.171175	-2.269255	2.688057	-0.491807	-0.662244	-0.511316	0.228894	-0.267633	0.935938	0.972967	0.093211	-0.211296	-0.030690	0.959002	0.281734
23099	9.467968	-2.532580	3.130177	-0.434834	-0.675437	-0.558167	0.223072	-0.261713	0.939013	0.974399	0.087553	-0.207076	-0.028019	0.961166	0.274543
23100	9.406824	-2.509041	3.497677	-0.476488	-0.721459	-0.612851	0.216699	-0.255353	0.942251	0.975918	0.081388	-0.202385	-0.025008	0.963416	0.266840
23101	9.162666	-2.500420	3.148264	-0.650989	-0.722406	-0.609912	0.210338	-0.248926	0.945407	0.977419	0.073565	-0.198091	-0.020239	0.965725	0.258779
23102	9.208907	-1.974368	2.650899	-0.714617	-0.680240	-0.668097	0.203435	-0.242885	0.948484	0.978978	0.065021	-0.193325	-0.014716	0.967873	0.251007
23103	9.319131	-1.756847	2.423311	-0.663455	-0.711840	-0.733548	0.195919	-0.236517	0.951670	0.980572	0.056857	-0.187738	-0.009706	0.969962	0.243061
23104	9.090440	-1.688478	1.953873	-0.568741	-0.726283	-0.763696	0.188142	-0.229952	0.954843	0.982126	0.049590	-0.181576	-0.005597	0.971938	0.235172
23105	9.183691	-1.840068	1.495166	-0.477794	-0.759497	-0.715636	0.180867	-0.222970	0.957900	0.983505	0.043351	-0.175611	-0.002370	0.973861	0.227132
23106	9.139284	-1.271038	1.551473	-0.493143	-0.746904	-0.509013	0.175638	-0.215937	0.960480	0.984454	0.037417	-0.171610	0.001119	0.975690	0.219152
23107	9.338936	-1.421935	1.614858	-0.456605	-0.730784	-0.436802	0.171151	-0.208986	0.962825	0.985235	0.032008	-0.168187	0.004331	0.977395	0.211379
23108	9.165385	-1.490582	1.719153	-0.423127	-0.766758	-0.296716	0.168066	-0.201584	0.964944	0.985749	0.027212	-0.166005	0.007206	0.979093	0.203285
23109	9.435909	-1.507189	1.975820	-0.434078	-0.781975	-0.244177	0.165519	-0.193988	0.966940	0.986154	0.022416	-0.164311	0.010199	0.980748	0.195012
23110	9.270859	-1.748751	2.123212	-0.388292	-0.844840	-0.251815	0.162923	-0.185749	0.968996	0.986558	0.018073	-0.162411	0.012655	0.982431	0.186196
23111	9.048367	-1.992343	2.095426	-0.389113	-0.856172	-0.326839	0.159608	-0.177397	0.971110	0.987065	0.013615	-0.159743	0.015117	0.984045	0.177276
23112	8.937432	-1.801117	1.740433	-0.429739	-0.830712	-0.358392	0.155991	-0.169273	0.973146	0.987594	0.008732	-0.156788	0.018043	0.985531	0.168535
23113	8.938221	-1.178848	1.581888	-0.482067	-0.773694	-0.424049	0.151739	-0.161695	0.975105	0.988185	0.003259	-0.153234	0.021599	0.986835	0.160279
23114	9.138550	-0.929161	1.062724	-0.459133	-0.716130	-0.520930	0.146550	-0.154663	0.977038	0.988886	-0.002090	-0.148658	0.025034	0.987965	0.152638
23115	8.786304	-1.001471	0.546740	-0.408035	-0.677184	-0.517789	0.141419	-0.147983	0.978827	0.989552	-0.006897	-0.144011	0.028062	0.988966	0.145461
23116	8.964946	-0.980992	0.706006	-0.405787	-0.624151	-0.459448	0.136873	-0.141791	0.980388	0.990098	-0.011575	-0.139903	0.031185	0.989829	0.138802
23117	9.298731	-1.189184	0.837832	-0.349230	-0.643023	-0.441880	0.132534	-0.135388	0.981888	0.990603	-0.015647	-0.135868	0.033759	0.990669	0.132042
23118	9.050991	-1.180944	0.561160	-0.290957	-0.709855	-0.389570	0.128749	-0.128300	0.983343	0.991034	-0.019053	-0.132242	0.035702	0.991552	0.124697
23119	9.238446	-1.086758	0.673815	-0.250155	-0.767371	-0.302803	0.125859	-0.120630	0.984687	0.991350	-0.021938	-0.129398	0.037212	0.992455	0.116826
23120	9.186240	-1.103617	0.851573	-0.202818	-0.814450	-0.311091	0.122914	-0.112475	0.986023	0.991681	-0.024337	-0.126396	0.038213	0.993356	0.108548
23121	9.262982	-1.094817	0.772710	-0.203114	-0.814974	-0.293096	0.120157	-0.104304	0.987260	0.991979	-0.026698	-0.123552	0.039245	0.994187	0.100259
23122	9.121081	-0.884517	0.610205	-0.241268	-0.825770	-0.195667	0.118370	-0.096022	0.988316	0.992136	-0.029338	-0.121678	0.040679	0.994947	0.091794
23123	8.981688	-0.831208	0.243778	-0.272578	-0.825817	-0.173974	0.116805	-0.087734	0.989272	0.992247	-0.032260	-0.120018	0.042443	0.995621	0.083286
23124	8.692916	-0.861071	-0.076730	-0.209212	-0.848901	-0.203164	0.114981	-0.079198	0.990206	0.992412	-0.034552	-0.118001	0.043559	0.996260	0.074624
23125	8.386781	-0.772197	-0.205165	-0.195636	-0.824191	-0.267654	0.112522	-0.070886	0.991117	0.992649	-0.036728	-0.115323	0.044576	0.996808	0.066232
23126	8.410100	-1.052376	-0.395041	-0.189174	-0.788763	-0.326510	0.109475	-0.062902	0.991997	0.992944	-0.038842	-0.112043	0.045579	0.997264	0.058206
23127	8.307860	-0.915854	-0.510479	-0.180155	-0.745545	-0.346404	0.106227	-0.055335	0.992801	0.993251	-0.040850	-0.108552	0.046562	0.997632	0.050622
23128	8.616161	-0.747675	-0.468120	-0.185368	-0.646947	-0.374837	0.102667	-0.048733	0.993521	0.993570	-0.042891	-0.104776	0.047719	0.997891	0.044016
23129	9.013114	-0.831857	-0.165549	-0.149124	-0.661074	-0.396887	0.098908	-0.041976	0.994211	0.993913	-0.044552	-0.100759	0.048523	0.998125	0.037314
23130	8.816661	-0.977306	-0.189421	-0.101983	-0.747761	-0.430316	0.094856	-0.034335	0.994899	0.994295	-0.045717	-0.096376	0.048793	0.998364	0.029803
23131	8.812321	-0.712470	-0.302399	-0.110754	-0.785194	-0.417384	0.090946	-0.026319	0.995508	0.994642	-0.046935	-0.092108	0.049149	0.998551	0.021909
23132	8.801533	-0.453951	-0.591063	-0.145796	-0.829642	-0.328949	0.087927	-0.017879	0.995966	0.994879	-0.048466	-0.088701	0.049856	0.998665	0.013526
23133	8.935394	-0.216949	-0.783079	-0.043082	-0.961514	-0.345877	0.084809	-0.008113	0.996364	0.995169	-0.048939	-0.085106	0.049452	0.998769	0.003924
23134	8.882530	-0.305135	-0.754033	0.009665	-1.004764	-0.333072	0.081836	0.002082	0.996644	0.995464	-0.048851	-0.081637	0.048517	0.998804	-0.006070
23135	8.957485	-0.428140	-0.792268	0.046386	-0.982598	-0.315959	0.079023	0.012048	0.996800	0.995752	-0.048367	-0.078355	0.047268	0.998757	-0.015819
23136	8.989350	-0.405198	-0.735958	0.058029	-0.963609	-0.365498	0.075697	0.021838	0.996892	0.996072	-0.047714	-0.074590	0.045937	0.998622	-0.025364
23137	9.137734	-0.443141	-0.766635	0.104837	-0.915604	-0.468028	0.071330	0.031177	0.996965	0.996473	-0.046511	-0.069840	0.044192	0.998431	-0.034385
23138	9.268239	-0.230865	-0.466537	0.105869	-0.895658	-0.541653	0.066204	0.040333	0.996991	0.996902	-0.045211	-0.064369	0.042478	0.998163	-0.043201
23139	9.561842	-0.331690	-0.419297	0.128244	-0.911274	-0.685514	0.059634	0.049677	0.996983	0.997396	-0.043543	-0.057489	0.040555	0.997816	-0.052144
23140	9.635006	-0.363283	-0.388387	0.187713	-0.959167	-0.798628	0.051935	0.059513	0.996876	0.997925	-0.041129	-0.049535	0.038053	0.997380	-0.061525
23141	9.884062	-0.294338	-0.381470	0.175505	-0.912705	-0.799259	0.044192	0.068861	0.996647	0.998383	-0.038761	-0.041591	0.035768	0.996873	-0.070463
23142	9.976973	-0.277759	-0.488170	0.089152	-0.926314	-0.584606	0.038556	0.078274	0.996186	0.998663	-0.037379	-0.035715	0.034441	0.996231	-0.079611
23143	9.698922	-0.023361	-0.764546	0.018929	-0.917316	-0.410245	0.034637	0.087545	0.995558	0.998825	-0.036822	-0.031513	0.033900	0.995480	-0.088718
23144	9.809257	0.136805	-0.894702	0.080482	-0.892614	-0.447067	0.030348	0.096567	0.994864	0.999002	-0.035573	-0.027021	0.032781	0.994691	-0.097550
23145	9.466086	0.216834	-1.129694	0.085056	-0.898280	-0.419461	0.026328	0.105626	0.994057	0.999152	-0.034272	-0.022821	0.031658	0.993815	-0.106439
23146	9.151827	0.386742	-1.507977	0.061148	-0.939423	-0.356175	0.022931	0.115069	0.993093	0.999262	-0.033250	-0.019221	0.030809	0.992801	-0.115746
23147	9.482015	0.587574	-1.612580	0.147484	-1.039319	-0.387122	0.019248	0.125491	0.991908	0.999391	-0.031293	-0.015435	0.029103	0.991601	-0.126017
23148	9.126285	0.399006	-1.694930	0.216018	-1.123413	-0.408389	0.015356	0.136728	0.990490	0.999525	-0.028583	-0.011550	0.026731	0.990196	-0.137102
23149	9.285756	0.121343	-1.635770	0.219346	-1.168060	-0.370607	0.011821	0.148373	0.988861	0.999633	-0.025856	-0.008070	0.024370	0.988593	-0.148624
23150	9.788167	0.080286	-1.104319	0.269309	-1.270159	-0.366977	0.008310	0.160995	0.986920	0.999733	-0.022598	-0.004732	0.021540	0.986697	-0.161140
23151	9.969347	-0.014409	-0.953085	0.336816	-1.546679	-0.401828	0.004441	0.176301	0.984326	0.999827	-0.018557	-0.001188	0.018057	0.984161	-0.176353
23152	9.532469	-0.071907	-1.236318	0.251527	-1.549043	-0.326721	0.001258	0.191574	0.981477	0.999879	-0.015450	0.001734	0.015496	0.981357	-0.191570
23153	9.227098	0.106983	-1.851230	0.171201	-1.517551	-0.277399	-0.001481	0.206482	0.978449	0.999904	-0.013191	0.004297	0.013794	0.978362	-0.206442
23154	9.428968	0.532866	-2.225566	0.249592	-1.686837	-0.383010	-0.005295	0.222984	0.974808	0.999922	-0.009874	0.007690	0.011340	0.974772	-0.222914
23155	8.958799	0.529841	-2.525804	0.255739	-1.630329	-0.344360	-0.008760	0.238862	0.971014	0.999922	-0.006542	0.010630	0.008892	0.971032	-0.238786
23156	9.613707	0.491548	-2.064097	0.163272	-1.467605	-0.189973	-0.010723	0.253107	0.967379	0.999915	-0.004473	0.012254	0.007428	0.967428	-0.253037
23157	9.629920	0.402917	-1.959494	-0.009990	-1.298230	-0.068742	-0.011508	0.265672	0.963995	0.999904	-0.004390	0.013147	0.007725	0.964053	-0.265596
23158	9.387209	0.745574	-2.294567	-0.255118	-0.974402	0.070893	-0.010913	0.275094	0.961355	0.999886	-0.007061	0.013371	0.010467	0.961391	-0.274986
23159	9.309012	1.145766	-2.586429	-0.460804	-0.527489	0.150498	-0.009524	0.280203	0.959894	0.999839	-0.011950	0.013409	0.015228	0.959867	-0.280044
23160	8.848844	1.274935	-3.426671	-0.476657	-0.138102	0.087568	-0.008756	0.281564	0.959502	0.999760	-0.016816	0.014058	0.020093	0.959395	-0.281349
23161	9.003799	1.075316	-3.352993	-0.363444	0.141477	0.053826	-0.008318	0.280239	0.959894	0.999682	-0.020512	0.014652	0.023796	0.959711	-0.279979
23162	8.970085	1.021408	-3.060559	-0.304412	0.268883	0.121697	-0.007208	0.277684	0.960646	0.999612	-0.023855	0.014396	0.026914	0.960376	-0.277404
23163	9.447540	0.697391	-2.904492	-0.141025	0.256410	0.067000	-0.006617	0.275247	0.961351	0.999575	-0.025474	0.014174	0.028390	0.961036	-0.274961
23164	8.618860	-0.094136	-2.776882	0.003767	0.185732	0.004708	-0.006608	0.273496	0.961850	0.999574	-0.025523	0.014125	0.028412	0.961534	-0.273211
23165	8.934986	-0.026490	-2.230880	-0.047628	0.276379	0.009526	-0.006578	0.270871	0.962593	0.999559	-0.026080	0.014169	0.028943	0.962262	-0.270580
23166	9.799580	-0.119328	-1.582698	-0.112758	0.193559	0.068425	-0.005960	0.269035	0.963112	0.999528	-0.027429	0.013847	0.030142	0.962740	-0.268744
23167	9.136867	-0.445476	-1.879081	-0.115336	0.049920	0.020426	-0.005802	0.268585	0.963238	0.999491	-0.028657	0.014011	0.031366	0.962830	-0.268282
23168	8.606187	-0.468329	-2.232003	-0.176646	-0.013282	0.028071	-0.005568	0.268746	0.963195	0.999433	-0.030491	0.014285	0.033208	0.962728	-0.268424
23169	8.473357	-0.089747	-2.440649	-0.257670	-0.020820	0.083125	-0.004800	0.268966	0.963138	0.999345	-0.033259	0.014269	0.035871	0.962575	-0.268630
23170	8.501000	0.348696	-2.645079	-0.306160	-0.011538	0.097883	-0.003895	0.269094	0.963106	0.999231	-0.036535	0.014249	0.039021	0.962421	-0.268745
23171	8.756742	0.312358	-2.433182	-0.349402	-0.055342	0.097627	-0.002991	0.269639	0.962957	0.999088	-0.040220	0.014365	0.042603	0.962121	-0.269273
23172	8.607195	0.156145	-2.515137	-0.339169	-0.092852	0.028665	-0.002759	0.270563	0.962698	0.998934	-0.043606	0.015118	0.046069	0.961714	-0.270155
23173	8.711758	0.463603	-2.491701	-0.352429	0.014569	-0.136558	-0.004215	0.270503	0.962710	0.998759	-0.046641	0.017478	0.049630	0.961589	-0.269971
23174	9.361634	0.172753	-2.201764	-0.311851	0.054538	-0.234548	-0.006655	0.270098	0.962810	0.998585	-0.049007	0.020650	0.052761	0.961585	-0.269390
23175	9.523633	-0.078936	-2.047600	-0.230835	0.049048	-0.368683	-0.010419	0.269795	0.962861	0.998429	-0.050209	0.024872	0.055054	0.961608	-0.268848
23176	9.478780	-0.319974	-2.208329	-0.170908	-0.002727	-0.396889	-0.014429	0.270006	0.962750	0.998284	-0.050755	0.029196	0.056747	0.961520	-0.268811
23177	9.428617	-0.207944	-2.437142	-0.124879	-0.015679	-0.284556	-0.017303	0.270297	0.962621	0.998166	-0.051185	0.032314	0.058006	0.961415	-0.268916
23178	9.543207	0.108957	-2.200436	-0.070891	-0.026685	-0.276193	-0.020075	0.270695	0.962456	0.998072	-0.051123	0.035196	0.058731	0.961307	-0.269147
23179	9.419446	-0.076098	-2.394059	-0.020261	-0.046145	-0.257815	-0.022645	0.271268	0.962238	0.998004	-0.050628	0.037759	0.058959	0.961172	-0.269580
23180	9.190445	0.396169	-2.510048	-0.011530	-0.042334	-0.235119	-0.024987	0.271798	0.962030	0.997939	-0.050114	0.040078	0.059105	0.961049	-0.269986
23181	9.163040	0.307394	-2.942562	-0.038660	0.025456	-0.193198	-0.026948	0.271656	0.962017	0.997864	-0.049984	0.042067	0.059514	0.961096	-0.269728
23182	9.264253	0.810045	-3.036619	-0.021555	0.105255	-0.108102	-0.028091	0.270719	0.962248	0.997818	-0.049944	0.043180	0.059748	0.961362	-0.268726
23183	9.434497	1.006304	-2.854829	-0.042845	0.087622	0.002436	-0.028128	0.269907	0.962475	0.997789	-0.050427	0.043301	0.060222	0.961565	-0.267892
23184	8.821387	0.957353	-3.130939	-0.091866	0.145308	0.076258	-0.027465	0.268518	0.962883	0.997748	-0.051595	0.042848	0.061186	0.961892	-0.266496
23185	9.120782	1.060775	-2.846922	-0.156694	0.311549	0.138394	-0.026279	0.265497	0.963753	0.997682	-0.053567	0.041961	0.062766	0.962622	-0.263474
23186	9.374191	0.461618	-2.590199	-0.105971	0.294388	0.115680	-0.025302	0.262651	0.964559	0.997639	-0.054986	0.041143	0.063843	0.963323	-0.260639
23187	9.160189	0.149890	-2.573029	-0.056319	0.188668	0.090088	-0.024523	0.260826	0.965074	0.997620	-0.055850	0.040444	0.064448	0.963769	-0.258836
23188	9.026176	-0.083522	-2.474414	-0.084713	0.141425	0.096390	-0.023661	0.259458	0.965465	0.997582	-0.057001	0.039767	0.065351	0.964071	-0.257482
23189	9.032646	-0.099120	-2.542866	-0.135097	0.121869	0.079991	-0.022967	0.258280	0.965797	0.997505	-0.058588	0.039389	0.066757	0.964292	-0.256290
23190	9.263501	0.336054	-2.543067	-0.097887	0.088092	0.101427	-0.022033	0.257421	0.966048	0.997455	-0.059876	0.038704	0.067806	0.964443	-0.255447
23191	9.345509	0.334657	-2.573152	-0.071287	0.009241	0.168745	-0.020381	0.257285	0.966121	0.997435	-0.061091	0.037311	0.068621	0.964403	-0.255380
23192	9.205655	0.350284	-2.786652	-0.014184	-0.074824	0.236169	-0.017997	0.257930	0.965996	0.997461	-0.061944	0.035123	0.068897	0.964176	-0.256161
23193	9.472582	0.145894	-2.597975	-0.018105	-0.113404	0.260560	-0.015350	0.258928	0.965775	0.997483	-0.062903	0.032719	0.069222	0.963846	-0.257311
23194	9.388211	-0.041877	-2.716581	-0.009385	-0.100846	0.215394	-0.013157	0.259831	0.965565	0.997499	-0.063655	0.030721	0.069445	0.963554	-0.258343
23195	9.594317	0.349875	-2.694282	0.014501	-0.069613	0.163916	-0.011492	0.260450	0.965419	0.997522	-0.064036	0.029149	0.069413	0.963361	-0.259069
23196	9.557609	0.829032	-2.920889	0.067875	-0.054557	0.195853	-0.009503	0.260913	0.965316	0.997582	-0.063998	0.027118	0.068853	0.963239	-0.259674
23197	9.745485	0.567947	-2.637081	0.143581	-0.050730	0.245914	-0.007003	0.261308	0.965230	0.997692	-0.063376	0.024396	0.067547	0.963173	-0.260261
23198	9.378554	-0.038245	-2.319438	0.131946	-0.026013	0.213852	-0.004838	0.261487	0.965195	0.997785	-0.062777	0.022009	0.066347	0.963163	-0.260604
23199	9.568592	-0.257876	-2.165527	0.095564	0.062448	0.095269	-0.003912	0.260868	0.965367	0.997846	-0.062196	0.020851	0.065481	0.963369	-0.260063
23200	9.822109	0.010400	-1.813489	0.060254	0.084130	-0.055752	-0.004510	0.260120	0.965566	0.997879	-0.061530	0.021237	0.064935	0.963614	-0.259290
23201	9.582868	-0.034912	-2.096422	0.001512	0.086202	-0.186873	-0.006433	0.259408	0.965747	0.997868	-0.061059	0.023048	0.064946	0.963836	-0.258462
23202	9.419532	-0.041795	-2.387839	0.047855	0.089790	-0.271037	-0.009185	0.258705	0.965913	0.997877	-0.059911	0.025536	0.064475	0.964097	-0.257605
23203	9.463828	-0.108494	-2.388938	0.108464	0.067429	-0.282833	-0.012033	0.258211	0.966014	0.997916	-0.058150	0.027974	0.063397	0.964337	-0.256973
23204	9.757212	0.144092	-2.240090	0.135511	0.017379	-0.284322	-0.014863	0.258202	0.965977	0.997962	-0.056125	0.030357	0.062053	0.964459	-0.256842
23205	9.432904	0.283058	-2.326209	0.121841	0.021910	-0.348317	-0.018339	0.258163	0.965927	0.997980	-0.054052	0.033394	0.060831	0.964588	-0.256650
23206	9.594370	0.494335	-2.571435	0.091247	0.062725	-0.263313	-0.020989	0.257697	0.965998	0.997982	-0.052511	0.035692	0.059923	0.964798	-0.256075
23207	9.560506	0.690761	-2.651512	0.096800	0.069282	-0.087061	-0.021883	0.257089	0.966140	0.998018	-0.051407	0.036284	0.058995	0.965019	-0.255455
23208	9.255476	0.766214	-2.495611	0.085830	0.111860	-0.069712	-0.022622	0.256070	0.966393	0.998050	-0.050459	0.036733	0.058170	0.965340	-0.254430
23209	9.190471	0.766347	-2.693125	0.038729	0.174430	-0.136874	-0.024071	0.254463	0.966783	0.998039	-0.049781	0.037952	0.057785	0.965800	-0.252766
23210	9.294452	0.984900	-2.528310	0.063776	0.220147	-0.140488	-0.025567	0.252421	0.967280	0.998039	-0.048857	0.039130	0.057135	0.966383	-0.250677
23211	9.337084	0.633232	-2.321348	0.041834	0.240024	-0.068446	-0.026359	0.250151	0.967848	0.998043	-0.048342	0.039676	0.056713	0.966999	-0.248387
23212	9.107901	0.182702	-2.255704	-0.001630	0.233442	-0.013335	-0.026603	0.247933	0.968412	0.998035	-0.048395	0.039807	0.056736	0.967568	-0.246158
23213	9.422936	-0.554047	-2.063565	-0.037805	0.196268	-0.073146	-0.027440	0.246086	0.968860	0.997990	-0.048635	0.040618	0.057116	0.968027	-0.244256
23214	9.319872	-0.597459	-2.211492	-0.092714	0.121895	-0.081349	-0.028336	0.244971	0.969116	0.997911	-0.049380	0.041660	0.058061	0.968272	-0.243060
23215	9.340313	-0.144446	-2.552429	-0.098949	0.083057	-0.148849	-0.029893	0.244248	0.969252	0.997807	-0.050006	0.043375	0.059063	0.968423	-0.242218
23216	9.312038	0.199258	-2.704167	-0.064987	0.062425	-0.126006	-0.031204	0.243727	0.969342	0.997726	-0.050366	0.044781	0.059737	0.968535	-0.241601
23217	9.471982	0.316146	-2.748154	-0.040649	0.065127	-0.025443	-0.031509	0.243132	0.969481	0.997690	-0.050758	0.045155	0.060187	0.968664	-0.240971
23218	9.511153	0.518996	-2.649010	-0.000279	0.047529	0.032588	-0.031217	0.242696	0.969600	0.997695	-0.050913	0.044865	0.060253	0.968765	-0.240547
23219	9.477311	0.812949	-2.664293	0.047086	0.055531	-0.018551	-0.031430	0.242191	0.969719	0.997713	-0.050477	0.044944	0.059834	0.968915	-0.240051
23220	9.545757	1.033763	-2.684504	0.065432	0.077780	-0.025649	-0.031719	0.241482	0.969887	0.997741	-0.049847	0.045041	0.059222	0.969124	-0.239355
23221	10.237736	1.254577	-2.106732	0.073758	0.086467	-0.007336	-0.031829	0.240673	0.970084	0.997778	-0.049184	0.044940	0.058528	0.969359	-0.238572
23222	10.422917	0.930801	-1.978812	0.094600	0.026085	-0.005681	-0.031889	0.240457	0.970136	0.997828	-0.048323	0.044776	0.057646	0.969456	-0.238394
23223	10.197576	0.694885	-2.071272	0.038078	0.013875	0.103686	-0.030866	0.240312	0.970205	0.997877	-0.048291	0.043708	0.057355	0.969494	-0.238312
23224	10.259531	0.514046	-1.967442	-0.054509	0.040654	0.241216	-0.028498	0.239870	0.970387	0.997909	-0.049510	0.041545	0.058009	0.969542	-0.237957
23225	10.179618	0.694990	-2.088453	-0.143964	0.010040	0.441506	-0.024139	0.239635	0.970563	0.997930	-0.052111	0.037686	0.059608	0.969464	-0.237881
23226	9.565438	0.490009	-2.483517	-0.149995	-0.011390	0.522906	-0.018955	0.239575	0.970693	0.997940	-0.054980	0.033056	0.061288	0.969320	-0.238039
23227	9.209060	0.120475	-2.594298	-0.123522	0.016360	0.480959	-0.014201	0.239237	0.970857	0.997932	-0.057484	0.028762	0.062690	0.969258	-0.237926
23228	8.904053	-0.091992	-2.608716	-0.079805	0.044164	0.398097	-0.010275	0.238668	0.971047	0.997920	-0.059351	0.025147	0.063635	0.969286	-0.237561
23229	9.042391	0.012747	-2.435564	-0.046523	0.056478	0.317362	-0.007159	0.237998	0.971239	0.997909	-0.060686	0.022226	0.064231	0.969368	-0.237066
23230	9.055176	-0.039366	-2.248167	-0.020230	0.035353	0.206041	-0.005135	0.237594	0.971351	0.997902	-0.061479	0.020313	0.064544	0.969417	-0.236780
23231	8.938866	0.156853	-2.323339	-0.026613	0.066495	0.053673	-0.004652	0.236948	0.971511	0.997882	-0.061940	0.019886	0.064887	0.969546	-0.236158
23232	9.133120	0.572319	-2.382744	-0.013126	0.080991	-0.077430	-0.005480	0.236237	0.971680	0.997866	-0.061936	0.020686	0.065068	0.969720	-0.235393
23233	9.203428	0.631165	-2.645462	0.061502	0.079638	-0.188945	-0.007409	0.235578	0.971827	0.997891	-0.060925	0.022376	0.064480	0.969944	-0.234630
23234	9.039020	0.606611	-2.620994	0.074889	0.093186	-0.158822	-0.009037	0.234783	0.972006	0.997924	-0.059865	0.023738	0.063763	0.970203	-0.233755
23235	9.578659	0.451924	-2.228006	0.031936	0.103966	-0.003555	-0.009132	0.233800	0.972242	0.997940	-0.059616	0.023710	0.063504	0.970455	-0.232774
23236	9.897197	0.042445	-1.802284	-0.002606	0.056304	0.128991	-0.007884	0.233230	0.972390	0.997943	-0.060035	0.022490	0.063623	0.970567	-0.232277
23237	9.390581	-0.425701	-1.814940	-0.036203	0.019448	0.138761	-0.006531	0.233001	0.972455	0.997923	-0.060801	0.021270	0.064082	0.970574	-0.232120
23238	9.181669	-0.428559	-2.020596	-0.096824	0.038858	0.058192	-0.006001	0.232633	0.972546	0.997859	-0.061949	0.020975	0.065128	0.970590	-0.231763
23239	9.116012	-0.224297	-2.353411	-0.090345	0.065496	0.008268	-0.005985	0.232017	0.972693	0.997795	-0.062909	0.021145	0.066097	0.970675	-0.231129
23240	9.271342	-0.048054	-2.289455	-0.015900	0.143486	-0.103757	-0.007110	0.230711	0.972996	0.997775	-0.062871	0.022199	0.066295	0.970989	-0.229751
23241	9.547050	-0.112156	-2.270251	-0.013290	0.140728	-0.034299	-0.007543	0.229384	0.973307	0.997759	-0.062983	0.022576	0.066481	0.971296	-0.228395
23242	9.769952	0.265616	-2.041433	-0.028428	0.083147	0.064639	-0.006958	0.228581	0.973500	0.997739	-0.063487	0.022039	0.066842	0.971453	-0.227622
23243	9.824327	0.438548	-2.099897	-0.022813	0.046182	0.087293	-0.006130	0.228111	0.973616	0.997724	-0.063990	0.021275	0.067155	0.971530	-0.227199
23244	9.719144	0.538422	-2.118137	-0.010704	0.032410	0.118396	-0.004978	0.227772	0.973702	0.997717	-0.064454	0.020179	0.067355	0.971579	-0.226931
23245	9.740650	0.564822	-2.073919	-0.025562	0.032457	0.141241	-0.003606	0.227407	0.973793	0.997699	-0.065117	0.018901	0.067708	0.971620	-0.226649
23246	9.378782	0.398971	-2.098898	-0.083736	0.031513	0.197362	-0.001681	0.227035	0.973885	0.997639	-0.066481	0.017220	0.068654	0.971615	-0.226388
23247	9.460377	0.344849	-2.065204	-0.194684	0.130391	0.211273	0.000300	0.225677	0.974202	0.997497	-0.068952	0.015666	0.070709	0.971759	-0.225133
23248	9.731968	0.483182	-1.929845	-0.242334	0.193012	0.136908	0.001494	0.223762	0.974643	0.997314	-0.071703	0.014934	0.073226	0.972003	-0.223268
23249	9.847531	0.349842	-1.914377	-0.247169	0.196676	-0.006764	0.001240	0.221877	0.975074	0.997125	-0.074148	0.015604	0.075762	0.972251	-0.221331
23250	9.996709	0.459370	-1.985107	-0.246784	0.184817	-0.098196	0.000082	0.220180	0.975459	0.996932	-0.076370	0.017154	0.078273	0.972465	-0.219510
23251	10.459310	0.467497	-1.721223	-0.212122	0.158402	-0.138486	-0.001463	0.218749	0.975780	0.996759	-0.078161	0.019016	0.080427	0.972646	-0.217926
23252	10.518802	0.243455	-1.367364	-0.249398	0.107709	-0.187342	-0.003467	0.217864	0.975973	0.996548	-0.080196	0.021442	0.082941	0.972679	-0.216834
23253	10.388296	-0.050351	-1.361882	-0.332946	0.040974	-0.260358	-0.006177	0.217666	0.976004	0.996253	-0.082865	0.024786	0.086271	0.972499	-0.216339
23254	10.216186	-0.164779	-2.645630	-0.398458	-0.034496	-0.158923	-0.007829	0.218159	0.975882	0.995886	-0.086405	0.027306	0.090278	0.972081	-0.216585
23255	10.006687	0.373583	-2.164919	-0.243667	-0.014576	-0.084878	-0.008730	0.218386	0.975823	0.995650	-0.088624	0.028741	0.092757	0.971830	-0.216662
23256	9.751704	-0.053332	-1.672334	-0.177000	-0.025301	-0.011882	-0.008875	0.218681	0.975756	0.995477	-0.090371	0.029307	0.094589	0.971603	-0.216890
23257	9.540203	-0.475838	-1.066566	-0.218709	0.002917	-0.056684	-0.009502	0.218718	0.975742	0.995256	-0.092414	0.030407	0.096823	0.971402	-0.216802
23258	9.686104	-0.705238	-0.453996	-0.352045	-0.045702	-0.239200	-0.011929	0.219398	0.975562	0.994881	-0.095308	0.033599	0.100350	0.970969	-0.217138
23259	9.317148	-0.339526	-0.012117	-0.586275	-0.218186	-0.515699	-0.017004	0.221978	0.974903	0.994202	-0.099784	0.040061	0.106173	0.969932	-0.218994
23260	9.389907	0.175846	-0.361165	-1.026632	-0.432185	-0.768923	-0.024455	0.226925	0.973605	0.992905	-0.107850	0.050077	0.116367	0.967922	-0.222677
23261	9.623558	0.648364	-3.758407	-0.970661	-0.414064	-0.713165	-0.031311	0.231668	0.972291	0.991532	-0.115459	0.059441	0.126030	0.965919	-0.226091
23262	8.937977	1.472521	-2.906728	-0.557729	-0.255586	-0.678518	-0.037876	0.234894	0.971283	0.990583	-0.119151	0.067443	0.131571	0.964691	-0.228169
23263	9.449215	0.972495	-2.234913	-0.562553	-0.246468	-0.460913	-0.042278	0.237798	0.970394	0.989639	-0.123419	0.073361	0.137211	0.963442	-0.230116
23264	9.176413	0.296068	-1.777214	-0.744945	-0.239586	-0.286955	-0.044979	0.240490	0.969609	0.988454	-0.129864	0.078063	0.144691	0.961925	-0.231872
23265	9.048495	-0.297652	-1.695795	-1.091257	-0.130440	-0.178047	-0.046800	0.242005	0.969146	0.986718	-0.139889	0.082580	0.155558	0.960138	-0.232243
23266	9.122707	0.107288	-3.064508	-1.171442	-0.180953	-0.234185	-0.049094	0.244125	0.968500	0.984698	-0.150504	0.087852	0.167210	0.957994	-0.233001
23267	8.471891	0.651601	-4.511480	-0.834180	-0.187503	-0.405246	-0.052976	0.246532	0.967686	0.983054	-0.157427	0.093924	0.175495	0.956263	-0.234014
23268	7.772578	0.807872	-5.088113	-0.585136	-0.164948	-0.337448	-0.056154	0.248662	0.966961	0.981818	-0.162142	0.098713	0.181331	0.954923	-0.235036
23269	8.880787	0.688428	-4.201128	-0.407204	-0.109156	-0.246607	-0.058487	0.250107	0.966450	0.980920	-0.165403	0.102167	0.185407	0.953986	-0.235661
23270	9.277445	0.192859	-2.949822	-0.401197	-0.131126	-0.209650	-0.060408	0.251734	0.965909	0.980032	-0.168698	0.105256	0.189443	0.952980	-0.236516
23271	9.146934	0.247839	-2.676014	-0.548366	-0.193113	-0.241137	-0.062550	0.253993	0.965181	0.978817	-0.173290	0.109036	0.194950	0.951556	-0.237774
23272	8.747668	0.536773	-2.290740	-0.784051	-0.161478	-0.324442	-0.065598	0.256128	0.964414	0.977037	-0.179865	0.114225	0.202721	0.949761	-0.238448
23273	8.950619	0.781448	-2.748695	-0.980917	-0.107514	-0.378583	-0.069300	0.257852	0.963696	0.974733	-0.188130	0.120431	0.212354	0.947692	-0.238299
23274	9.525403	1.233797	-2.558992	-0.770733	-0.122756	-0.472435	-0.073826	0.259926	0.962802	0.972722	-0.194126	0.126994	0.219914	0.945914	-0.238504
23275	9.501048	1.227315	-1.735066	-0.689798	-0.049792	-0.581662	-0.079535	0.261509	0.961918	0.970735	-0.199040	0.134376	0.226600	0.944456	-0.238025
23276	10.093005	1.365024	-1.626292	-0.757167	0.063197	-0.595326	-0.085620	0.262103	0.961234	0.968500	-0.204532	0.142037	0.233832	0.943116	-0.236335
23277	10.256794	1.932472	-2.798253	-0.625122	0.041078	-0.479758	-0.090499	0.262686	0.960628	0.966592	-0.209103	0.148240	0.239811	0.941951	-0.234986
23278	9.707437	3.168767	-3.097043	-0.128012	0.055159	-0.391376	-0.094447	0.262975	0.960169	0.965923	-0.209261	0.152326	0.240983	0.941836	-0.234249
23279	9.393428	3.716253	-3.658079	0.358261	0.150018	-0.225987	-0.096910	0.261995	0.960191	0.966565	-0.205339	0.153582	0.237402	0.942971	-0.233336
23280	9.403385	3.555724	-3.383277	0.758826	0.137032	0.030169	-0.096770	0.260647	0.960572	0.968366	-0.198372	0.151382	0.230008	0.944834	-0.233205
23281	9.244963	2.790182	-2.588176	1.076036	0.100530	0.297078	-0.093884	0.259131	0.961268	0.971059	-0.189153	0.145831	0.219616	0.947139	-0.233873
23282	9.074485	1.281519	-1.398253	1.026796	0.018272	0.532862	-0.088521	0.258040	0.962070	0.973728	-0.181022	0.138147	0.209803	0.949024	-0.235237
23283	9.098310	0.189865	-0.895587	0.851027	0.012043	0.668629	-0.081847	0.256810	0.962990	0.976019	-0.174905	0.129599	0.201714	0.950503	-0.236336
23284	8.816800	-0.636554	-1.049364	0.649744	-0.053736	0.651249	-0.075243	0.256298	0.963665	0.977789	-0.170624	0.121725	0.195622	0.951419	-0.237767
23285	9.103037	-1.005773	-1.432410	0.365543	-0.057003	0.511269	-0.070062	0.256044	0.964123	0.978838	-0.168639	0.115917	0.192269	0.951841	-0.238810
23286	9.125189	-0.620299	-2.155959	0.252475	-0.017092	0.319753	-0.066847	0.255741	0.964431	0.979516	-0.167194	0.112228	0.189949	0.952178	-0.239326
23287	8.977785	0.251714	-2.541564	0.148730	0.104412	0.122659	-0.065803	0.254564	0.964815	0.979862	-0.166193	0.110679	0.188520	0.952668	-0.238502
23288	9.016082	0.890471	-3.387594	0.082257	0.192367	0.032044	-0.065813	0.252712	0.965301	0.980026	-0.165572	0.110163	0.187666	0.953269	-0.236768
23289	9.090646	0.848731	-3.478712	0.054168	0.157881	0.038348	-0.065706	0.251156	0.965714	0.980139	-0.165235	0.109661	0.187111	0.953739	-0.235311
23290	8.920833	0.632374	-3.709969	0.055536	0.139236	0.118439	-0.064778	0.249681	0.966159	0.980303	-0.165097	0.108392	0.186573	0.954150	-0.234068
23291	9.260308	0.755514	-3.148397	-0.036579	0.125998	0.221709	-0.062831	0.248154	0.966681	0.980354	-0.166111	0.106362	0.186970	0.954372	-0.232842
23292	9.657853	0.946761	-3.610910	0.104746	0.089685	0.234253	-0.060669	0.246973	0.967121	0.980673	-0.165810	0.103861	0.186009	0.954731	-0.232140
23293	8.921441	1.595539	-4.156257	0.356326	0.039000	0.254066	-0.058169	0.246220	0.967467	0.981462	-0.163170	0.100538	0.182616	0.955380	-0.232164
23294	9.333191	1.936985	-3.351306	0.491214	0.043496	0.313123	-0.055065	0.245361	0.967867	0.982505	-0.159399	0.096307	0.177907	0.956237	-0.232291
23295	9.660998	1.672623	-2.671936	0.617728	-0.028124	0.294610	-0.051998	0.245206	0.968076	0.983727	-0.154368	0.091938	0.171984	0.957102	-0.233189
23296	10.166636	1.594160	-1.650691	0.657356	-0.056624	0.226115	-0.049551	0.245454	0.968141	0.984937	-0.148770	0.088128	0.165662	0.957925	-0.234385
23297	10.604910	1.350473	-1.148952	0.685479	0.007661	0.038498	-0.049050	0.245326	0.968199	0.986062	-0.142405	0.086038	0.158983	0.958924	-0.234922
23298	10.641336	1.032833	-1.456366	0.642614	-0.083686	0.014386	-0.048664	0.246131	0.968014	0.987065	-0.136374	0.084296	0.152760	0.959595	-0.236310
23299	10.514893	1.079172	-1.379641	0.551844	-0.244195	0.083476	-0.047401	0.248378	0.967503	0.987923	-0.131387	0.082132	0.147517	0.959711	-0.239150
23300	9.832799	0.949182	-1.977832	0.452380	-0.297573	0.103259	-0.045902	0.251143	0.966861	0.988617	-0.127401	0.080027	0.143278	0.959529	-0.242437
23301	9.233560	1.009549	-2.430522	0.290759	-0.276144	0.170987	-0.043806	0.253610	0.966314	0.989092	-0.125148	0.077684	0.140634	0.959177	-0.245361
23302	9.004250	1.263120	-3.139230	0.331215	-0.146019	0.190721	-0.041672	0.254831	0.966087	0.989620	-0.122571	0.075019	0.137531	0.959186	-0.247078
23303	8.424537	1.398827	-3.820449	0.513833	-0.018494	0.227881	-0.039296	0.254765	0.966204	0.990394	-0.118359	0.071489	0.132572	0.959732	-0.247667
23304	9.115234	1.191794	-2.616468	0.592754	0.118831	0.228488	-0.037052	0.253411	0.966649	0.991239	-0.113395	0.067722	0.126775	0.960690	-0.246989
23305	10.349890	0.046189	-1.597877	0.719652	0.091382	0.086835	-0.036155	0.252445	0.966936	0.992152	-0.106822	0.064986	0.119696	0.961697	-0.246602
23306	10.100870	-0.442180	-1.801866	0.755632	0.015022	-0.071154	-0.036729	0.252385	0.966930	0.993001	-0.099465	0.063681	0.112248	0.962501	-0.246965
23307	10.090489	0.234858	-1.952247	0.771066	-0.032457	-0.135161	-0.037896	0.252806	0.966775	0.993787	-0.091778	0.062954	0.104644	0.963154	-0.247757
23308	10.298734	0.525515	-1.912566	0.799012	-0.098889	-0.138835	-0.039035	0.253885	0.966446	0.994540	-0.083805	0.062185	0.096781	0.963597	-0.249227
23309	10.222374	0.598406	-2.357512	0.813138	-0.156997	-0.056687	-0.039320	0.255434	0.966027	0.995272	-0.075917	0.060584	0.088813	0.963841	-0.251241
23310	10.201400	0.818702	-2.243801	0.714250	-0.297873	0.145485	-0.037519	0.258247	0.965350	0.995932	-0.069529	0.057308	0.081920	0.963574	-0.254588
23311	9.701005	0.824655	-3.224883	0.622780	-0.381616	0.282292	-0.034341	0.261775	0.964518	0.996517	-0.064406	0.052960	0.075984	0.962978	-0.258652
23312	9.025229	0.812550	-3.842685	0.472169	-0.412306	0.441004	-0.029607	0.265560	0.963640	0.996996	-0.061187	0.047494	0.071574	0.962151	-0.262950
23313	8.904963	0.500949	-3.990561	0.435145	-0.323369	0.450330	-0.024859	0.268469	0.962968	0.997410	-0.058370	0.042021	0.067490	0.961518	-0.266322
23314	8.877273	0.194137	-3.819279	0.466419	-0.226381	0.397429	-0.020689	0.270505	0.962496	0.997796	-0.055119	0.036938	0.063044	0.961139	-0.268769
23315	8.230652	0.450040	-3.515589	0.551523	-0.187604	0.299184	-0.017515	0.272198	0.962082	0.998180	-0.050779	0.032538	0.057710	0.960901	-0.270813
23316	8.114609	0.740355	-3.706826	0.575067	-0.042826	0.159295	-0.015797	0.272584	0.962002	0.998518	-0.045814	0.029378	0.052082	0.961041	-0.271456
23317	8.201127	1.078955	-2.322153	0.440385	-0.030893	0.066709	-0.015044	0.272871	0.961933	0.998745	-0.041865	0.027496	0.047775	0.961139	-0.271899
23318	8.730071	0.023951	-1.666952	0.273131	0.034128	-0.041899	-0.015428	0.272588	0.962007	0.998863	-0.039199	0.027127	0.045104	0.961332	-0.271673
23319	8.230364	-0.402293	-1.650883	0.092321	0.132611	-0.024595	-0.015713	0.271331	0.962358	0.998898	-0.038313	0.027112	0.044227	0.961723	-0.270430
23320	8.613203	-0.459711	-2.194136	-0.224452	0.291393	0.050591	-0.015358	0.268551	0.963143	0.998800	-0.040682	0.027269	0.046506	0.962406	-0.267604
23321	9.020179	-0.304566	-2.474017	-0.440944	0.249625	0.178235	-0.013772	0.266110	0.963844	0.998605	-0.045487	0.026827	0.050981	0.962869	-0.265112
23322	9.289294	-0.007013	-2.769541	-0.466004	0.157363	0.224397	-0.011701	0.264557	0.964299	0.998377	-0.050658	0.026013	0.055731	0.963039	-0.263535
23323	9.319122	0.085453	-2.543085	-0.312755	0.046942	0.168781	-0.010116	0.264054	0.964455	0.998209	-0.054198	0.025309	0.058954	0.962984	-0.263033
23324	9.104382	-0.217663	-2.654356	-0.257270	-0.010890	0.058876	-0.009588	0.264173	0.964428	0.998055	-0.056891	0.025506	0.061605	0.962796	-0.263114
23325	9.132483	-0.121723	-2.841949	-0.142570	-0.066170	0.026066	-0.009340	0.264812	0.964255	0.997963	-0.058391	0.025702	0.063110	0.962530	-0.263728
23326	9.202015	0.305303	-3.254322	-0.009890	-0.185156	0.045377	-0.008808	0.266612	0.963764	0.997955	-0.058671	0.025351	0.063304	0.962017	-0.265550
23327	9.358568	0.510070	-3.666184	0.119039	-0.289062	0.116044	-0.007498	0.269352	0.963013	0.998033	-0.057920	0.023970	0.062234	0.961299	-0.268388
23328	8.992936	0.789469	-3.464591	0.175869	-0.274358	0.219331	-0.005151	0.271928	0.962304	0.998148	-0.056930	0.021431	0.060612	0.960632	-0.271131
23329	9.282634	0.608097	-3.453012	0.076009	0.029280	0.245907	-0.002708	0.271552	0.962420	0.998196	-0.056987	0.018888	0.059974	0.960735	-0.270908
23330	9.602994	0.056365	-2.939793	0.009020	0.040644	0.290659	0.000167	0.271070	0.962560	0.998197	-0.057813	0.016108	0.060014	0.960822	-0.270591
23331	9.864490	-0.210377	-3.046264	-0.150653	0.097885	0.206330	0.002135	0.270051	0.962844	0.998097	-0.059918	0.014593	0.061633	0.960980	-0.269664
23332	9.409528	-0.238217	-3.398965	-0.186694	0.065965	0.110664	0.003158	0.269402	0.963023	0.997971	-0.062088	0.014097	0.063590	0.961024	-0.269052
23333	9.658172	-0.004369	-3.731337	-0.177729	0.219062	-0.050854	0.002487	0.267337	0.963600	0.997854	-0.063712	0.015100	0.065430	0.961495	-0.266922
23334	10.009312	0.166050	-3.660980	-0.032488	0.230989	-0.163124	0.000722	0.265232	0.964184	0.997833	-0.063629	0.016756	0.065794	0.962083	-0.264703
23335	9.672371	0.437932	-3.597781	0.109898	0.222650	-0.143892	-0.000821	0.263173	0.964748	0.997902	-0.062241	0.017827	0.064738	0.962739	-0.262570
23336	10.054124	0.275262	-3.210499	0.189682	0.240142	-0.072526	-0.001636	0.260927	0.965357	0.998019	-0.060294	0.017988	0.062898	0.963474	-0.260312
23337	10.427828	0.069959	-2.232657	0.221617	0.127805	-0.036344	-0.002029	0.259725	0.965680	0.998151	-0.058137	0.017733	0.060748	0.963931	-0.259127
23338	10.742283	0.213989	-2.245134	0.342949	-0.035045	0.028336	-0.001669	0.260084	0.965585	0.998350	-0.054993	0.016538	0.057401	0.964019	-0.259563
23339	10.501910	0.610944	-2.286707	0.550977	-0.199357	0.130908	-0.000181	0.261965	0.965077	0.998647	-0.050137	0.013796	0.052000	0.963774	-0.261601
23340	10.235857	0.380231	-2.152623	0.655451	-0.305175	0.183466	0.001884	0.264874	0.964281	0.998960	-0.044431	0.010252	0.045560	0.963259	-0.264683
23341	10.187359	-0.274209	-2.162713	0.580953	-0.236616	0.131342	0.003370	0.267125	0.963656	0.999200	-0.039299	0.007400	0.039848	0.962860	-0.267044
23342	9.953597	-0.311700	-1.866412	0.478154	-0.202133	0.044687	0.003952	0.269094	0.963106	0.999375	-0.034908	0.005653	0.035142	0.962481	-0.269064
23343	9.844397	-0.279021	-2.508216	0.362021	-0.049154	-0.066884	0.003352	0.269589	0.962970	0.999496	-0.031313	0.005287	0.031579	0.962466	-0.269558
23344	9.917804	-0.042268	-2.145185	0.297995	0.005948	-0.145544	0.001947	0.269589	0.962973	0.999588	-0.028105	0.005848	0.028640	0.962565	-0.269533
23345	9.854696	-0.029063	-2.252139	0.150748	-0.002559	-0.157032	0.000392	0.269644	0.962960	0.999631	-0.026271	0.006949	0.027171	0.962602	-0.269555
23346	9.664965	0.315866	-2.326912	0.050619	-0.013457	-0.104433	-0.000652	0.269823	0.962910	0.999643	-0.025547	0.007835	0.026714	0.962571	-0.269710
23347	9.455341	0.609845	-2.385583	0.011776	0.009085	-0.084755	-0.001514	0.269754	0.962928	0.999644	-0.025253	0.008646	0.026649	0.962598	-0.269619
23348	9.188718	0.434617	-2.508218	0.010634	0.044815	-0.015258	-0.001682	0.269360	0.963038	0.999645	-0.025172	0.008787	0.026609	0.962711	-0.269222
23349	9.870660	-0.046522	-1.788916	-0.024096	0.043015	0.010428	-0.001606	0.268952	0.963152	0.999636	-0.025498	0.008787	0.026922	0.962816	-0.268813
