// General information: 
//  MT Manager version: 2019.2.0 
//  XDA version: 2019.2.0 build 3853 rev 94535 built on 2019-09-09
// Device information: 
//  DeviceId: 00B44058
//  ProductCode: MTW2-3A7G6
//  Firmware Version: 4.3.5
//  Hardware Version: 1.1.0
// Device settings: 
//  Filter Profile: human(46.1)
//  Option Flags: Orientation Smoother Disabled, AHS Disabled, ICC Disabled
// Coordinate system: ENU
PacketCounter	Acc_X	Acc_Y	Acc_Z	Gyr_X	Gyr_Y	Gyr_Z
00000	9.751924	-0.050761	-0.752621	0.001378	-0.002255	0.007472
00001	9.790406	-0.097230	-0.750539	-0.003198	0.000326	0.008155
00002	9.796342	-0.080703	-0.766598	-0.001174	0.002937	0.007127
00003	9.742719	-0.071180	-0.701757	-0.001353	0.001845	0.004249
00004	9.742732	-0.071716	-0.701515	-0.002796	0.003145	0.007058
00005	9.719204	-0.066207	-0.703433	-0.001665	-0.000428	0.006785
00006	9.739452	-0.074332	-0.666918	-0.002817	0.002827	0.010486
00007	9.772853	-0.078136	-0.767719	-0.003018	0.001417	0.011034
00008	9.763620	-0.097301	-0.717125	-0.003376	-0.000765	0.005277
00009	9.778159	-0.047257	-0.731319	0.000449	0.002727	0.007197
00010	9.776146	-0.078885	-0.801818	-0.001643	-0.000110	0.003358
00011	9.796393	-0.086538	-0.765316	-0.004596	0.002263	0.004110
00012	9.774904	-0.049501	-0.696416	-0.002662	0.004328	0.001643
00013	9.742158	-0.061982	-0.647594	-0.002974	0.002054	0.004180
00014	9.723955	-0.023830	-0.613065	-0.001040	0.004119	0.001713
00015	9.736511	-0.004235	-0.697645	-0.002931	0.002692	-0.002675
00016	9.817003	-0.019307	-0.794257	-0.004485	0.003128	0.002122
00017	9.811091	-0.036541	-0.777609	-0.000817	0.005848	-0.002263
00018	9.748882	-0.059615	-0.714378	-0.000817	0.005848	-0.002262
00019	9.783707	-0.015950	-0.691613	-0.003949	0.007131	-0.004389
00020	9.781772	-0.046326	-0.761494	-0.003815	0.008314	-0.009804
00021	9.787138	-0.012968	-0.724234	-0.000056	0.011580	-0.012749
00022	9.805072	0.039936	-0.771698	-0.004944	0.011888	-0.009530
00023	9.645433	0.041028	-0.682019	-0.005547	0.007658	-0.007886
00024	9.707901	-0.101100	-0.662681	-0.002217	0.007053	0.008841
00025	9.703653	-0.163156	-0.508367	-0.002484	0.005418	0.004523
00026	9.714888	-0.114069	-0.487923	-0.001354	0.001844	0.004249
00027	9.727774	-0.019287	-0.639570	-0.001598	0.000528	-0.003497
00028	9.804023	-0.006320	-0.892116	-0.001846	-0.001521	0.003905
00029	9.902540	-0.135567	-0.956295	-0.006242	0.002151	0.007466
00030	9.756391	-0.145759	-0.762244	0.002157	0.003062	0.008708
00031	9.751039	-0.102633	-0.569916	-0.003903	0.007037	0.003905
00032	9.617792	-0.017410	-0.527601	-0.001823	-0.001201	0.000478
00033	9.716231	0.019106	-0.672983	-0.002976	0.002053	0.004179
00034	9.775899	0.025707	-0.753697	-0.001780	-0.001295	0.008772
00035	9.835246	-0.043282	-0.767541	0.000423	0.002405	0.010626
00036	9.778238	-0.035138	-0.668326	-0.002684	0.004008	0.005071
00037	9.758751	-0.043140	-0.756857	-0.006016	0.003882	0.003491
00038	9.791589	-0.031201	-0.805095	0.001800	0.000881	0.002950
00039	9.764068	-0.011736	-0.720019	-0.004127	0.005307	0.007881
00040	9.757432	-0.014879	-0.650987	0.001955	0.001650	0.009256
00041	9.703730	-0.005398	-0.586296	-0.001443	0.001299	0.002809
00042	9.766386	-0.072563	-0.634401	-0.003064	0.001509	0.002739
00043	9.714429	-0.017473	-0.741594	-0.003177	0.000644	0.004727
00044	9.777087	-0.085087	-0.789610	-0.000996	0.004024	0.010009
00045	9.776410	-0.071151	-0.736845	-0.003021	0.001414	0.011034
00046	9.859231	-0.146201	-0.748589	0.000066	0.000225	0.004867
00047	9.774490	-0.103173	-0.806965	-0.006917	0.009187	-0.000209
00048	9.732092	-0.043735	-0.721641	0.000673	0.004454	0.003225
00049	9.650839	-0.014170	-0.571976	-0.001174	0.002934	0.007129
00050	9.691900	-0.044597	-0.551544	-0.003403	-0.001086	0.008702
00051	9.767178	-0.092533	-0.684791	-0.001847	-0.001520	0.003905
00052	9.822010	-0.042601	-0.868670	-0.001442	0.001299	0.002810
00053	9.776939	0.000611	-0.801978	0.000382	0.002499	0.002332
00054	9.743407	0.002661	-0.700898	-0.003223	0.000003	0.011582
00055	9.781132	-0.029116	-0.645952	-0.004124	0.005308	0.007881
00056	9.761665	-0.037206	-0.734625	-0.001645	-0.000110	0.003357
00057	9.785198	-0.043648	-0.732342	-0.002658	0.004329	0.001644
00058	9.672226	0.034261	-0.653681	-0.001555	0.000434	0.004797
00059	9.737479	-0.017224	-0.683795	-0.003403	-0.001086	0.008702
00060	9.803410	-0.083834	-0.766494	-0.003402	-0.001086	0.008702
00061	9.827629	-0.105620	-0.816720	-0.000857	0.005208	0.004595
00062	9.776587	-0.079807	-0.733605	-0.002770	0.003464	0.003632
00063	9.716674	0.002854	-0.666824	-0.004302	0.004219	0.005002
00064	9.724857	-0.039515	-0.597752	0.000269	0.001633	0.004320
00065	9.747104	-0.092409	-0.718864	-0.003516	-0.001952	0.010689
00066	9.788128	-0.122735	-0.698478	-0.002860	0.002920	0.002192
00067	9.746427	-0.078355	-0.666004	-0.002770	0.003464	0.003632
00068	9.714074	-0.015820	-0.684178	-0.003199	0.000324	0.008154
00069	9.815520	-0.054110	-0.797088	-0.003402	-0.001086	0.008702
00070	9.833720	-0.093380	-0.831240	0.002161	0.003055	0.008711
00071	9.782672	-0.067603	-0.748216	-0.002746	0.003786	0.000205
00072	9.716095	0.012945	-0.612588	-0.003894	0.007039	0.003908
00073	9.692610	0.018720	-0.614261	-0.004707	0.001400	0.006097
00074	9.726196	0.015341	-0.715133	-0.001578	0.000113	0.008225
00075	9.779379	-0.070884	-0.712854	-0.001578	0.000113	0.008225
00076	9.808912	-0.060437	-0.726831	-0.004593	0.002266	0.004109
00077	9.770594	-0.014765	-0.728652	-0.000920	0.004985	-0.000271
00078	9.753121	0.008457	-0.746668	-0.004910	-0.000010	0.006644
00079	9.759262	-0.065319	-0.748633	0.001550	-0.001176	0.010353
00080	9.770032	-0.092040	-0.661594	-0.002791	0.003143	0.007061
00081	9.731020	-0.031716	-0.610961	-0.002858	0.002921	0.002193
00082	9.708218	-0.040691	-0.665387	-0.003175	0.000645	0.004727
00083	9.755934	-0.068539	-0.713678	-0.001554	0.000434	0.004798
00084	9.777472	-0.106463	-0.782215	-0.003109	0.000868	0.009595
00085	9.802950	-0.082477	-0.709346	-0.003085	0.001189	0.006167
00086	9.782118	-0.060705	-0.693087	-0.001260	0.002388	0.005691
00087	9.761288	-0.038692	-0.676837	-0.003151	0.000967	0.001299
00088	9.741152	-0.031584	-0.713151	-0.004706	0.001401	0.006097
00089	9.764668	-0.038561	-0.710897	-0.001283	0.002065	0.009119
00090	9.740480	-0.018113	-0.660241	-0.002880	0.002599	0.005621
00091	9.767365	-0.023643	-0.692269	-0.002971	0.002055	0.004180
00092	9.753274	0.000585	-0.744717	-0.001464	0.000977	0.006238
00093	9.771448	-0.038568	-0.778822	-0.002904	0.002277	0.009049
00094	9.794260	-0.030701	-0.724128	-0.001668	-0.000432	0.006785
00095	9.743889	-0.019877	-0.693883	-0.002970	0.002055	0.004180
00096	9.761377	-0.043645	-0.675241	-0.004068	0.005953	0.001029
00097	9.738592	-0.052535	-0.729548	0.000067	0.000221	0.004868
00098	9.731854	-0.055518	-0.660772	-0.002994	0.001733	0.007608
00099	9.735232	-0.055054	-0.694955	-0.001373	0.001521	0.007679
00100	9.788287	-0.051000	-0.706818	-0.001463	0.000977	0.006238
00101	9.780261	-0.099675	-0.761302	-0.003265	0.000102	0.003287
00102	9.788989	-0.066611	-0.759218	-0.001440	0.001300	0.002811
00103	9.717802	-0.033386	-0.712773	0.000453	0.002718	0.007203
00104	9.728509	-0.060079	-0.625712	0.000043	-0.000101	0.008296
00105	9.755389	-0.065745	-0.657809	-0.001144	0.003253	0.003705
00106	9.764828	-0.047686	-0.708131	-0.001554	0.000434	0.004798
00107	9.770893	-0.030743	-0.724129	-0.002855	0.002922	0.002193
00108	9.732642	0.014682	-0.726134	-0.003198	0.000323	0.008155
00109	9.794395	-0.038321	-0.721929	-0.001782	-0.001299	0.008772
00110	9.764838	-0.049841	-0.707841	-0.004680	0.001725	0.002669
00111	9.750100	-0.010574	-0.707641	-0.001053	0.003797	0.005146
00112	9.758859	0.022467	-0.705384	-0.003150	0.000969	0.001299
00113	9.725933	0.009794	-0.656831	-0.001281	0.002064	0.009120
00114	9.746755	-0.013392	-0.672805	-0.003197	0.000323	0.008155
00115	9.794440	-0.041559	-0.721150	-0.001667	-0.000433	0.006785
00116	9.768253	-0.051826	-0.741463	-0.000023	-0.000323	0.003428
00117	9.747456	-0.029868	-0.725192	-0.002672	0.004010	0.005075
00118	9.744096	-0.031580	-0.690541	-0.001257	0.002387	0.005692
00119	9.762226	-0.070585	-0.724654	-0.001462	0.000977	0.006239
00120	9.782342	-0.078828	-0.688073	-0.001280	0.002064	0.009121
00121	9.755479	-0.074339	-0.655559	-0.002763	0.003466	0.003635
00122	9.738075	-0.051120	-0.673530	-0.004588	0.002270	0.004110
00123	9.744159	-0.034325	-0.689516	-0.003082	0.001190	0.006168
00124	9.789154	-0.078456	-0.755944	0.000158	0.000763	0.006310
00125	9.816035	-0.084158	-0.788094	-0.003082	0.001190	0.006168
00126	9.750258	-0.018796	-0.705284	-0.004497	0.002813	0.005551
00127	9.773070	-0.010700	-0.650424	-0.002967	0.002057	0.004181
00128	9.729482	0.002531	-0.688859	0.000044	-0.000104	0.008297
00129	9.794569	-0.049233	-0.718907	-0.001462	0.000977	0.006239
00130	9.759073	0.012309	-0.702664	-0.001141	0.003253	0.003706
00131	9.773803	-0.027716	-0.702359	-0.001347	0.001843	0.004252
00132	9.739007	0.019049	-0.738671	-0.001347	0.001843	0.004252
00133	9.771128	-0.044675	-0.720222	-0.003082	0.001190	0.006168
00134	9.771152	-0.045329	-0.719857	-0.000661	0.006292	0.007483
00135	9.759002	-0.080565	-0.687102	-0.002784	0.003143	0.007063
00136	9.744312	-0.041550	-0.686958	-0.001461	0.000977	0.006239
00137	9.771203	-0.047065	-0.719056	-0.006298	0.001942	0.002598
00138	9.738940	-0.074515	-0.722967	-0.001164	0.002929	0.007134
00139	9.762440	-0.081457	-0.720609	-0.001255	0.002386	0.005693
00140	9.785938	-0.088341	-0.718285	0.000365	0.002172	0.005764
00141	9.771257	-0.049262	-0.718174	-0.003081	0.001190	0.006168
00142	9.747779	-0.043354	-0.720155	-0.001437	0.001300	0.002811
00143	9.747788	-0.043926	-0.719992	-0.001278	0.002062	0.009122
00144	9.747089	-0.029790	-0.667418	-0.000139	-0.001191	0.005416
00145	9.744387	-0.046221	-0.685587	-0.004677	0.001729	0.002669
00146	9.753201	-0.013304	-0.683394	-0.003081	0.001191	0.006169
00147	9.757308	-0.027511	-0.770158	-0.001461	0.000976	0.006240
00148	9.780104	-0.019587	-0.715360	-0.001254	0.002386	0.005694
00149	9.776720	-0.021256	-0.680747	-0.001139	0.003253	0.003707
00150	9.774031	-0.037846	-0.698700	-0.002989	0.001734	0.007610
00151	9.739285	0.008912	-0.735193	-0.003562	-0.001848	0.002391
00152	9.744445	-0.049731	-0.684524	-0.000864	0.004881	0.008031
00153	9.747161	-0.034333	-0.666146	-0.000139	-0.001191	0.005416
00154	9.759111	-0.090600	-0.684300	-0.003080	0.001191	0.006169
00155	9.765231	-0.073825	-0.700292	-0.001345	0.001843	0.004253
00156	9.774764	-0.055731	-0.750578	-0.002965	0.002058	0.004182
00157	9.771376	-0.057474	-0.715940	0.000665	0.004124	0.006661
00158	9.747903	-0.051634	-0.717918	-0.001851	-0.001519	0.003903
00159	9.767976	-0.059727	-0.681399	-0.002781	0.003143	0.007064
00160	9.771393	-0.058998	-0.715588	-0.001644	-0.000109	0.003357
00161	9.747931	-0.053014	-0.717436	-0.002459	0.005420	0.004531
00162	9.759497	-0.004157	-0.696849	-0.003080	0.001191	0.006169
00163	9.753393	-0.022026	-0.680434	-0.002574	0.004553	0.006519
00164	9.754116	-0.037346	-0.732650	-0.002964	0.002058	0.004182
00165	9.774196	-0.045294	-0.695938	-0.002757	0.003468	0.003636
00166	9.786462	-0.011478	-0.728035	-0.003219	-0.000001	0.011584
00167	9.732695	-0.001903	-0.663343	-0.002550	0.004878	0.003090
00168	9.756895	-0.023503	-0.713468	-0.004700	0.001406	0.006098
00169	9.754192	-0.040017	-0.731504	-0.002964	0.002058	0.004182
00170	9.774264	-0.047985	-0.694801	-0.001137	0.003253	0.003708
00171	9.754227	-0.040756	-0.730988	-0.002964	0.002058	0.004182
00172	9.753525	-0.026468	-0.678369	-0.001667	-0.000434	0.006786
00173	9.748091	-0.059326	-0.714761	-0.003103	0.000866	0.009598
00174	9.792327	-0.088839	-0.728590	-0.001252	0.002385	0.005695
00175	9.771584	-0.066897	-0.712278	-0.002964	0.002058	0.004182
00176	9.727377	-0.038532	-0.697988	-0.004283	0.004226	0.005007
00177	9.724665	-0.055226	-0.716065	-0.000164	-0.001518	0.008844
00178	9.771608	-0.068757	-0.711774	-0.001160	0.002927	0.007137
00179	9.777762	-0.052051	-0.727726	-0.003171	0.000649	0.004727
00180	9.750873	-0.047328	-0.695384	-0.001343	0.001843	0.004253
00181	9.757030	-0.030393	-0.711356	-0.001435	0.001300	0.002812
00182	9.763190	-0.013776	-0.727301	0.000437	0.002386	0.010637
00183	9.780523	-0.038146	-0.708846	-0.002963	0.002059	0.004182
00184	9.765943	0.001154	-0.708673	-0.002963	0.002059	0.004182
00185	9.756377	-0.017812	-0.657989	-0.002871	0.002601	0.005624
00186	9.719041	0.012938	-0.712430	-0.001251	0.002385	0.005695
00187	9.777846	-0.056162	-0.726293	-0.001667	-0.000435	0.006786
00188	9.757110	-0.034410	-0.710075	-0.001159	0.002927	0.007137
00189	9.786747	-0.024179	-0.723892	-0.001459	0.000975	0.006241
00190	9.780609	-0.041951	-0.707448	-0.004073	0.005637	0.004462
00191	9.733706	-0.029696	-0.711253	-0.002778	0.003143	0.007066
00192	9.771744	-0.076352	-0.709124	0.001179	-0.003362	0.004591
00193	9.768308	-0.078140	-0.674744	-0.000949	0.004337	0.006592
00194	9.751721	-0.069830	-0.745363	-0.001760	-0.000977	0.005344
00195	9.768309	-0.079199	-0.674609	-0.001551	0.000433	0.004799
00196	9.757180	-0.038778	-0.708885	-0.003078	0.001192	0.006169
00197	9.786820	-0.028566	-0.722745	-0.002985	0.001734	0.007611
00198	9.751022	-0.057296	-0.692531	0.000069	0.000216	0.004871
00199	9.780671	-0.046815	-0.706283	-0.002544	0.004879	0.003092
00200	9.759959	-0.024595	-0.689921	0.000092	0.000542	0.001442
00201	9.757229	-0.041067	-0.708085	-0.004813	0.000541	0.008085
00202	9.757236	-0.041718	-0.707944	-0.001249	0.002385	0.005696
00203	9.733790	-0.035843	-0.709820	-0.002869	0.002602	0.005624
00204	9.763436	-0.025480	-0.723669	-0.001551	0.000433	0.004799
00205	9.789641	-0.016287	-0.703201	-0.004580	0.002277	0.004111
00206	9.733820	-0.037222	-0.709337	0.001989	0.001950	0.005840
00207	9.753856	-0.045407	-0.672585	-0.004279	0.004229	0.005008
00208	9.774597	-0.068288	-0.688398	0.000278	0.001626	0.004326
00209	9.754596	-0.061167	-0.724619	-0.002776	0.003144	0.007067
00210	9.731153	-0.055353	-0.726472	-0.001249	0.002384	0.005696
00211	9.754621	-0.062338	-0.724177	-0.003077	0.001192	0.006170
00212	9.754636	-0.062875	-0.723935	-0.001039	0.003794	0.005151
00213	9.751204	-0.064576	-0.689330	-0.001341	0.001843	0.004254
00214	9.774674	-0.071461	-0.686981	-0.004487	0.002819	0.005553
00215	9.754675	-0.064355	-0.723273	0.001780	0.000540	0.006385
00216	9.760160	-0.032921	-0.686736	-0.004696	0.001409	0.006098
00217	9.737420	-0.041833	-0.741297	-0.001458	0.000974	0.006241
00218	9.780883	-0.056549	-0.702624	-0.001458	0.000974	0.006241
00219	9.763636	-0.033325	-0.720651	-0.001131	0.003252	0.003710
00220	9.740191	-0.027373	-0.722617	-0.004905	-0.000000	0.006643
00221	9.749131	0.005287	-0.720512	-0.003286	-0.000218	0.006715
00222	9.760202	-0.036312	-0.685964	-0.002564	0.004553	0.006522
00223	9.763668	-0.035610	-0.720110	-0.003379	-0.000759	0.005272
00224	9.763669	-0.036068	-0.720068	0.000279	0.001625	0.004327
00225	9.733318	-0.032617	-0.653327	-0.002866	0.002602	0.005625
00226	9.757493	-0.054360	-0.703526	0.000372	0.002166	0.005769
00227	9.763712	-0.037648	-0.719408	-0.001247	0.002384	0.005697
00228	9.778223	-0.077920	-0.719171	-0.001247	0.002384	0.005697
00229	9.731334	-0.065572	-0.723193	-0.001247	0.002384	0.005697
00230	9.761009	-0.055280	-0.736917	-0.004485	0.002820	0.005553
00231	9.730644	-0.051990	-0.670234	-0.003193	0.000324	0.008157
00232	9.781006	-0.064320	-0.700247	-0.001457	0.000974	0.006242
00233	9.757563	-0.058459	-0.702232	0.001991	0.001947	0.005841
00234	9.778267	-0.081503	-0.718178	-0.003076	0.001193	0.006170
00235	9.734132	-0.053139	-0.704024	-0.002865	0.002602	0.005625
00236	9.740364	-0.036408	-0.719883	-0.001246	0.002384	0.005697
00237	9.766577	-0.027416	-0.699341	-0.004694	0.001411	0.006098
00238	9.743146	-0.021404	-0.701233	-0.002748	0.003471	0.003639
00239	9.766611	-0.028227	-0.698834	-0.002958	0.002061	0.004183
00240	9.728705	0.017476	-0.700814	-0.001457	0.000974	0.006242
00241	9.752164	0.010440	-0.698520	-0.001246	0.002384	0.005698
00242	9.763884	-0.045870	-0.716591	-0.001456	0.000974	0.006242
00243	9.772872	-0.013191	-0.714351	-0.003075	0.001193	0.006170
00244	9.781109	-0.070715	-0.698180	-0.001550	0.000433	0.004800
00245	9.716289	-0.019859	-0.668109	-0.001667	-0.000436	0.006787
00246	9.754886	-0.081465	-0.718687	-0.008563	-0.002380	0.007587
00247	9.761137	-0.064700	-0.734461	0.003046	0.008995	0.003120
00248	9.783910	-0.056925	-0.679153	-0.006008	0.003582	0.006924
00249	9.757733	-0.066908	-0.699110	-0.002536	0.004881	0.003095
00250	9.751529	-0.084461	-0.682543	-0.002535	0.004881	0.003095
00251	9.781245	-0.073999	-0.695930	-0.002231	0.006832	0.003993
00252	9.760602	-0.051925	-0.679232	-0.002442	0.005422	0.004537
00253	9.766873	-0.035099	-0.694853	-0.004272	0.004231	0.005009
00254	9.743467	-0.028965	-0.696478	-0.002324	0.006291	0.002551
00255	9.743500	-0.029347	-0.696009	0.002203	0.003355	0.005299
00256	9.749766	-0.012432	-0.711780	-0.004458	0.003150	0.002124
00257	9.773238	-0.019286	-0.709195	-0.002348	0.005963	0.005980
00258	9.776028	-0.003746	-0.690495	-0.002746	0.003471	0.003639
00259	9.764296	-0.053452	-0.710429	-0.002348	0.005963	0.005980
00260	9.752656	0.001924	-0.691685	-0.001009	0.004121	0.001725
00261	9.743682	-0.031553	-0.693355	0.000914	0.005852	0.002696
00262	9.767141	-0.038395	-0.690892	-0.003169	0.000652	0.004727
00263	9.787850	-0.061185	-0.706580	-0.002111	0.007701	0.002007
00264	9.758229	-0.071884	-0.691650	-0.004688	0.012698	-0.003200
00265	9.821672	0.086247	-0.903556	-0.028710	0.017284	0.003468
00266	9.846761	-0.009352	-1.177241	-0.100194	0.089618	0.004248
00267	9.830381	-0.014823	-0.993413	-0.130776	0.159404	-0.002498
00268	9.827614	0.000165	-0.888472	-0.162913	0.207608	-0.005865
00269	9.850403	-0.020416	-0.882059	-0.179298	0.250124	-0.000503
00270	9.835822	-0.144409	-1.036559	-0.150878	0.294101	0.000863
00271	9.859861	-0.105191	-1.105070	-0.103260	0.355305	-0.000966
00272	9.887770	-0.050108	-1.147610	-0.097817	0.441406	-0.002122
00273	9.905978	-0.043404	-1.201542	-0.118980	0.545590	-0.009988
00274	9.869832	0.002929	-0.884542	-0.143604	0.646704	-0.009972
00275	9.731409	-0.032639	-0.352137	-0.155637	0.679712	-0.010547
00276	9.727814	-0.003148	-0.181301	-0.175047	0.665893	-0.011784
00277	9.776297	0.030603	-0.212996	-0.203604	0.656759	-0.013325
00278	9.740074	-0.041722	-0.211189	-0.191224	0.657372	-0.006382
00279	9.779560	-0.056972	-0.264312	-0.153312	0.662488	-0.007146
00280	9.799977	-0.034377	-0.281577	-0.122028	0.687663	-0.005428
00281	9.824460	-0.041043	-0.366371	-0.105048	0.735420	-0.002319
00282	9.791212	-0.037984	-0.227557	-0.097950	0.790777	-0.005392
00283	9.744700	-0.083001	0.050537	-0.081661	0.820898	-0.010327
00284	9.710737	-0.077015	0.317787	-0.066738	0.813069	-0.016220
00285	9.731737	-0.066330	0.419305	-0.070822	0.799539	-0.024091
00286	9.702857	-0.075240	0.349156	-0.072438	0.800353	-0.032128
00287	9.746617	-0.041272	0.368859	-0.055233	0.807570	-0.031660
00288	9.704782	-0.021135	0.529073	-0.024343	0.819394	-0.025437
00289	9.706588	-0.045360	0.661478	-0.009621	0.812828	-0.023290
00290	9.700879	-0.027393	0.759261	-0.004689	0.813349	-0.029165
00291	9.662992	-0.035523	0.846837	-0.002187	0.809319	-0.035202
00292	9.677714	0.007753	0.986716	0.006229	0.795296	-0.033974
00293	9.618661	0.026163	1.174951	0.018894	0.769923	-0.030039
00294	9.650023	0.058092	1.224770	0.024313	0.732774	-0.025790
00295	9.641720	0.045339	1.275285	0.031673	0.706086	-0.023482
00296	9.620869	0.041148	1.283766	0.032264	0.678835	-0.021574
00297	9.697743	0.019514	1.120549	0.021930	0.681093	-0.021215
00298	9.687993	0.033011	1.115474	0.016877	0.708093	-0.027476
00299	9.667682	0.048955	1.237193	0.020218	0.740554	-0.023267
00300	9.633423	0.077876	1.412489	0.022245	0.756495	-0.019898
00301	9.620950	0.084395	1.576626	0.004975	0.758436	-0.015223
00302	9.551940	0.074830	1.811045	0.004863	0.735718	-0.014973
00303	9.540531	0.060345	1.860988	0.000200	0.703885	-0.005472
00304	9.528122	0.034507	1.980018	0.003748	0.667257	-0.004997
00305	9.476929	0.043738	2.156667	0.018361	0.615781	0.001920
00306	9.491854	0.059979	2.297200	0.060105	0.544630	0.010696
00307	9.514547	0.029119	2.152656	0.121333	0.473136	0.020399
00308	9.528097	0.022034	1.981618	0.165688	0.435635	0.032756
00309	9.588562	0.027737	1.772398	0.152801	0.447425	0.025520
00310	9.605413	0.019991	1.603995	0.113286	0.503970	0.012320
00311	9.601600	0.069495	1.679603	0.074461	0.576463	0.006829
00312	9.531060	0.067519	1.956143	0.032434	0.639082	-0.000643
00313	9.424123	0.092832	2.335568	0.005841	0.642702	-0.001917
00314	9.376417	0.075784	2.661388	-0.004432	0.604830	-0.003020
00315	9.347252	0.073796	2.746538	-0.006432	0.538486	0.000290
00316	9.371875	0.095241	2.717688	-0.006003	0.473113	-0.001478
00317	9.411660	0.054099	2.610462	-0.005813	0.434080	0.000745
00318	9.403328	0.056987	2.519068	-0.000882	0.416673	0.001110
00319	9.435904	0.062977	2.463944	-0.004366	0.410810	-0.003872
00320	9.415048	0.087110	2.480522	-0.001741	0.416629	-0.000304
00321	9.393558	0.069405	2.532810	-0.000556	0.422140	0.001489
00322	9.377794	0.066162	2.703574	-0.002820	0.417665	0.001195
00323	9.307314	0.057970	2.865727	-0.002453	0.388427	0.003241
00324	9.356485	0.065435	2.776433	-0.004897	0.361035	0.004142
00325	9.387029	0.056094	2.598722	-0.008193	0.363186	0.007985
00326	9.375168	0.048123	2.574385	-0.003098	0.382511	0.003987
00327	9.349537	0.045674	2.642437	-0.003339	0.411155	0.004226
00328	9.316650	0.047459	2.902223	-0.000959	0.411987	0.002870
00329	9.249764	0.072628	3.068374	0.000179	0.391009	0.000465
00330	9.244995	0.071444	3.202885	0.000508	0.346167	0.001098
00331	9.260847	0.083721	3.130568	-0.000016	0.304381	0.000474
00332	9.261644	0.086681	3.026341	-0.003107	0.275438	0.001608
00333	9.268733	0.081180	2.961554	-0.003100	0.267018	0.001243
00334	9.324362	0.081523	2.805554	-0.007029	0.280186	0.002761
00335	9.304352	0.063542	2.845510	-0.002554	0.314168	0.002058
00336	9.258060	0.082230	3.014171	-0.006734	0.337898	-0.000064
00337	9.268653	0.075566	3.056538	-0.004094	0.343184	0.002102
00338	9.187692	0.083104	3.227267	-0.004866	0.335383	-0.001942
00339	9.181091	0.081814	3.357325	-0.005101	0.306501	0.001318
00340	9.225902	0.071818	3.275705	-0.002210	0.283146	0.003269
00341	9.171978	0.085415	3.178541	-0.002635	0.273271	0.003297
00342	9.177893	0.037982	3.149598	-0.004885	0.279727	0.005761
00343	9.226391	0.076690	3.092216	-0.005961	0.300534	0.001892
00344	9.165758	0.070235	3.210853	-0.001896	0.321183	0.005839
00345	9.181595	0.053787	3.393600	-0.004058	0.322099	0.001850
00346	9.090361	0.077851	3.476926	-0.003619	0.296044	0.004211
00347	9.102808	0.063726	3.455122	-0.002692	0.277417	0.004120
00348	9.107497	0.073679	3.408876	-0.002741	0.268969	0.003711
00349	9.152616	0.072178	3.285301	-0.001237	0.279392	0.000568
00350	9.154434	0.090738	3.200114	-0.003628	0.314586	0.003336
00351	9.134068	0.065368	3.182987	-0.003579	0.352491	0.005738
00352	9.128889	0.098123	3.223527	-0.004067	0.397046	0.002458
00353	9.096606	0.093478	3.491814	-0.003509	0.424890	0.000070
00354	9.005660	0.091132	3.807645	-0.005954	0.416927	0.004123
00355	8.914752	0.089735	4.019613	-0.008433	0.368560	0.003273
00356	8.943260	0.077514	3.973247	-0.007691	0.306024	0.002796
00357	8.979013	0.106985	3.887551	-0.001097	0.265304	0.006314
00358	8.999592	0.086753	3.703486	-0.009103	0.242807	0.003748
00359	8.992974	0.087380	3.624968	-0.002859	0.248555	0.004981
00360	9.038364	0.044024	3.536532	-0.000124	0.266444	0.004717
00361	9.042388	0.052765	3.592263	-0.008322	0.299593	0.001900
00362	8.977175	0.086877	3.772856	-0.003341	0.318219	0.000273
00363	8.984993	0.080172	3.814124	-0.007316	0.322993	0.001245
00364	8.908463	0.048940	3.881601	-0.006047	0.321437	0.002189
00365	8.922408	0.075359	3.929394	-0.006101	0.319563	0.001239
00366	8.871183	0.079318	3.973379	-0.006192	0.307053	0.003839
00367	8.867132	0.094918	4.089440	-0.005662	0.291393	0.007628
00368	8.860843	0.095423	4.013816	-0.006487	0.270322	0.004428
00369	8.907197	0.060382	3.886413	-0.005693	0.273866	0.005217
00370	8.901059	0.077912	3.728803	-0.004960	0.304337	0.005470
00371	8.908733	0.062426	3.812141	-0.004318	0.346040	0.003685
00372	8.855989	0.081445	4.049261	-0.003972	0.365991	0.002351
00373	8.801836	0.077100	4.138181	-0.002445	0.363932	0.001886
00374	8.813232	0.062993	4.124297	-0.007100	0.361250	0.005166
00375	8.765392	0.100060	4.177695	-0.008618	0.357090	0.001238
00376	8.762984	0.051368	4.256786	-0.004528	0.355660	0.004607
00377	8.768732	0.061278	4.218107	-0.004612	0.347201	0.004153
00378	8.748702	0.093244	4.183300	-0.005253	0.351050	0.004561
00379	8.711616	0.073650	4.324943	-0.005427	0.356369	0.004608
00380	8.735880	0.068617	4.341444	-0.005060	0.349366	0.003779
00381	8.725567	0.101746	4.206777	-0.006806	0.360021	0.008456
00382	8.703678	0.067697	4.232187	-0.004650	0.383942	0.004702
00383	8.688391	0.074668	4.397500	-0.009503	0.399720	0.006901
00384	8.645325	0.103458	4.566708	-0.007148	0.396550	0.008783
00385	8.570659	0.072369	4.706050	-0.006792	0.366546	0.005316
00386	8.552216	0.063129	4.777130	-0.006296	0.327234	0.004902
00387	8.560667	0.072957	4.734901	-0.003663	0.291128	0.005680
00388	8.555206	0.056720	4.741148	-0.003632	0.256901	0.005084
00389	8.540788	0.088786	4.696605	-0.000840	0.234020	0.004915
00390	8.553921	0.098722	4.647438	-0.004991	0.218299	0.005563
00391	8.549097	0.073892	4.689798	-0.004706	0.206523	0.006146
00392	8.584060	0.069548	4.522418	-0.005738	0.212923	0.003815
00393	8.589877	0.078754	4.400721	-0.003369	0.239344	0.007863
00394	8.596917	0.071410	4.437669	-0.006294	0.286144	0.007192
00395	8.572431	0.077595	4.522407	-0.005805	0.327354	0.007661
00396	8.535021	0.090753	4.668071	-0.008727	0.349068	0.008431
00397	8.461130	0.067993	4.761250	-0.006863	0.355690	0.008684
00398	8.443426	0.083205	4.880698	-0.008947	0.343357	0.005407
00399	8.426902	0.082046	4.909191	-0.011441	0.332041	0.010227
00400	8.414599	0.089458	4.895359	-0.006491	0.319142	0.005737
00401	8.396946	0.063815	4.873607	-0.008397	0.320618	0.008258
00402	8.415295	0.090349	4.750773	-0.008048	0.327462	0.007995
00403	8.429714	0.075768	4.736171	-0.006614	0.351209	0.007740
00404	8.408324	0.098759	4.742556	-0.010011	0.378810	0.009969
00405	8.384690	0.056310	4.882324	-0.011484	0.407773	0.007224
00406	8.352437	0.086775	5.023568	-0.012102	0.419026	0.008785
00407	8.294390	0.065729	5.093649	-0.010623	0.419617	0.011008
00408	8.255115	0.070822	5.113057	-0.012032	0.418088	0.009580
00409	8.279560	0.073347	5.096082	-0.015540	0.417889	0.010506
00410	8.197662	0.049903	5.191096	-0.022003	0.422841	0.008840
00411	8.159616	0.046922	5.397051	-0.030490	0.409955	0.003622
00412	8.132538	0.060861	5.518904	-0.044160	0.377546	-0.002222
00413	8.113026	0.058566	5.547569	-0.039866	0.327661	0.001493
00414	8.113683	0.049916	5.587857	-0.032199	0.278788	0.000721
00415	8.061021	0.052761	5.691041	-0.033539	0.226474	0.003253
00416	8.071114	0.052614	5.608425	-0.017401	0.164636	0.007544
00417	8.098784	0.070690	5.513221	-0.014043	0.127736	0.003137
00418	8.120508	0.055452	5.335154	-0.007049	0.117742	0.010365
00419	8.159189	0.058042	5.221784	-0.010511	0.128744	0.009207
00420	8.173439	0.058423	5.135255	-0.009912	0.158912	0.011947
00421	8.152249	0.096621	5.141952	-0.009288	0.201114	0.014354
00422	8.134636	0.085984	5.200480	-0.015719	0.231890	0.018095
00423	8.091474	0.072888	5.286164	-0.012780	0.258149	0.021209
00424	8.078673	0.070738	5.380865	-0.018045	0.272718	0.018394
00425	8.103708	0.063328	5.321496	-0.017409	0.286298	0.023082
00426	8.073093	0.042817	5.354078	-0.021965	0.311772	0.022279
00427	8.015284	0.044561	5.461658	-0.026430	0.329964	0.020365
00428	8.021667	0.043733	5.536954	-0.027017	0.333932	0.020806
00429	7.947367	0.027667	5.653154	-0.028080	0.329080	0.020395
00430	7.917351	0.064234	5.670645	-0.030392	0.319174	0.019398
00431	7.950543	0.040745	5.598473	-0.027817	0.317380	0.020999
00432	7.908699	0.035372	5.574844	-0.022000	0.321896	0.023485
00433	7.931690	0.027469	5.593142	-0.030308	0.334963	0.023606
00434	7.927542	0.041489	5.612171	-0.026506	0.345594	0.027000
00435	7.874447	0.051103	5.606972	-0.029303	0.360997	0.028345
00436	7.871867	0.016142	5.677073	-0.027679	0.375714	0.031494
00437	7.798689	0.007756	5.827387	-0.030163	0.375816	0.034277
00438	7.739542	-0.007311	6.066180	-0.023300	0.349194	0.033010
00439	7.690412	-0.021957	6.009322	-0.025038	0.311277	0.026884
00440	7.785523	0.016064	5.727669	-0.021771	0.305657	0.028209
00441	7.812984	0.032240	5.575646	-0.023137	0.345684	0.031173
00442	7.746689	-0.015819	5.805913	-0.028265	0.388024	0.032109
00443	7.656122	-0.008797	6.044608	-0.030940	0.388790	0.031115
00444	7.595610	-0.048313	6.234148	-0.024720	0.357867	0.032681
00445	7.568030	-0.036562	6.202481	-0.025460	0.320141	0.028457
00446	7.537271	-0.040366	6.444075	-0.019909	0.268070	0.023925
00447	7.514729	-0.036079	6.298450	-0.011928	0.205870	0.023366
00448	7.593527	0.001192	6.106876	-0.012237	0.186985	0.018589
00449	7.637748	-0.029775	5.921070	-0.013819	0.197342	0.021889
00450	7.645180	-0.014596	5.857236	-0.014562	0.231558	0.023449
00451	7.590060	-0.052718	6.036277	-0.015797	0.259599	0.021479
00452	7.512432	-0.059590	6.246956	-0.011165	0.248932	0.019580
00453	7.497665	-0.061767	6.264649	-0.013183	0.222781	0.018125
00454	7.525834	-0.028132	6.121002	-0.010534	0.213518	0.013246
00455	7.575743	-0.025438	5.946736	-0.010626	0.231112	0.018466
00456	7.550869	-0.020442	5.875429	-0.013502	0.277623	0.017303
00457	7.585549	-0.043052	5.878012	-0.015470	0.327164	0.020917
00458	7.490582	-0.018628	5.979981	-0.017639	0.375365	0.019640
00459	7.469121	-0.052952	6.197190	-0.018427	0.405789	0.019106
00460	7.336963	-0.086742	6.609050	-0.015543	0.391988	0.010550
00461	7.312809	-0.063758	6.611819	-0.009057	0.350113	0.006624
00462	7.197309	-0.047042	6.822073	-0.011360	0.291329	0.002509
00463	7.211109	-0.037067	6.851356	-0.002882	0.205859	0.003629
00464	7.291264	-0.015012	6.595672	0.000637	0.147316	0.006922
00465	7.324218	-0.029717	6.299375	-0.002744	0.134118	0.000737
00466	7.356880	-0.034802	6.306371	-0.000179	0.157301	0.003634
00467	7.277145	-0.039584	6.506820	0.000377	0.159525	-0.000327
00468	7.212004	-0.075509	6.748363	0.002173	0.127532	0.001260
00469	7.194836	-0.035371	6.746394	0.003813	0.073062	-0.001074
00470	7.292529	-0.037039	6.434568	0.001247	0.045870	0.006136
00471	7.312282	-0.085063	6.268901	0.001041	0.060699	-0.003767
00472	7.330617	-0.090910	6.219926	0.009974	0.095930	-0.007256
00473	7.323465	-0.047876	6.342945	0.015730	0.127499	-0.014462
00474	7.236677	-0.026326	6.589058	0.014490	0.129876	-0.013883
00475	7.168274	0.019892	6.664102	0.012153	0.100021	-0.009328
00476	7.151585	0.036549	6.685015	0.005912	0.062190	-0.005746
00477	7.198949	0.032207	6.612496	-0.001528	0.033534	0.003448
00478	7.239768	-0.014459	6.496396	-0.001011	0.019427	0.004375
00479	7.257450	-0.054317	6.434506	0.001535	0.022883	0.000815
00480	7.244256	-0.038836	6.451733	0.000037	0.036032	0.001558
00481	7.226485	0.009478	6.550832	0.003588	0.031661	0.002559
00482	7.258499	-0.037039	6.507691	0.002277	0.026511	0.001803
00483	7.250580	-0.029974	6.418955	-0.000696	0.032415	0.000577
00484	7.262931	-0.036799	6.439883	0.002919	0.043687	0.000430
00485	7.218123	-0.031766	6.446276	0.004073	0.046750	-0.000020
00486	7.221724	-0.013934	6.516449	0.005498	0.055301	-0.005577
00487	7.198275	0.001787	6.607718	0.002352	0.042171	0.000666
00488	7.169150	-0.000214	6.631132	-0.001196	0.017994	-0.000597
00489	7.196758	0.025720	6.586103	-0.005636	-0.000945	0.008645
00490	7.227716	-0.030514	6.507319	-0.005245	-0.009659	0.009663
00491	7.263265	-0.053551	6.437214	-0.003104	-0.005636	0.007547
00492	7.248329	-0.047299	6.419211	-0.002043	0.010977	0.004737
00493	7.250649	-0.038883	6.453697	0.000122	0.023150	0.000166
00494	7.183439	-0.027511	6.512988	0.001300	0.025562	0.003482
00495	7.204629	0.007052	6.574864	-0.001580	0.017914	0.004611
00496	7.193464	0.046391	6.566481	-0.005037	0.008736	0.005964
00497	7.195753	-0.035974	6.533867	-0.001105	-0.004357	0.007983
00498	7.228663	0.022919	6.496856	-0.000528	-0.002827	0.007758
00499	7.209596	-0.004007	6.469630	-0.005225	-0.001509	0.007206
00500	7.211911	-0.020646	6.527290	-0.004485	0.002116	0.008194
00501	7.227755	-0.003797	6.521071	-0.001542	-0.003142	0.005656
00502	7.239294	-0.020053	6.505801	-0.003359	-0.002974	0.010197
00503	7.208839	-0.031578	6.493662	-0.003220	-0.000229	0.007644
00504	7.216912	0.009380	6.535573	-0.003109	-0.005635	0.007545
00505	7.219908	-0.007151	6.592485	-0.005165	-0.014415	0.005795
00506	7.168075	0.012196	6.609055	-0.009339	-0.027864	0.009927
00507	7.208791	-0.002855	6.570304	-0.010079	-0.040283	0.015161
00508	7.169950	0.000256	6.570032	-0.010430	-0.052617	0.015193
00509	7.226965	-0.022071	6.547679	-0.011603	-0.063814	0.018105
00510	7.236564	-0.032375	6.437010	-0.011349	-0.066465	0.015460
00511	7.264115	-0.040878	6.377973	-0.012141	-0.057180	0.015890
00512	7.271700	-0.009678	6.383375	-0.008460	-0.038415	0.017059
00513	7.269066	-0.044174	6.372307	-0.007015	-0.021727	0.009043
00514	7.284845	-0.052046	6.389329	-0.002816	-0.008937	0.008669
00515	7.284874	-0.052742	6.389290	-0.003180	0.007916	0.005197
00516	7.269041	-0.046249	6.372320	-0.000685	0.024265	0.003048
00517	7.232196	-0.024089	6.444312	0.002633	0.039486	-0.001979
00518	7.260225	-0.013299	6.459148	0.001814	0.040621	0.000903
00519	7.214452	-0.032750	6.489854	0.002284	0.047556	0.000779
00520	7.249298	-0.004813	6.571366	0.002505	0.036753	0.000583
00521	7.213044	-0.023888	6.528538	0.001022	0.029510	-0.001391
00522	7.218347	-0.006722	6.596859	0.001022	0.020715	0.004830
00523	7.183520	-0.026366	6.552456	-0.003074	0.002516	0.005096
00524	7.225486	-0.032012	6.549269	-0.003516	-0.005065	0.008988
00525	7.246924	-0.023573	6.436922	-0.004228	-0.000541	0.005547
00526	7.243215	-0.032808	6.403932	-0.003182	0.007921	0.005197
00527	7.276150	-0.013951	6.450449	0.001907	0.027083	0.003269
00528	7.196555	-0.011482	6.549338	0.000753	0.024027	0.003720
00529	7.198600	-0.003109	6.584139	-0.000567	0.018876	0.002957
00530	7.206750	-0.003339	6.512322	-0.004749	0.005431	0.007087
00531	7.244715	-0.017534	6.476530	-0.001176	0.009199	0.005635
00532	7.216897	-0.020065	6.498524	-0.002438	0.011547	0.006187
00533	7.203869	-0.029526	6.538638	-0.000326	0.007418	0.006523
00534	7.243104	-0.019160	6.478327	-0.003075	0.002518	0.005095
00535	7.241638	-0.044224	6.503073	-0.002165	0.008237	0.007300
00536	7.235178	-0.037656	6.412984	-0.002271	0.013643	0.007402
00537	7.257549	-0.044447	6.360025	0.002883	0.028701	-0.002154
00538	7.273352	-0.042437	6.414152	0.003997	0.044669	-0.001182
00539	7.234966	-0.019831	6.487412	0.005361	0.057979	-0.002861
00540	7.192709	-0.005655	6.527825	0.005779	0.057419	-0.004295
00541	7.156513	0.001201	6.658479	0.003263	0.041058	-0.002162
00542	7.170406	0.018641	6.654471	-0.000538	0.018239	0.006733
00543	7.130365	0.007071	6.715377	-0.004280	-0.008693	0.007987
00544	7.188642	-0.006884	6.532303	-0.007443	-0.034093	0.009019
00545	7.215948	0.009480	6.450953	-0.009404	-0.036664	0.016115
00546	7.281121	-0.052482	6.440198	-0.006902	-0.019648	0.010222
00547	7.205185	-0.026432	6.511484	-0.004586	-0.013531	0.009327
00548	7.220649	-0.034357	6.528849	-0.003841	-0.009905	0.010319
00549	7.233995	-0.026440	6.488470	-0.006758	-0.016901	0.007672
00550	7.247123	-0.018256	6.448325	-0.000120	-0.003393	0.006320
00551	7.242532	-0.051786	6.439430	-0.002497	0.004049	0.004871
00552	7.248719	-0.035137	6.506650	-0.002701	0.014863	0.005079
00553	7.194512	-0.014925	6.525823	0.002136	0.016281	0.003080
00554	7.197043	-0.006707	6.560039	-0.003012	0.010024	0.006415
00555	7.200281	0.001153	6.593475	-0.004546	-0.005377	0.006878
00556	7.221212	-0.014845	6.505160	-0.004445	-0.010784	0.006774
00557	7.209569	-0.024662	6.543632	-0.005168	-0.015057	0.009550
00558	7.157490	-0.005136	6.560475	-0.005914	-0.018681	0.008559
00559	7.239394	-0.025000	6.519494	-0.007938	-0.028754	0.014336
00560	7.235411	-0.019052	6.426730	-0.007650	-0.023264	0.009233
00561	7.282681	-0.057776	6.341002	-0.002679	-0.006845	0.009873
00562	7.298236	-0.040860	6.335231	0.000303	0.017098	0.003857
00563	7.292747	-0.049406	6.304347	0.004783	0.048292	-0.000172
00564	7.234457	-0.052690	6.351262	0.008522	0.075870	-0.005186
00565	7.217758	-0.035169	6.568985	0.009158	0.085565	-0.007845
00566	7.132324	0.050064	6.704051	0.005905	0.064936	-0.002941
00567	7.191270	-0.035482	6.526806	0.002045	0.043418	-0.001588
00568	7.204416	-0.017681	6.523750	0.003307	0.041071	-0.002137
00569	7.115523	0.009310	6.671327	0.001850	0.032523	0.003411
00570	7.162996	0.021063	6.736107	-0.003399	-0.002319	0.006425
00571	7.170071	0.011748	6.629047	-0.007567	-0.029340	0.012869
00572	7.212129	-0.044505	6.475773	-0.005462	-0.033472	0.013208
00573	7.222003	-0.004253	6.515788	-0.008409	-0.027551	0.011984
00574	7.207977	-0.023249	6.519797	-0.008556	-0.030295	0.014537
00575	7.206492	-0.033214	6.484458	-0.005986	-0.026840	0.010990
00576	7.255364	-0.047538	6.374335	-0.007142	-0.008179	0.006654
00577	7.265341	-0.022501	6.474253	0.000840	0.010482	0.006087
00578	7.191184	0.012748	6.580416	-0.003490	0.003092	0.006535
00579	7.278333	-0.055966	6.320928	-0.001167	0.009208	0.005645
00580	7.273193	-0.064551	6.289721	0.005233	0.047748	-0.001583
00581	7.283786	-0.070815	6.312653	0.007479	0.081004	-0.007138
00582	7.334353	-0.082085	6.139080	0.017712	0.133597	-0.017002
00583	7.317633	-0.096154	6.084801	0.030965	0.201402	-0.026604
00584	7.266013	-0.093676	6.195987	0.041075	0.279191	-0.042235
00585	7.182975	0.023966	6.570237	0.045424	0.306433	-0.048502
00586	6.683151	0.294965	7.779988	0.032190	0.216313	-0.030309
00587	6.864592	0.186157	7.370428	0.000051	0.020477	0.002779
00588	7.159472	-0.035251	6.506758	-0.007099	-0.027876	0.012570
00589	7.294206	-0.085127	6.220985	-0.000116	0.017725	0.005325
00590	7.274787	-0.102098	6.230957	0.013712	0.093234	-0.008055
00591	7.228003	-0.086289	6.275582	0.022735	0.154409	-0.020891
00592	7.207632	-0.058517	6.337072	0.033215	0.214745	-0.029238
00593	7.113650	0.023611	6.572722	0.042915	0.249717	-0.033791
00594	6.622602	0.436164	8.038825	0.030509	0.144920	0.008690
00595	6.980962	-0.053553	6.746343	0.016850	-0.026784	0.024204
00596	7.138037	0.037424	6.530983	0.005851	0.020318	0.014268
00597	7.103716	0.052124	6.691856	0.019834	0.014391	0.027386
00598	7.053717	0.014724	6.652764	0.016754	0.018225	0.024918
00599	7.041507	0.013937	6.726706	0.010006	0.024354	0.020193
00600	6.973456	0.025032	6.783634	0.001020	0.006570	0.010987
00601	7.056553	0.030045	6.721916	-0.000553	-0.008262	0.007632
00602	7.136393	0.042110	6.568964	-0.000879	0.000498	0.006639
00603	7.107973	0.039493	6.590322	-0.004069	0.022096	0.009501
00604	7.041889	0.058990	6.681250	-0.005995	0.028357	0.010371
00605	7.048979	0.033673	6.635295	-0.001981	0.030926	0.011310
00606	7.075276	0.018878	6.674800	-0.004066	0.035081	0.010959
00607	7.087221	0.010897	6.695822	-0.004653	0.033547	0.011173
00608	7.012798	0.004409	6.687258	-0.003795	0.032405	0.008303
00609	7.070485	0.040276	6.657435	-0.004810	0.031443	0.009953
00610	7.109184	0.049978	6.600559	-0.004777	0.045074	0.007647
00611	7.128173	0.033526	6.517442	-0.005513	0.067403	0.009559
00612	7.138679	0.049758	6.517774	-0.009068	0.103238	0.011574
00613	7.077956	0.053262	6.600276	-0.009429	0.130464	0.012194
00614	7.053168	0.018343	6.673509	-0.012922	0.147263	0.016421
00615	7.033311	0.056235	6.674471	-0.018032	0.155312	0.013628
00616	7.018474	0.021190	6.676540	-0.014372	0.159155	0.012296
00617	7.034821	0.036871	6.610555	-0.015041	0.181577	0.014283
00618	7.082114	0.071596	6.592931	-0.019133	0.209094	0.011483
00619	6.923346	-0.004300	6.815341	-0.017254	0.226836	0.012438
00620	6.912835	0.011180	6.896879	-0.013387	0.201348	0.009266
00621	7.023817	0.033221	6.700780	-0.010601	0.199457	0.005722
00622	7.045720	0.016922	6.557339	-0.012146	0.240795	0.003534
00623	6.985804	0.005346	6.634600	-0.009842	0.288119	0.001296
00624	6.912188	0.002235	6.819454	-0.009569	0.308948	0.004342
00625	6.793310	-0.004583	6.971864	-0.008256	0.306128	0.007725
00626	6.734693	0.009697	7.149864	-0.003308	0.270012	0.006410
00627	6.676528	0.022821	7.200329	-0.003571	0.222676	0.004262
00628	6.713604	-0.015695	7.132023	-0.002572	0.174359	0.006527
00629	6.760664	0.003273	7.046116	-0.001651	0.143083	0.005455
00630	6.821705	0.013748	6.853825	-0.001526	0.139119	0.010337
00631	6.800549	0.037346	6.911608	-0.000466	0.157245	0.005461
00632	6.812524	-0.002929	6.860836	-0.001762	0.170663	0.006357
00633	6.945233	0.028528	6.628482	-0.005477	0.201981	0.009902
00634	6.929423	0.027677	6.645013	-0.004276	0.274535	0.005290
00635	6.808881	0.021242	6.794910	-0.006215	0.325676	0.003878
00636	6.702828	0.049372	7.008688	-0.006827	0.351874	0.005091
00637	6.630367	0.013648	7.113599	-0.002320	0.352036	0.003695
00638	6.602580	-0.011029	7.160493	-0.003457	0.334569	-0.002358
00639	6.582746	0.013050	7.157689	-0.005664	0.313532	0.003007
00640	6.589004	0.005809	7.126140	-0.001488	0.310840	0.004091
00641	6.615432	0.040581	7.066033	-0.002288	0.316268	0.002287
00642	6.601367	-0.008426	7.064242	-0.004197	0.331784	0.002468
00643	6.548493	0.014978	7.205104	-0.009761	0.342006	-0.001140
00644	6.452868	0.034813	7.310844	-0.010950	0.331472	-0.002063
00645	6.383702	0.014832	7.353937	-0.006009	0.306300	0.004186
00646	6.496387	0.013362	7.196140	-0.001223	0.294067	0.004726
00647	6.567428	0.017267	7.037971	-0.003839	0.326598	-0.000389
00648	6.526237	-0.000601	7.065121	-0.004677	0.372447	0.004319
00649	6.502004	0.031958	7.100130	-0.004538	0.413604	-0.000025
00650	6.432860	-0.019158	7.193938	-0.008671	0.455011	-0.002767
00651	6.364915	0.042951	7.207159	-0.011218	0.487313	-0.003840
00652	6.305582	0.017741	7.333531	-0.015731	0.509183	-0.011966
00653	6.238163	-0.082056	7.408293	-0.031544	0.526759	-0.029914
00654	6.147032	-0.126375	7.486213	-0.067920	0.544483	-0.072867
00655	5.978313	-0.142118	7.677217	-0.115720	0.533133	-0.135388
00656	5.924709	-0.027722	7.873615	-0.145580	0.488861	-0.168609
00657	5.942777	0.145749	7.842206	-0.138393	0.434294	-0.165615
00658	5.988150	0.166350	7.830032	-0.104149	0.370915	-0.113302
00659	6.054096	0.169998	7.624566	-0.057720	0.334951	-0.058866
00660	6.144907	0.118723	7.416409	-0.015630	0.345946	-0.006830
00661	6.177194	-0.001592	7.277363	-0.001765	0.400118	0.011331
00662	6.119907	0.020572	7.296965	0.007430	0.482531	0.004547
00663	6.007266	-0.024812	7.440363	0.006494	0.543563	0.013489
00664	5.967443	0.049177	7.527299	0.004023	0.587045	0.009956
00665	5.833638	0.093274	7.739982	0.016700	0.614076	0.026549
00666	5.734706	0.122749	7.869748	0.033519	0.600541	0.056710
00667	5.683690	0.171686	7.979826	0.060153	0.577727	0.100374
00668	5.500262	0.056988	8.185524	0.073367	0.540040	0.120428
00669	5.401816	0.094861	8.339892	0.075458	0.466678	0.133041
00670	5.417535	0.030576	8.259571	0.083722	0.385074	0.145579
00671	5.460892	-0.001536	8.062935	0.087540	0.336590	0.137014
00672	5.549974	0.035478	7.924780	0.086556	0.332459	0.139763
00673	5.538957	0.093873	7.983726	0.101520	0.328572	0.151290
00674	5.487153	0.093314	8.070141	0.112491	0.323201	0.172384
00675	5.500679	0.322150	8.032798	0.124657	0.313063	0.204997
00676	5.529087	0.447170	8.094885	0.188476	0.293802	0.314748
00677	5.398149	0.135752	8.085971	0.228094	0.268297	0.395980
00678	5.347572	-0.261866	8.039794	0.210971	0.268132	0.369753
00679	5.330622	-0.326096	7.892593	0.162792	0.299215	0.278680
00680	5.406665	-0.194245	7.852781	0.125781	0.348756	0.207382
00681	5.318626	-0.120022	8.006585	0.096678	0.404081	0.159737
00682	5.186565	-0.058658	8.285363	0.077337	0.406061	0.125452
00683	5.138477	-0.031417	8.404186	0.071316	0.373003	0.120446
00684	5.075281	-0.076845	8.338884	0.063418	0.335855	0.105877
00685	5.149153	-0.083678	8.283409	0.047053	0.318769	0.076584
00686	5.096549	-0.093941	8.279781	0.026715	0.310865	0.053722
00687	5.065412	-0.085020	8.328214	0.013204	0.303718	0.023036
00688	5.115872	0.034960	8.213781	0.002274	0.299641	0.006397
00689	5.119733	0.002255	8.207383	-0.002906	0.315545	0.006589
00690	5.102321	0.025477	8.200392	-0.007840	0.324031	0.001388
00691	5.057536	0.007667	8.218811	-0.009639	0.339828	0.005598
00692	5.028531	-0.024223	8.281339	-0.014468	0.353207	-0.002873
00693	4.966462	0.080250	8.318180	-0.013906	0.366534	-0.004202
00694	4.911719	0.040826	8.415041	-0.002115	0.353503	0.012767
00695	4.901856	0.012633	8.334221	0.007565	0.344174	0.019642
00696	4.973550	-0.027618	8.273610	0.012144	0.360264	0.019977
00697	4.893941	-0.014239	8.260015	0.011762	0.385941	0.012620
00698	4.864775	0.021181	8.343520	0.003183	0.412473	0.009764
00699	4.824528	0.060733	8.351297	0.002072	0.424132	0.019726
00700	4.793482	0.019783	8.384686	0.006470	0.444199	0.032686
00701	4.663638	-0.021150	8.506852	0.001737	0.450810	0.026302
00702	4.590977	-0.051630	8.638140	-0.008915	0.438549	0.013772
00703	4.556633	-0.022263	8.612630	-0.014212	0.413668	0.006176
00704	4.536673	0.066409	8.627425	-0.006777	0.399399	0.013331
00705	4.492836	0.043891	8.722082	0.005124	0.368492	0.024108
00706	4.444527	-0.079717	8.731811	0.005900	0.336012	0.020341
00707	4.519714	-0.053790	8.506614	0.001273	0.330415	-0.000490
00708	4.562260	0.011674	8.465925	-0.001595	0.351010	-0.009908
00709	4.502991	0.077150	8.511975	-0.006721	0.378685	-0.004988
00710	4.488469	0.128754	8.593279	-0.003905	0.396583	0.011849
00711	4.496147	0.081573	8.450629	0.000248	0.415570	0.027342
00712	4.469272	0.068431	8.383803	-0.002447	0.469222	0.042567
00713	4.406153	0.053892	8.514660	-0.002189	0.512803	0.046852
00714	4.323509	0.020137	8.592068	0.000610	0.540770	0.055349
00715	4.242669	0.017394	8.625165	0.005366	0.565862	0.056107
00716	4.137031	-0.032432	8.702969	0.011718	0.581773	0.054608
00717	4.025439	-0.043883	8.898654	0.016566	0.576940	0.047953
00718	3.979405	0.021481	8.940508	0.008980	0.545348	0.048340
00719	4.002017	-0.049390	8.816508	0.005586	0.533137	0.046066
00720	4.001620	-0.061794	8.743736	-0.001398	0.557237	0.031201
00721	3.961975	0.033786	8.741186	-0.003509	0.580057	0.026132
00722	3.845756	0.059937	8.867119	0.004517	0.597113	0.037831
00723	3.768545	0.112653	9.016900	0.010761	0.590407	0.063058
00724	3.638532	0.013407	9.078615	0.018456	0.561287	0.083353
00725	3.620638	-0.020512	9.081290	0.017716	0.536843	0.078075
00726	3.617446	-0.030657	9.061705	0.014793	0.518983	0.071381
00727	3.527664	0.010241	9.128212	0.015108	0.504569	0.068017
00728	3.502380	0.165107	9.163035	0.018191	0.477841	0.084296
00729	3.484294	0.206620	9.213247	0.034231	0.443902	0.126229
00730	3.430764	0.013849	9.146476	0.044905	0.411975	0.159669
00731	3.415643	-0.174102	8.995548	0.043705	0.410403	0.149387
00732	3.379676	-0.276691	8.926822	0.027463	0.441493	0.090194
00733	3.345149	-0.083380	9.077596	0.008153	0.465645	0.045027
00734	3.247192	-0.105397	9.174112	0.000397	0.462782	0.026104
00735	3.184960	-0.094327	9.273507	-0.011075	0.445181	0.000106
00736	3.180933	0.043946	9.297568	-0.013691	0.422357	0.000712
00737	3.141499	0.009264	9.300688	-0.017853	0.393640	0.007936
00738	3.100715	-0.018790	9.279761	-0.018089	0.372450	0.011815
00739	3.043314	0.031091	9.361954	-0.018248	0.345310	0.017321
00740	3.031710	0.078406	9.384038	-0.014722	0.311462	0.035738
00741	3.042683	0.047403	9.301249	-0.012138	0.281617	0.052310
00742	3.057419	-0.023970	9.231490	-0.011958	0.284569	0.062315
00743	2.989046	-0.046044	9.188874	-0.013583	0.282317	0.057693
00744	3.004492	-0.135801	9.242179	-0.009929	0.278909	0.042723
00745	2.978810	-0.192424	9.131155	-0.017154	0.298389	0.015277
00746	2.900000	-0.177539	9.152070	-0.019718	0.317498	-0.021100
00747	2.914905	-0.254386	9.106986	-0.035840	0.345718	-0.064093
00748	2.901936	-0.173323	9.140036	-0.056768	0.384685	-0.115783
00749	2.831860	0.051259	9.301579	-0.060220	0.398120	-0.121657
00750	2.775910	0.119236	9.439196	-0.064552	0.373099	-0.098955
00751	2.770783	0.130022	9.398797	-0.057761	0.344602	-0.060340
00752	2.720158	-0.030111	9.388365	-0.065708	0.334498	-0.050920
00753	2.694404	-0.055842	9.287617	-0.063522	0.332968	-0.046383
00754	2.710082	-0.028966	9.249761	-0.054572	0.340009	-0.045091
00755	2.682292	-0.079988	9.295404	-0.050033	0.348856	-0.037113
00756	2.619247	-0.024492	9.351454	-0.037638	0.350003	-0.035731
00757	2.602396	0.029769	9.350853	-0.029696	0.351080	-0.010169
00758	2.534822	-0.218108	9.338864	-0.024688	0.356218	-0.015700
00759	2.493316	-0.264083	9.258030	-0.023147	0.373724	-0.046413
00760	2.421826	-0.126790	9.466865	-0.024519	0.383124	-0.073108
00761	2.393991	0.089426	9.593217	-0.020048	0.357892	-0.064811
00762	2.436818	0.182059	9.470393	-0.019845	0.323248	-0.025485
00763	2.335591	-0.018036	9.422235	-0.011700	0.310490	0.014737
00764	2.317878	-0.186058	9.325897	-0.007100	0.316179	0.002256
00765	2.326864	-0.101432	9.407945	-0.004820	0.320999	-0.018370
00766	2.233684	-0.057180	9.509768	0.008641	0.307057	-0.014273
00767	2.237569	-0.113757	9.470754	0.024752	0.293845	-0.010331
00768	2.209403	-0.242661	9.436614	0.033189	0.282700	-0.021922
00769	2.163518	-0.247921	9.415631	0.036731	0.295786	-0.067488
00770	2.183428	-0.171436	9.364743	0.027754	0.304820	-0.103002
00771	2.172834	-0.090940	9.419349	0.025309	0.322333	-0.117825
00772	2.108924	-0.027594	9.471495	0.024737	0.328157	-0.123793
00773	2.110024	-0.007993	9.430293	0.022584	0.330849	-0.119443
00774	2.077576	-0.062285	9.393834	0.022756	0.342653	-0.117542
00775	2.061375	-0.132546	9.351976	0.025058	0.363762	-0.135677
00776	1.993762	-0.017298	9.470976	0.024600	0.375949	-0.143022
00777	1.974802	0.096823	9.536484	0.029949	0.375136	-0.129105
00778	1.953639	0.140130	9.478377	0.028679	0.377111	-0.108411
00779	1.885441	0.148581	9.589757	0.028790	0.372948	-0.082835
00780	1.799593	0.153933	9.649087	0.033280	0.352452	-0.051724
00781	1.783056	0.181423	9.636536	0.022734	0.329363	-0.035254
00782	1.770135	0.134291	9.627036	0.010429	0.317980	-0.009985
00783	1.741014	0.083279	9.565737	0.007864	0.303420	0.004723
00784	1.728387	0.100567	9.575987	0.003131	0.313389	0.016073
00785	1.644497	0.245506	9.753007	0.004194	0.287675	0.047679
00786	1.600797	0.260955	9.762347	0.006168	0.249946	0.096226
00787	1.666146	0.207397	9.647957	0.009997	0.219981	0.144599
00788	1.630208	0.129717	9.603083	0.007317	0.212442	0.170822
00789	1.575570	0.112445	9.652946	0.000789	0.208734	0.186092
00790	1.574670	0.060139	9.641296	-0.001811	0.192456	0.194561
00791	1.574462	0.067958	9.546065	-0.019627	0.193583	0.205303
00792	1.557344	-0.042995	9.542555	-0.013224	0.198488	0.201137
00793	1.521270	-0.096686	9.530454	-0.005414	0.210394	0.192070
00794	1.501649	-0.125913	9.500311	-0.004308	0.215305	0.176427
00795	1.464051	-0.251041	9.491710	0.008657	0.232650	0.154977
00796	1.440705	-0.291667	9.508644	0.020736	0.250918	0.107809
00797	1.396635	-0.222212	9.583591	0.026255	0.261561	0.060995
00798	1.389296	-0.156799	9.555965	0.019630	0.261934	0.019092
00799	1.430385	0.123692	9.594721	0.019262	0.273024	0.016242
00800	1.422120	0.115159	9.570866	0.006477	0.280223	0.034580
00801	1.359626	0.147873	9.583601	0.003074	0.295328	0.059619
00802	1.366262	0.113741	9.579017	-0.007476	0.298732	0.085529
00803	1.360515	0.030971	9.432365	-0.015114	0.322243	0.097959
00804	1.309577	-0.035286	9.467961	-0.011364	0.363488	0.096266
00805	1.182748	-0.122070	9.570320	-0.004420	0.387424	0.085927
00806	1.106297	-0.151336	9.666317	-0.000140	0.382772	0.064135
00807	1.050595	-0.141962	9.697780	0.008503	0.377920	0.032724
00808	0.931084	0.000369	9.943681	0.001357	0.356643	0.010967
00809	0.810640	0.263364	10.251647	-0.084012	0.284573	-0.001376
00810	0.875431	-0.011750	9.948725	-0.073286	0.193259	0.033260
00811	0.999392	0.055846	9.650540	-0.077433	0.165412	0.040737
00812	1.001165	0.104232	9.645198	-0.081955	0.169973	0.067621
00813	0.985259	0.062547	9.636935	-0.080584	0.174371	0.097882
00814	0.965507	0.006363	9.675180	-0.081335	0.176770	0.124354
00815	0.912427	-0.009933	9.697521	-0.085461	0.171636	0.140242
00816	0.571887	-0.288975	10.332002	-0.034636	0.093549	0.154509
00817	1.059131	-0.001751	9.589755	0.008485	0.006375	0.152056
00818	0.891557	-0.272618	9.698123	0.011549	0.005595	0.145995
00819	0.894455	-0.258266	9.651674	0.011576	0.005495	0.097561
00820	0.892975	-0.191997	9.671985	0.008232	0.005202	0.059780
00821	0.929515	-0.078681	9.658533	0.010039	0.004768	0.043124
00822	0.944162	-0.069381	9.688241	0.001692	0.004654	0.042114
00823	0.945376	-0.062391	9.665041	0.003552	0.008972	0.045160
00824	0.944332	-0.029445	9.675223	0.004559	0.005361	0.051635
00825	0.961233	-0.046500	9.671550	0.000644	0.003798	0.064476
00826	0.909388	-0.095626	9.652426	0.003897	0.008805	0.064064
00827	0.906735	-0.103013	9.675759	0.002117	0.005068	0.054026
00828	0.925461	-0.112959	9.648827	0.000643	0.005058	0.041050
00829	0.924205	-0.014284	9.679202	-0.000421	0.005405	0.039951
00830	0.941274	-0.064453	9.665428	0.001636	0.004185	0.049172
00831	0.940894	-0.097789	9.655374	0.000395	0.007349	0.040265
00832	0.957092	-0.081821	9.661861	0.001608	0.010840	0.028990
00833	0.980487	-0.135678	9.545094	0.012827	0.032460	0.020521
00834	0.990981	-0.091977	9.585348	0.024358	0.060547	0.010763
00835	0.909751	-0.076590	9.660432	0.029491	0.069872	0.013404
00836	0.879930	-0.012598	9.754654	0.024053	0.056858	0.013723
00837	0.843003	-0.036161	9.718960	0.013463	0.039980	0.014680
00838	0.912365	-0.055255	9.668256	0.009226	0.035881	0.006984
00839	0.870440	-0.035039	9.722371	0.007359	0.031565	0.003937
00840	0.850968	-0.017771	9.726195	0.001928	0.013058	0.000957
00841	0.902051	-0.068332	9.715386	-0.001744	0.003790	0.011318
00842	0.940002	-0.055021	9.671713	-0.001664	0.007064	0.005945
00843	0.904801	-0.054589	9.668971	-0.001914	0.009332	0.005146
00844	0.869561	-0.054198	9.666227	-0.002486	0.007865	0.007279
00845	0.887989	-0.031169	9.649469	-0.001663	0.007065	0.005946
00846	0.881097	-0.019796	9.729391	-0.003872	0.004469	0.009106
00847	0.904635	-0.048732	9.645904	-0.002058	-0.002674	0.012613
00848	0.924127	-0.058841	9.618998	-0.003612	-0.000530	0.008267
00849	1.011441	-0.070156	9.597845	0.000521	0.017858	0.007708
00850	0.992855	-0.046165	9.578549	0.001757	0.051933	0.007463
00851	1.026524	-0.058434	9.502290	0.001755	0.097383	0.003239
00852	0.995808	-0.081520	9.520301	0.002587	0.144831	-0.000639
00853	1.256062	-0.038757	9.329993	0.004503	0.215107	-0.013675
00854	0.285494	-0.075142	10.616129	0.010122	0.293127	0.003035
00855	0.498614	0.041156	9.648623	-0.010094	-0.004523	0.005309
00856	0.804431	-0.045954	9.702917	-0.004693	-0.002935	0.005495
00857	0.841119	-0.072863	9.672719	-0.000619	0.006756	0.007067
00858	0.823078	-0.023179	9.686309	-0.002249	0.002880	0.006438
00859	0.805930	-0.072736	9.669677	-0.004134	0.004024	0.006660
00860	0.788081	-0.023301	9.683249	-0.003891	0.001747	0.007456
00861	0.824689	-0.050305	9.653060	-0.003075	0.003686	0.007771
00862	0.858819	-0.051352	9.656190	-0.002832	0.001409	0.008567
00863	0.819512	-0.032160	9.709664	-0.002480	0.002416	0.003997
00864	0.807018	-0.067438	9.646512	-0.003064	0.000944	0.006125
00865	0.823675	-0.018689	9.663195	-0.004717	0.002555	0.008789
00866	0.801877	-0.049424	9.703112	-0.001421	0.002077	0.005107
00867	0.838241	-0.043242	9.683001	-0.002016	0.003348	0.008883
00868	0.840190	-0.036401	9.659779	-0.002248	0.002883	0.006440
00869	0.818023	-0.034169	9.709782	-0.005192	0.004368	0.005552
00870	0.805139	-0.036415	9.656717	-0.000131	0.002204	0.008661
00871	0.819582	-0.027605	9.686593	-0.003549	0.005501	0.004535
00872	0.836454	-0.044799	9.683148	-0.002016	0.003350	0.008884
00873	0.838502	-0.037994	9.659920	-0.003064	0.000946	0.006126
00874	0.786637	-0.020709	9.660293	-0.002248	0.002884	0.006441
00875	0.855442	-0.055439	9.656468	-0.002005	0.000607	0.007236
00876	0.816328	-0.069250	9.699850	-0.003074	0.003691	0.007774
00877	0.818283	-0.062580	9.676628	-0.004716	0.002560	0.008792
00878	0.815498	-0.036945	9.709984	0.000454	0.003677	0.006535
00879	0.802964	-0.071959	9.646818	-0.000947	0.000268	0.008348
00880	0.832197	-0.054140	9.706553	-0.002499	0.007908	0.007296
00881	0.836208	-0.040195	9.660110	-0.002247	0.002886	0.006442
00882	0.818620	-0.023631	9.663614	-0.003305	0.003227	0.005332
00883	0.798981	-0.047155	9.680269	-0.001189	0.002547	0.007554
00884	0.830778	-0.055288	9.706668	-0.003073	0.003694	0.007776
00885	0.832690	-0.048533	9.683454	-0.003073	0.003695	0.007776
00886	0.832297	-0.048812	9.683487	-0.001662	0.004359	0.004316
00887	0.817139	-0.024895	9.663736	0.000705	-0.001344	0.005683
00888	0.816929	-0.025202	9.663753	-0.005783	0.005650	0.009332
00889	0.814521	-0.065830	9.676924	-0.003063	0.000951	0.006128
00890	0.833704	-0.042890	9.660315	-0.002246	0.002889	0.006444
00891	0.811539	-0.040557	9.710302	-0.003072	0.003697	0.007778
00892	0.818265	-0.052479	9.630506	-0.001188	0.002549	0.007555
00893	0.811004	-0.041180	9.710344	-0.004947	0.002100	0.006350
00894	0.815252	-0.060239	9.653804	-0.000026	0.008236	0.004950
00895	0.829836	-0.051419	9.683685	-0.002582	-0.003604	0.007717
00896	0.814821	-0.027784	9.663924	-0.004130	0.004039	0.006668
00897	0.809870	-0.042438	9.710433	-0.003072	0.003699	0.007779
00898	0.811796	-0.035675	9.687223	-0.003072	0.003699	0.007779
00899	0.828763	-0.052844	9.683769	-0.001188	0.002551	0.007557
00900	0.843196	-0.044087	9.713665	-0.002486	0.005170	0.005651
00901	0.810699	-0.036452	9.687312	-0.002014	0.003360	0.008891
00902	0.793257	-0.052925	9.680709	-0.004361	0.003574	0.004224
00903	0.812482	-0.063063	9.654020	-0.002014	0.003360	0.008891
00904	0.826916	-0.021375	9.694013	-0.003063	0.000955	0.006129
00905	0.828972	-0.014473	9.670796	-0.000601	0.004022	0.005430
00906	0.811506	-0.030764	9.664194	-0.002013	0.003361	0.008892
00907	0.826109	-0.055161	9.683983	-0.004128	0.004043	0.006670
00908	0.810809	-0.031485	9.664250	-0.002245	0.002894	0.006447
00909	0.840309	-0.046775	9.713903	-0.001187	0.002553	0.007559
00910	0.805707	-0.046319	9.710762	-0.004946	0.002107	0.006353
00911	0.829512	-0.042298	9.637606	-0.003541	0.005515	0.004542
00912	0.841658	-0.040694	9.690745	-0.000362	0.001745	0.006225
00913	0.826640	-0.049968	9.660888	-0.004714	0.002576	0.008799
00914	0.789596	-0.056815	9.680987	-0.004953	0.004855	0.008005
00915	0.823588	-0.058044	9.684180	-0.002245	0.002896	0.006448
00916	0.823304	-0.058315	9.684203	-0.002244	0.002896	0.006449
00917	0.840059	-0.042410	9.690876	-0.000368	0.004493	0.007878
00918	0.822548	-0.058779	9.684264	-0.004359	0.003579	0.004226
00919	0.807272	-0.035086	9.664534	-0.002012	0.003365	0.008895
00920	0.821876	-0.059409	9.684318	-0.002012	0.003366	0.008895
00921	0.858391	-0.053376	9.664269	-0.002238	0.000150	0.004797
00922	0.804185	-0.042970	9.687828	-0.001193	0.005304	0.009214
00923	0.823251	-0.019984	9.671275	-0.002476	0.002430	0.004004
00924	0.837972	-0.044401	9.691048	-0.003889	0.001771	0.007466
00925	0.807962	-0.029728	9.641431	-0.004126	0.004050	0.006673
00926	0.856915	-0.055005	9.664391	-0.002244	0.002899	0.006450
00927	0.800274	-0.051729	9.711183	-0.001424	0.004837	0.006769
00928	0.804572	-0.037687	9.664749	-0.002476	0.002431	0.004004
00929	0.819281	-0.062111	9.684521	-0.003889	0.001772	0.007467
00930	0.836155	-0.046390	9.691196	-0.002012	0.003369	0.008898
00931	0.816278	-0.069879	9.707804	-0.002481	0.005180	0.005658
00932	0.820545	-0.055880	9.661375	-0.002243	0.002901	0.006451
00933	0.817928	-0.063289	9.684627	-0.002243	0.002901	0.006451
00934	0.802778	-0.039612	9.664890	-0.004945	0.002116	0.006356
00935	0.819713	-0.057041	9.661439	-0.004125	0.004054	0.006675
00936	0.819250	-0.024396	9.671604	-0.002011	0.003371	0.008899
00937	0.835997	-0.041576	9.668171	-0.001891	0.006650	0.003531
00938	0.830814	-0.056148	9.714670	-0.003068	0.003713	0.007787
00939	0.832790	-0.049368	9.691471	-0.003068	0.003714	0.007788
00940	0.834792	-0.042588	9.668271	-0.003300	0.003245	0.005341
00941	0.817448	-0.059002	9.661619	-0.003063	0.000965	0.006134
00942	0.800062	-0.042271	9.665104	-0.000129	0.002219	0.008677
00943	0.831777	-0.050574	9.691552	-0.004124	0.004057	0.006676
00944	0.831459	-0.050938	9.691577	-0.002475	0.002435	0.004006
00945	0.833539	-0.044017	9.668372	-0.000954	0.003031	0.010013
00946	0.796549	-0.050440	9.688423	-0.001186	0.002562	0.007566
00947	0.798553	-0.043431	9.665224	-0.000365	0.004501	0.007886
00948	0.830190	-0.051711	9.691682	-0.003299	0.003247	0.005342
00949	0.812589	-0.035165	9.695184	-0.003892	0.004529	0.009125
00950	0.831955	-0.045504	9.668502	-0.005998	-0.000285	0.003590
00951	0.812229	-0.036135	9.695211	-0.002010	0.003376	0.008903
00952	0.831369	-0.046267	9.668549	-0.003534	0.005529	0.004550
00953	0.811633	-0.069813	9.685112	-0.002596	-0.000842	0.009376
00954	0.811487	-0.070157	9.685122	-0.003066	0.003719	0.007791
00955	0.796324	-0.046314	9.665395	-0.001185	0.002565	0.007568
00956	0.847601	-0.064514	9.665154	-0.004354	0.003592	0.004231
00957	0.812876	-0.030906	9.672124	-0.001185	0.002565	0.007568
00958	0.827457	-0.055244	9.691896	-0.002242	0.002908	0.006456
00959	0.812475	-0.064436	9.662003	-0.003063	0.000971	0.006136
00960	0.829471	-0.015878	9.678852	-0.005302	0.001129	0.010936
00961	0.812140	-0.032347	9.672181	-0.002473	0.002439	0.004008
00962	0.811825	-0.032534	9.672206	-0.000595	0.004034	0.005441
00963	0.811448	-0.032765	9.672237	-0.003065	0.003722	0.007793
00964	0.825977	-0.057157	9.692011	-0.001185	0.002567	0.007570
00965	0.845189	-0.066984	9.665348	0.002108	0.004816	0.005539
00966	0.786323	-0.268082	9.674350	0.005320	0.004954	-0.024123
00967	0.776718	-0.492906	9.706401	0.018410	0.011531	-0.136976
00968	0.825498	0.086222	9.709625	-0.009463	0.005028	-0.239562
00969	0.851002	0.196791	9.643802	-0.029968	0.002189	-0.176882
00970	0.828802	0.165325	9.683606	-0.013114	0.002430	-0.078741
00971	0.790244	0.051967	9.696341	-0.011114	0.002595	-0.025449
00972	0.827212	-0.008315	9.656027	-0.007165	0.002866	-0.005328
00973	0.841947	-0.032809	9.675792	-0.002485	0.002418	0.004001
00974	0.824382	-0.016324	9.679286	-0.004825	0.002642	-0.000664
00975	0.821660	-0.024152	9.702535	-0.008366	0.005404	0.002228
00976	0.772248	-0.033329	9.669405	-0.012755	0.001469	-0.024433
00977	0.772202	-0.034492	9.669405	-0.020232	-0.000120	-0.087344
00978	0.789021	-0.019448	9.676131	-0.022638	0.005089	-0.158595
00979	0.823524	-0.053690	9.669182	-0.017401	0.000858	-0.164074
00980	0.855375	-0.061691	9.695644	-0.009953	0.005169	-0.099519
00981	0.891725	-0.055137	9.675697	-0.004267	0.002190	-0.030315
00982	0.822448	-0.054055	9.669271	0.002631	0.009017	0.005057
00983	0.839082	-0.070633	9.665854	0.001822	0.007077	0.004736
00984	0.821053	-0.053429	9.669393	0.008294	0.005585	0.004386
00985	0.786007	-0.052493	9.666207	0.001215	0.008334	0.008509
00986	0.804598	-0.029044	9.649779	-0.000043	0.005482	0.003307
00987	0.816718	-0.060313	9.692777	-0.001121	0.008568	0.003852
00988	0.835485	-0.070098	9.666170	-0.003703	0.011087	-0.001593
00989	0.816931	-0.053628	9.669741	-0.004569	0.012700	-0.026142
00990	0.815071	-0.020747	9.680066	-0.004707	0.016386	-0.059802
00991	0.810971	-0.028366	9.703423	-0.014894	0.020890	-0.075429
00992	0.796680	0.001965	9.660603	-0.011906	0.009659	-0.037190
00993	0.810869	-0.023018	9.680414	-0.012412	0.009947	0.001887
00994	0.810688	-0.056923	9.670248	-0.006276	0.004683	0.004442
00995	0.829351	-0.033692	9.653844	0.001813	0.007077	0.004739
00996	0.838671	-0.038904	9.730264	0.003924	0.006387	0.006955
00997	0.810768	-0.016410	9.657412	0.003949	0.003647	0.005301
00998	0.823175	-0.047429	9.700385	0.000864	0.004555	0.011413
00999	0.824839	-0.040134	9.677238	0.002702	0.008894	0.014499
01000	0.824032	-0.039935	9.677308	0.004671	0.007625	0.023714
01001	0.752487	-0.046044	9.693965	0.001111	0.002271	0.012201
01002	0.788808	-0.039368	9.674085	-0.001325	0.005374	-0.000240
01003	0.788048	-0.006869	9.684324	-0.009693	-0.000088	-0.014071
01004	0.823010	-0.041583	9.677388	-0.017259	-0.001698	-0.000051
01005	0.835817	-0.074061	9.720316	-0.008947	0.001149	0.002688
01006	0.822918	-0.043703	9.677386	-0.007670	0.001257	0.006237
01007	0.808133	-0.053367	9.647434	-0.004751	0.002509	0.008777
01008	0.825205	-0.070242	9.643995	0.003339	0.004900	0.009076
01009	0.821743	-0.043786	9.677486	0.012849	0.007979	0.005926
01010	0.803511	-0.197128	9.653118	0.029863	0.011964	0.005195
01011	0.887713	-0.208123	9.656595	0.109938	0.028614	-0.004854
01012	0.761479	0.157878	9.728977	0.107811	0.032924	-0.031256
01013	0.853250	0.242378	9.659735	0.040602	0.022322	-0.042816
01014	0.949737	0.267216	9.703443	-0.035947	0.053175	-0.001085
01015	0.801489	0.076538	9.709600	-0.086299	0.079277	0.025320
01016	0.779384	0.057754	9.680301	-0.107924	0.077632	0.053719
01017	0.786375	-0.390357	9.647753	-0.024892	0.070428	0.029019
01018	0.784309	-0.098854	9.637266	0.005850	0.084274	0.044072
01019	0.823806	-0.056765	9.681708	0.017346	0.096901	0.075719
01020	0.811654	-0.095163	9.695567	0.035727	0.111755	0.113623
01021	0.752234	-0.166093	9.642578	0.053264	0.125731	0.106460
01022	0.751710	-0.361242	9.659213	0.127258	0.131704	0.037057
01023	0.938453	0.077928	9.634784	0.141990	0.174342	-0.033703
01024	0.861093	0.126608	9.692512	0.108442	0.236464	-0.053378
01025	0.855326	0.125857	9.668343	0.068362	0.296649	-0.039048
01026	0.770900	0.075682	9.673254	0.042585	0.345763	-0.017225
01027	0.628885	0.001300	9.690158	0.041431	0.371741	-0.002993
01028	0.558049	0.039124	9.698228	0.046147	0.369119	0.014575
01029	0.505617	0.027580	9.693059	0.053107	0.366274	0.029747
01030	0.558254	0.054286	9.687720	0.045321	0.370709	0.040244
01031	0.191168	0.186925	9.837300	0.044972	0.376131	0.058046
01032	-0.225815	-0.091447	9.723096	0.008871	0.169028	0.080681
01033	0.756361	-0.008222	9.709590	0.052618	0.129739	0.117963
01034	0.751524	-0.026599	9.731641	0.075978	0.259835	0.082064
01035	0.619086	-0.015632	9.719304	0.113546	0.354690	0.011865
01036	0.422442	0.246272	9.772675	0.104823	0.410843	0.001882
01037	0.221748	0.310501	9.688815	0.036803	0.410345	0.016513
01038	0.111638	0.304682	9.702172	-0.041727	0.379568	0.051439
01039	0.014077	0.272361	9.659036	-0.114301	0.325976	0.083373
01040	0.022076	0.212544	9.755046	-0.180477	0.259371	0.115266
01041	0.024773	0.190067	9.707207	-0.220226	0.209596	0.119821
01042	0.075660	0.098728	9.698966	-0.263576	0.182580	0.122439
01043	0.198701	-0.617052	9.689892	-0.107375	0.176522	0.020726
01044	0.369262	-0.076589	9.685907	-0.038638	0.237573	-0.011276
01045	0.404259	-0.023481	9.741763	-0.043388	0.323699	-0.007028
01046	0.181822	-0.005671	9.715254	-0.034057	0.395762	0.003427
01047	0.040060	-0.006323	9.697531	-0.036413	0.424871	0.004449
01048	-0.048450	-0.030481	9.760092	-0.038350	0.426382	0.005055
01049	-0.102512	-0.010309	9.738745	-0.042816	0.416423	0.010503
01050	-0.171358	-0.006475	9.708815	-0.045382	0.396454	0.012868
01051	-0.129158	-0.037068	9.742554	-0.048843	0.391985	0.020514
01052	-0.095787	-0.036603	9.732751	-0.050672	0.410476	0.046912
01053	-0.126090	-0.059971	9.676459	-0.049243	0.436753	0.070276
01054	-0.246613	-0.076652	9.707112	-0.041910	0.450067	0.078365
01055	-0.325134	-0.046671	9.708796	-0.045304	0.447307	0.070976
01056	-0.257990	-0.039197	9.683986	-0.036687	0.467351	0.059167
01057	-0.368150	-0.145185	9.713839	-0.039418	0.496775	0.042818
01058	-0.432827	-0.024417	9.720999	-0.010863	0.508781	-0.005076
01059	-0.423577	0.035377	9.700535	-0.038316	0.525949	-0.031061
01060	-0.403877	0.035296	9.691696	-0.065073	0.568466	-0.031624
01061	-0.552679	0.071890	9.706344	-0.102731	0.608346	-0.028517
01062	-0.706935	-0.107048	9.702950	-0.131998	0.621419	-0.032767
01063	-0.707959	-0.161959	9.673442	-0.093729	0.609158	-0.046319
01064	-0.811739	-0.078820	9.713226	-0.092762	0.614812	-0.032378
01065	-0.964310	-0.077346	9.658295	-0.090799	0.602583	-0.018587
01066	-1.025664	-0.126210	9.664385	-0.084218	0.571834	-0.008487
01067	-1.062044	-0.151093	9.657968	-0.078899	0.544296	0.004490
01068	-1.115826	-0.231015	9.653622	-0.062143	0.510444	0.006178
01069	-1.121007	-0.155682	9.634011	-0.025255	0.483666	0.001436
01070	-1.158276	-0.149598	9.660904	-0.022946	0.467609	-0.007398
01071	-1.185599	-0.168684	9.655268	-0.017321	0.461842	-0.019671
01072	-1.157125	-0.165232	9.648131	-0.013983	0.462380	-0.030747
01073	-1.130392	-0.161595	9.641260	-0.011713	0.499047	-0.039783
01074	-1.260583	-0.175732	9.658117	-0.007662	0.534960	-0.033202
01075	-1.482644	-0.178763	9.619380	-0.004429	0.515741	-0.014000
01076	-1.594876	-0.176937	9.590136	0.000197	0.457499	0.001189
01077	-1.605113	-0.144931	9.604738	0.000515	0.386641	0.021275
01078	-1.559297	-0.131845	9.577434	-0.003724	0.341579	0.035897
01079	-1.493739	-0.134685	9.606097	-0.005157	0.330370	0.074013
01080	-1.493583	-0.135385	9.612439	-0.011595	0.342208	0.088236
01081	-1.479090	-0.121351	9.574986	-0.009978	0.363979	0.086524
01082	-1.531978	-0.135730	9.612842	-0.006114	0.400324	0.084903
01083	-1.578616	-0.143256	9.573609	-0.000654	0.427626	0.068291
01084	-1.599683	-0.118065	9.610450	0.000876	0.460619	0.053830
01085	-1.645651	-0.117318	9.602696	0.000734	0.495378	0.028905
01086	-1.816396	-0.103754	9.578187	-0.002689	0.505046	0.007333
01087	-1.943219	-0.117636	9.532835	-0.009346	0.491184	-0.005830
01088	-1.948093	-0.112294	9.514410	-0.007534	0.468790	0.001522
01089	-1.982861	-0.137546	9.528185	-0.010577	0.443117	0.008616
01090	-2.061675	-0.145483	9.473649	-0.010714	0.420027	0.010637
01091	-2.094345	-0.137832	9.498274	-0.011026	0.386732	0.019708
01092	-2.091388	-0.173511	9.438821	-0.013844	0.360324	0.032435
01093	-1.995498	-0.138104	9.527382	-0.017210	0.358740	0.042658
01094	-1.946142	-0.159430	9.493657	-0.018009	0.389846	0.050390
01095	-1.985603	-0.160144	9.485472	-0.016092	0.440250	0.041684
01096	-2.088184	-0.149743	9.482026	-0.013630	0.488554	0.039881
01097	-2.199101	-0.147343	9.443837	-0.013369	0.515821	0.053142
01098	-2.207547	-0.141191	9.424933	-0.012750	0.534886	0.065716
01099	-2.206253	-0.151004	9.461977	-0.012909	0.564306	0.078425
01100	-2.300314	-0.124627	9.411482	-0.015640	0.603525	0.077663
01101	-2.472063	-0.134662	9.395652	-0.011172	0.622239	0.070565
01102	-2.663698	-0.094549	9.385979	-0.012232	0.594681	0.058162
01103	-2.748087	-0.092822	9.355837	-0.019552	0.539853	0.070247
01104	-2.648741	-0.116888	9.349751	-0.021004	0.506405	0.069273
01105	-2.589667	-0.147061	9.350861	-0.022519	0.512282	0.075884
01106	-2.652678	-0.162647	9.324394	-0.017823	0.539043	0.073260
01107	-2.684294	-0.171088	9.345696	-0.007435	0.567447	0.055215
01108	-2.754719	-0.193801	9.283769	0.009306	0.587840	0.024206
01109	-2.801138	-0.248819	9.280511	0.040222	0.617320	-0.011472
01110	-2.812026	-0.157617	9.291157	0.057265	0.655850	-0.024092
01111	-2.897474	-0.111449	9.245284	0.050308	0.696295	-0.021074
01112	-3.004312	-0.114010	9.228449	0.043601	0.714952	-0.052766
01113	-3.121869	-0.060621	9.196177	0.039795	0.732336	-0.082992
01114	-3.180651	-0.012175	9.195963	0.022333	0.749201	-0.106281
01115	-3.376690	-0.049092	9.113617	-0.001307	0.742584	-0.108034
01116	-3.491227	-0.091352	9.135247	-0.016849	0.703082	-0.099001
01117	-3.549409	-0.137599	9.068152	-0.018012	0.652521	-0.097536
01118	-3.572759	-0.176289	9.053566	-0.003028	0.613917	-0.098101
01119	-3.659935	-0.145443	9.023982	0.005001	0.569341	-0.093391
01120	-3.663418	-0.166591	9.025933	0.013862	0.538164	-0.101938
01121	-3.644075	-0.139503	8.999547	0.019193	0.516480	-0.105033
01122	-3.644200	-0.159818	9.003495	0.019506	0.514845	-0.100019
01123	-3.643900	-0.196665	8.940471	0.025114	0.528887	-0.113774
01124	-3.738561	-0.163683	8.964656	0.032424	0.536223	-0.130200
01125	-3.862835	-0.129731	8.969071	0.028585	0.535253	-0.122243
01126	-3.891157	-0.157580	8.920262	0.011555	0.501823	-0.099778
01127	-3.901476	-0.193844	8.910625	0.009453	0.490533	-0.068852
01128	-3.931746	-0.187651	8.872319	0.008705	0.488179	-0.039955
01129	-3.934480	-0.173270	8.887007	0.004296	0.481357	-0.013221
01130	-3.977697	-0.173110	8.867751	-0.000865	0.492276	0.013556
01131	-4.058083	-0.211742	8.837868	0.002541	0.497641	0.016398
01132	-4.165582	-0.167399	8.820688	0.005574	0.490606	0.016786
01133	-4.199441	-0.125868	8.791116	0.000998	0.465743	0.025966
01134	-4.317191	-0.170127	8.760128	-0.002726	0.434658	0.046941
01135	-4.306093	-0.113543	8.767522	-0.017251	0.398802	0.060021
01136	-4.314965	-0.089395	8.746895	-0.033376	0.375714	0.078811
01137	-4.287062	-0.124517	8.762217	-0.048625	0.380065	0.086248
01138	-4.315101	-0.158033	8.736584	-0.049488	0.381945	0.081956
01139	-4.306412	-0.136343	8.664494	-0.045961	0.386999	0.074847
01140	-4.316493	-0.129958	8.701392	-0.041545	0.407550	0.067701
01141	-4.304299	-0.181828	8.700442	-0.030560	0.446527	0.043279
01142	-4.321941	-0.134796	8.652689	-0.025864	0.493047	0.034316
01143	-4.422720	-0.149138	8.645477	-0.024898	0.537699	0.036233
01144	-4.560084	-0.186074	8.566384	-0.028425	0.548405	0.043997
01145	-4.690080	-0.198527	8.534545	-0.015206	0.539694	0.032000
01146	-4.691952	-0.216245	8.537519	-0.002847	0.516160	0.030038
01147	-4.731101	-0.223038	8.480291	0.000145	0.501448	0.037987
01148	-4.844369	-0.241626	8.488469	0.016593	0.481838	0.035882
01149	-4.827788	-0.224431	8.452106	0.039921	0.462426	0.014765
01150	-4.872105	-0.187019	8.439000	0.053643	0.450081	0.010385
01151	-4.858609	-0.135046	8.413265	0.061325	0.438684	0.019404
01152	-4.808588	-0.068504	8.425620	0.050907	0.453001	0.021137
01153	-4.800805	-0.090607	8.399142	0.026481	0.488686	0.037778
01154	-4.849502	-0.054215	8.383319	0.012128	0.530844	0.040901
01155	-4.930812	-0.090635	8.342552	0.003826	0.562037	0.035038
01156	-5.076582	-0.108184	8.320364	0.007215	0.570423	0.024385
01157	-5.216164	-0.134277	8.263938	0.016854	0.558217	0.005426
01158	-5.251226	-0.117063	8.251396	0.026796	0.528169	-0.019154
01159	-5.331274	-0.049289	8.218088	0.023411	0.500948	-0.033419
01160	-5.319794	-0.003498	8.190377	-0.000749	0.466744	-0.021718
01161	-5.291081	-0.001081	8.195985	-0.042935	0.457769	0.000889
01162	-5.391324	-0.092046	8.108365	-0.072562	0.445389	0.000127
01163	-5.516094	-0.126370	8.127900	-0.074021	0.414862	-0.003636
01164	-5.556775	-0.148410	8.090231	-0.085837	0.358411	0.010708
01165	-5.540404	-0.124162	8.127932	-0.090214	0.307710	0.035536
01166	-5.408190	-0.097159	8.101034	-0.115235	0.284938	0.051261
01167	-5.258080	-0.194152	8.073389	-0.123024	0.317580	0.057077
01168	-5.353018	-0.229697	8.046976	-0.115443	0.378199	0.062334
01169	-5.394357	-0.250520	8.008846	-0.095285	0.421660	0.060028
01170	-5.405581	-0.254612	7.935809	-0.076311	0.463909	0.067134
01171	-5.573497	-0.241759	7.966310	-0.054302	0.493274	0.069862
01172	-5.710039	-0.235920	7.913493	-0.033658	0.489812	0.063704
01173	-5.782277	-0.273029	7.868871	-0.009932	0.462568	0.049341
01174	-5.793728	-0.271555	7.867694	0.025093	0.435074	0.038853
01175	-5.765446	-0.180156	7.837359	0.047778	0.420163	0.037131
01176	-5.781463	-0.143525	7.846389	0.052386	0.426858	0.016068
01177	-5.780794	-0.124062	7.790192	0.046931	0.433794	0.009207
01178	-5.821286	-0.087333	7.773297	0.039010	0.437238	0.009126
01179	-5.873191	-0.067978	7.812406	0.016670	0.438069	0.018091
01180	-5.955958	-0.087580	7.760056	-0.005870	0.427818	0.026931
01181	-5.964635	-0.112384	7.711172	-0.022609	0.419377	0.032127
01182	-5.920313	-0.173701	7.705347	-0.022180	0.430827	0.037850
01183	-5.917952	-0.110299	7.673649	-0.024726	0.457371	0.028638
01184	-5.988145	-0.149078	7.626513	-0.028732	0.493723	0.032548
01185	-6.165889	-0.221643	7.554011	-0.014971	0.489772	0.031747
01186	-6.339204	-0.196302	7.531829	0.006450	0.445472	0.019720
01187	-6.490536	-0.211538	7.472443	0.019038	0.358763	0.004599
01188	-6.451247	-0.205775	7.489734	0.038996	0.269125	-0.015232
01189	-6.380436	-0.094768	7.475129	0.041887	0.194114	-0.020013
01190	-6.181636	-0.025161	7.514569	0.016501	0.171407	-0.018708
01191	-6.078897	-0.082184	7.536867	-0.012530	0.198604	-0.017853
01192	-6.095990	-0.084995	7.523018	-0.032887	0.255790	-0.018311
01193	-6.149405	-0.079071	7.511453	-0.049584	0.297351	-0.010000
01194	-6.173177	-0.132005	7.467076	-0.066906	0.324052	0.005649
01195	-6.210090	-0.224521	7.427289	-0.054916	0.356475	0.017093
01196	-6.259658	-0.225122	7.377228	-0.030871	0.391077	0.009837
01197	-6.380214	-0.229188	7.358881	0.001595	0.410328	-0.003306
01198	-6.442566	-0.219073	7.337881	0.015317	0.396398	-0.008917
01199	-6.557664	-0.196605	7.295490	0.031239	0.371208	-0.013854
01200	-6.521349	-0.109191	7.272196	0.027178	0.345538	-0.014281
01201	-6.517324	-0.095113	7.294858	0.001235	0.324891	-0.010334
01202	-6.493654	-0.123333	7.279290	-0.021780	0.317086	0.000720
01203	-6.530629	-0.156201	7.223587	-0.040032	0.318805	0.014610
01204	-6.449096	-0.172315	7.207132	-0.044968	0.341027	0.017005
01205	-6.577104	-0.217917	7.194619	-0.036508	0.365572	0.007801
01206	-6.631212	-0.233574	7.125195	-0.021010	0.372411	-0.002324
01207	-6.607493	-0.367398	7.097195	0.014853	0.375438	-0.011683
01208	-6.696041	-0.272836	7.081146	0.071126	0.382691	-0.028867
01209	-6.736735	-0.251814	7.045890	0.095524	0.375033	-0.035271
01210	-6.776557	-0.229146	7.011139	0.126040	0.362593	-0.035588
01211	-6.858889	-0.195994	7.053271	0.146754	0.331888	-0.042990
01212	-6.772146	-0.129081	7.041355	0.150427	0.304085	-0.038518
01213	-6.742757	-0.074833	7.029534	0.137713	0.303172	-0.019514
01214	-6.649819	0.007993	7.035998	0.108363	0.331275	-0.004823
01215	-6.649745	0.036944	7.016466	0.057467	0.387504	0.006937
01216	-6.755160	-0.020551	6.934085	0.017434	0.436813	0.000086
01217	-7.089659	-0.096102	7.006667	-0.008819	0.452280	-0.014594
01218	-7.778582	-0.414186	6.589557	0.138293	0.166223	0.102074
01219	-7.057264	-0.013080	6.830261	0.048657	0.091871	0.037976
01220	-6.959546	-0.159806	6.892477	0.083898	0.071027	0.016041
01221	-6.890245	-0.236167	6.767973	0.152640	0.098212	-0.028913
01222	-6.980760	-0.101524	6.844854	0.210300	0.121311	-0.069871
01223	-7.077029	0.026595	6.862578	0.166492	0.082435	-0.025798
01224	-7.046433	0.186734	6.948532	0.051844	-0.007720	0.032314
01225	-7.018274	0.001758	6.839244	-0.011749	-0.025642	0.015154
01226	-6.994602	-0.057353	6.886967	-0.029984	-0.037368	0.009076
01227	-6.960923	-0.012190	6.870496	-0.048147	-0.040434	0.003646
01228	-6.973400	0.049900	6.887149	-0.072369	-0.047352	0.005792
01229	-6.961976	0.011382	6.884078	-0.106208	-0.059475	0.010805
01230	-6.922985	-0.054024	6.861557	-0.123647	-0.061641	0.021725
01231	-6.944037	-0.084182	6.861089	-0.120803	-0.061942	0.015102
01232	-6.926245	-0.108769	6.875888	-0.119635	-0.058911	0.008965
01233	-6.910446	-0.075821	6.873979	-0.106425	-0.062500	0.005764
01234	-6.890935	-0.148241	6.863937	-0.101348	-0.057337	0.010002
01235	-6.892938	-0.178299	6.891116	-0.090357	-0.049729	0.020415
01236	-6.878097	-0.142077	6.888320	-0.070837	-0.044304	0.024695
01237	-6.888670	-0.136460	6.921744	-0.067288	-0.036504	0.034446
01238	-6.857791	-0.212376	6.878887	-0.063451	-0.030823	0.044835
01239	-6.850107	-0.197434	6.898269	-0.047095	-0.020161	0.045734
01240	-6.849114	-0.197115	6.899263	-0.042420	-0.011459	0.053718
01241	-6.862630	-0.178675	6.888876	-0.027619	0.004710	0.050766
01242	-6.869053	-0.201288	6.911750	-0.004962	0.014267	0.039706
01243	-6.866419	-0.126270	6.911703	-0.001147	0.028621	0.022004
01244	-6.912056	-0.203726	6.892539	0.001291	0.041289	0.014805
01245	-6.950723	-0.086153	6.901305	0.011604	0.025699	0.017488
01246	-6.931408	-0.125811	6.861798	0.010758	0.019083	0.005477
01247	-6.893593	-0.118893	6.875982	0.008421	0.015081	0.013374
01248	-6.888810	-0.101657	6.892519	0.009312	0.020992	0.015998
01249	-6.890269	-0.099658	6.891090	0.012655	0.020821	0.020051
01250	-6.903569	-0.137348	6.895422	0.014604	0.021859	0.025239
01251	-6.905322	-0.134183	6.893729	0.020452	0.027865	0.031437
01252	-6.928285	-0.080476	6.888513	0.018385	0.024638	0.030604
01253	-6.922386	-0.110496	6.879745	0.006735	0.021989	0.028286
01254	-6.931218	-0.075269	6.885621	0.000599	0.015207	0.030817
01255	-6.970982	-0.079172	6.869437	-0.006198	0.006885	0.022014
01256	-6.997827	-0.053344	6.889608	-0.021576	-0.008612	0.009260
01257	-6.938249	-0.042307	6.893274	-0.042818	-0.026524	0.004721
01258	-6.927371	-0.126622	6.863037	-0.048622	-0.029647	0.003551
01259	-6.913116	-0.098621	6.900695	-0.053205	-0.032573	0.005622
01260	-6.930489	-0.100362	6.874556	-0.060185	-0.033013	0.006245
01261	-6.860823	-0.181249	6.888056	-0.048316	-0.028902	0.009217
01262	-6.897913	-0.198155	6.915565	-0.037996	-0.019272	0.008339
01263	-6.884951	-0.159286	6.910912	-0.017804	-0.012336	0.009573
01264	-6.851671	-0.169644	6.908809	-0.006411	0.001804	0.006952
01265	-6.917709	-0.149114	6.913528	0.001287	0.003072	0.008275
01266	-6.892661	-0.125567	6.917975	0.003078	0.008412	0.008479
01267	-6.938726	-0.136651	6.842832	0.006037	0.011067	0.006888
01268	-6.894213	-0.114762	6.875432	0.009990	0.005965	0.002819
01269	-6.914106	-0.121015	6.887889	0.016184	0.009156	0.000270
01270	-6.908583	-0.104549	6.905145	0.013114	0.007216	-0.003149
01271	-6.868788	-0.146637	6.894870	0.018916	0.010332	-0.001979
01272	-6.923350	-0.085182	6.893416	0.014339	0.007410	0.000091
01273	-6.923879	-0.084339	6.892896	0.003966	0.007846	0.006049
01274	-6.889911	-0.151272	6.906146	0.000063	0.009354	0.010091
01275	-6.884983	-0.125828	6.881753	0.003695	0.016437	0.010472
01276	-6.905498	-0.131998	6.893595	0.005812	0.016063	0.011285
01277	-6.893039	-0.148168	6.903092	0.007204	0.014853	0.010149
01278	-6.907692	-0.129349	6.891446	0.011887	0.017058	0.013090
01279	-6.922203	-0.110542	6.879929	0.009764	0.010957	0.007220
01280	-6.942114	-0.116859	6.892369	0.006525	0.003949	0.003121
01281	-6.936220	-0.092127	6.868889	-0.008037	-0.004929	0.002368
01282	-6.935408	-0.101991	6.910790	-0.014118	-0.012399	-0.004494
01283	-6.920893	-0.112059	6.881222	-0.021543	-0.022255	-0.010244
01284	-6.893973	-0.091284	6.887500	-0.018979	-0.019678	-0.008116
01285	-6.898775	-0.108701	6.870953	-0.017639	-0.017294	-0.009229
01286	-6.858741	-0.104849	6.887346	-0.018251	-0.012372	-0.001109
01287	-6.896753	-0.120448	6.913987	-0.012449	-0.009258	0.000061
01288	-6.844262	-0.123789	6.898787	-0.008307	0.003656	0.006795
01289	-6.903038	-0.136035	6.895979	-0.000053	0.007157	0.014446
01290	-6.871188	-0.135729	6.851459	0.006650	0.016176	0.018249
01291	-6.891665	-0.150110	6.904422	0.009666	0.021705	0.021694
01292	-6.900905	-0.105790	6.868858	0.013623	0.023073	0.022686
01293	-6.927574	-0.135430	6.903925	0.007368	0.017006	0.020198
01294	-6.915359	-0.150699	6.913215	0.011551	0.019849	0.021849
01295	-6.943710	-0.113714	6.890813	0.012218	0.017804	0.018764
01296	-6.898611	-0.130462	6.856583	0.005191	0.014501	0.014350
01297	-6.932271	-0.127860	6.899353	0.007581	0.012007	0.015797
01298	-6.913695	-0.118931	6.885612	0.009696	0.011631	0.016612
01299	-6.901194	-0.134330	6.895222	0.013605	0.016589	0.017629
01300	-6.909966	-0.090034	6.859968	0.017563	0.017953	0.018623
01301	-6.911088	-0.096627	6.900033	0.017062	0.018593	0.017331
01302	-6.925804	-0.076935	6.888236	0.015217	0.016850	0.017151
01303	-6.940295	-0.066554	6.917827	0.010759	0.016126	0.014864
01304	-6.927851	-0.073361	6.886216	0.006623	0.009693	0.013190
01305	-6.876250	-0.075139	6.870255	0.003113	0.011280	0.013508
01306	-6.955003	-0.093584	6.879718	0.005180	0.014495	0.014345
01307	-6.897600	-0.079684	6.881284	0.006797	0.014759	0.013869
01308	-6.924039	-0.100947	6.875497	0.008462	0.011430	0.013370
01309	-6.917588	-0.132436	6.867408	0.006795	0.014757	0.013868
01310	-6.939483	-0.080332	6.862919	0.011969	0.016309	0.018107
01311	-6.926984	-0.095873	6.872604	0.008954	0.010786	0.014663
01312	-6.941085	-0.077416	6.861332	0.001843	0.008209	0.005233
01313	-6.941408	-0.076949	6.861010	-0.002199	0.001066	0.008569
01314	-6.941344	-0.076991	6.861074	-0.009936	-0.003058	0.002200
01315	-6.934778	-0.062306	6.879350	-0.013895	-0.010888	-0.003850
01316	-6.939982	-0.088295	6.903666	-0.019472	-0.012513	-0.004371
01317	-6.939036	-0.090091	6.904593	-0.024555	-0.014782	-0.003600
01318	-6.897865	-0.125927	6.854767	-0.019606	-0.014707	-0.000018
01319	-6.890910	-0.111380	6.873423	-0.015600	-0.010471	0.006011
01320	-6.890457	-0.111707	6.873871	-0.009123	-0.002946	0.009161
01321	-6.929346	-0.125892	6.899692	-0.001570	0.002611	0.005510
01322	-6.871350	-0.103753	6.860637	0.004057	0.007110	0.011063
01323	-6.897628	-0.125061	6.855021	0.009412	0.013727	0.015982
01324	-6.886681	-0.083042	6.848185	0.011929	0.019889	0.018135
01325	-6.933208	-0.119390	6.895928	0.021913	0.025819	0.020968
01326	-6.903421	-0.069258	6.875557	0.023932	0.026154	0.016774
01327	-6.930923	-0.079980	6.827448	0.026492	0.028721	0.018905
01328	-6.932782	-0.085805	6.866887	0.033413	0.026251	0.013263
01329	-6.921100	-0.100141	6.875825	0.034983	0.023634	0.007757
01330	-6.975120	-0.085121	6.847996	0.034484	0.024273	0.006463
01331	-6.912081	-0.054679	6.866982	0.029357	0.019131	0.002202
01332	-6.938756	-0.084605	6.902311	0.017757	0.012942	-0.000158
01333	-6.920127	-0.067186	6.847239	0.017843	0.012229	0.004853
01334	-6.933264	-0.105713	6.852046	0.017796	0.015819	0.004871
01335	-6.915060	-0.105802	6.879258	0.021703	0.020765	0.005888
01336	-6.910683	-0.078950	6.853993	0.030504	0.029373	0.010510
01337	-6.905870	-0.108482	6.844433	0.055130	0.043415	0.004737
01338	-6.941943	-0.093640	6.843429	0.072870	0.049863	-0.000463
01339	-6.939413	-0.073057	6.857684	0.079462	0.053071	-0.006717
01340	-6.943079	-0.058968	6.812544	0.093727	0.057506	-0.011621
01341	-6.967730	-0.011768	6.846246	0.099008	0.054736	-0.016770
01342	-6.957673	-0.015152	6.812155	0.083126	0.046421	-0.011408
01343	-6.953756	-0.052104	6.843332	0.078204	0.049216	-0.009983
01344	-6.937752	-0.040106	6.826930	0.083279	0.054342	-0.005729
01345	-6.954823	-0.017542	6.812304	0.086901	0.054896	-0.010391
01346	-6.939431	-0.013875	6.836889	0.084521	0.060263	-0.006846
01347	-6.982384	-0.013959	6.816971	0.084984	0.059607	-0.005549
01348	-6.967428	-0.010205	6.841156	0.078609	0.067210	-0.003016
01349	-6.946773	0.017556	6.841062	0.068094	0.074886	0.002871
01350	-6.958298	0.006642	6.817697	0.057538	0.089053	0.013762
01351	-6.971146	-0.012608	6.834792	0.059394	0.102992	0.014577
01352	-6.945303	-0.009312	6.783957	0.055058	0.116699	0.022927
01353	-6.992426	-0.017047	6.801409	0.055961	0.114795	0.044938
01354	-7.032542	0.008913	6.753629	0.047740	0.113568	0.061667
01355	-7.039842	0.016224	6.746005	0.044578	0.102960	0.057604
01356	-7.040929	0.038905	6.756389	0.049556	0.102933	0.046829
01357	-7.011074	0.099418	6.788944	0.045540	0.115126	0.036392
01358	-7.004127	0.046566	6.725667	0.043680	0.136238	0.022398
01359	-6.995175	0.049392	6.744067	0.046644	0.160991	0.012014
01360	-7.021102	0.062329	6.761893	0.058954	0.192901	-0.001812
01361	-7.021283	0.056900	6.716824	0.056593	0.229006	-0.006506
01362	-7.044777	0.093395	6.706272	0.055146	0.250943	-0.004190
01363	-7.113016	0.051115	6.677655	0.046162	0.264500	-0.003282
01364	-7.125097	0.069803	6.676432	0.042957	0.265346	-0.001735
01365	-7.148346	0.056960	6.639773	0.042527	0.265990	0.007634
01366	-7.129390	0.114344	6.661621	0.018567	0.261516	0.015686
01367	-7.101752	0.088854	6.652829	0.004657	0.285808	0.023485
01368	-7.290938	0.126180	6.617763	-0.014689	0.294744	0.015020
01369	-7.285240	0.034005	6.537252	-0.020458	0.269881	-0.007510
01370	-7.261933	0.045973	6.494221	-0.019704	0.247103	-0.001074
01371	-7.226466	0.089721	6.587950	-0.022028	0.258858	0.003656
01372	-7.227108	0.030412	6.514591	-0.017242	0.285886	-0.000854
01373	-7.309488	0.058586	6.452615	-0.008400	0.294304	0.000198
01374	-7.330541	0.050100	6.472879	-0.005607	0.283954	0.003085
01375	-7.346308	0.058158	6.410667	-0.002742	0.282848	0.001569
01376	-7.346493	0.056796	6.419851	-0.005071	0.273867	0.005081
01377	-7.396570	0.067300	6.400006	-0.003517	0.261880	0.004056
01378	-7.385045	0.041038	6.363280	-0.006273	0.253552	0.006249
01379	-7.421172	0.091607	6.338800	-0.005417	0.248649	0.008892
01380	-7.391718	0.064175	6.332411	-0.007398	0.255389	0.009264
01381	-7.408222	0.064333	6.313093	-0.010949	0.266876	0.010678
01382	-7.445346	0.057741	6.304932	-0.007485	0.261627	0.010527
01383	-7.503824	0.036736	6.249224	-0.007601	0.252977	0.009908
01384	-7.480829	0.050303	6.308323	-0.004953	0.249789	0.012796
01385	-7.477245	0.049824	6.218731	-0.004034	0.258292	0.006000
01386	-7.485170	0.024627	6.252292	-0.001406	0.272817	0.005094
01387	-7.477443	0.047630	6.238224	-0.000151	0.285000	0.005265
01388	-7.499982	0.039860	6.257200	0.000596	0.311294	0.005352
01389	-7.516260	0.048436	6.191396	0.000720	0.341704	0.004091
01390	-7.550018	0.065771	6.152786	-0.001825	0.358122	-0.001309
01391	-7.593203	0.059153	6.136064	0.001473	0.372063	0.006106
01392	-7.632406	0.060952	6.077121	-0.001342	0.377822	0.004451
01393	-7.651137	0.077110	6.066370	0.001425	0.376639	0.002999
01394	-7.689901	0.078780	6.007021	0.000938	0.374971	0.002322
01395	-7.717626	0.070907	6.019030	0.000891	0.382620	0.004225
01396	-7.719676	0.078025	5.978896	0.000253	0.384466	0.003521
01397	-7.725744	0.069294	5.920235	0.001511	0.394408	0.004368
01398	-7.703184	0.065484	5.981079	0.001422	0.421066	0.003103
01399	-7.691224	0.063437	5.908104	-0.002389	0.469070	0.004389
01400	-7.781226	0.035649	5.841516	0.000359	0.509492	0.003596
01401	-7.834348	0.070575	5.775744	0.001425	0.520692	0.005079
01402	-7.927896	0.050646	5.764856	0.000700	0.513916	0.003743
01403	-7.942345	0.026027	5.678362	0.002276	0.498345	0.002799
01404	-7.981434	0.043753	5.626406	0.003089	0.481333	0.004885
01405	-8.011646	0.051871	5.647873	-0.000354	0.462231	0.003688
01406	-7.972364	0.031297	5.617835	0.004268	0.465535	0.003919
01407	-7.999665	0.073151	5.544472	0.001769	0.478337	0.005407
01408	-8.069287	0.060111	5.524547	-0.000499	0.482706	0.006301
01409	-8.076935	0.051517	5.458251	0.003858	0.476760	0.003982
01410	-8.124422	0.045267	5.428866	-0.002449	0.474261	0.007908
01411	-8.123246	0.084389	5.417795	-0.002604	0.479695	0.010460
01412	-8.116858	0.074392	5.382847	-0.006183	0.490816	0.007910
01413	-8.141327	0.090569	5.360384	-0.007836	0.514222	0.008915
01414	-8.149898	0.081869	5.290560	-0.008894	0.534929	0.011946
01415	-8.222367	0.068877	5.263040	-0.007515	0.557302	0.011659
01416	-8.288494	0.048203	5.174889	-0.005562	0.561472	0.009575
01417	-8.258996	0.076824	5.162084	-0.001156	0.566080	0.010551
01418	-8.322358	0.072158	5.091368	-0.000846	0.562259	0.006848
01419	-8.430878	0.038064	5.018146	0.003814	0.555669	0.005979
01420	-8.380040	0.057540	4.980333	0.002102	0.543257	0.005649
01421	-8.406846	0.058105	4.934943	0.003240	0.538266	0.004669
01422	-8.413188	0.024056	4.917382	0.000725	0.542566	0.005449
01423	-8.460551	0.033600	4.897599	0.002667	0.545344	0.002750
01424	-8.429200	0.087510	4.833064	-0.000933	0.555894	0.008397
01425	-8.480075	0.055917	4.846571	-0.000231	0.578743	0.006739
01426	-8.528964	0.075274	4.750030	-0.004326	0.589855	0.010988
01427	-8.613494	0.047800	4.662233	-0.009732	0.594269	0.007222
01428	-8.584175	0.069718	4.557672	-0.009632	0.587812	0.009220
01429	-8.753594	0.062394	4.553323	-0.014590	0.557397	0.002878
01430	-8.656710	0.062588	4.468816	-0.010608	0.516657	0.001886
01431	-8.747271	0.042145	4.443690	-0.013841	0.516106	0.005627
01432	-8.723540	0.087213	4.423375	-0.008698	0.501998	0.003073
01433	-8.736318	0.069599	4.394262	-0.011306	0.497876	-0.000127
01434	-8.758111	0.069241	4.350671	-0.012858	0.499002	0.004030
01435	-8.716874	0.032042	4.304693	-0.017912	0.516237	0.006044
01436	-8.815952	0.060552	4.299511	-0.019439	0.527672	0.006379
01437	-8.870328	0.038977	4.206886	-0.024014	0.528146	0.003932
01438	-8.824146	0.058529	4.142837	-0.024660	0.527883	0.003812
01439	-8.837344	0.040831	4.110548	-0.023376	0.538519	0.010067
01440	-8.975980	0.049990	4.022703	-0.018800	0.515383	0.008688
01441	-8.987351	0.032546	3.992711	-0.020393	0.483700	0.006217
01442	-9.022543	0.051131	3.902342	-0.017941	0.448509	0.004839
01443	-9.007471	0.024669	3.854566	-0.019493	0.415055	0.010108
01444	-8.977124	0.042879	3.932152	-0.022925	0.399323	0.013626
01445	-8.955255	0.073832	3.871266	-0.035205	0.400954	0.014698
01446	-8.947544	0.053357	3.916956	-0.041678	0.417372	0.018146
01447	-9.024986	0.043255	3.821020	-0.039646	0.434343	0.022111
01448	-8.988927	0.098802	3.737236	-0.035554	0.442510	0.023392
01449	-9.097353	0.072515	3.715923	-0.034507	0.437582	0.019159
01450	-9.088204	0.048293	3.635084	-0.044360	0.423135	0.025934
01451	-9.148042	0.019882	3.588004	-0.051641	0.395116	0.029460
01452	-9.132131	0.084943	3.533390	-0.044153	0.353969	0.031463
01453	-9.160268	0.018938	3.590035	-0.035826	0.330776	0.027984
01454	-9.133503	0.051025	3.536565	-0.024226	0.323931	0.023022
01455	-9.121800	0.058769	3.502866	-0.031681	0.325530	0.021420
01456	-9.125663	0.042350	3.487991	-0.043685	0.335796	0.029560
01457	-9.160669	0.036835	3.460695	-0.045097	0.347319	0.029890
01458	-9.172734	0.038076	3.428576	-0.037777	0.353801	0.028336
01459	-9.164951	0.077042	3.429005	-0.026250	0.368075	0.014462
01460	-9.116806	0.054686	3.417309	-0.028505	0.400019	-0.011448
01461	-9.158160	0.032833	3.330148	-0.030092	0.434198	0.006051
01462	-9.333406	-0.000490	3.176337	-0.031454	0.398777	0.008603
01463	-9.325607	0.037266	3.175473	-0.023347	0.345805	0.003551
01464	-9.314486	0.059572	3.160619	-0.021330	0.302062	0.010369
01465	-9.293116	0.049104	3.146162	-0.016662	0.272273	0.009656
01466	-9.282190	0.087472	3.155497	-0.010805	0.260552	0.006885
01467	-9.274176	0.037172	3.143861	-0.007255	0.257577	0.006727
01468	-9.263299	0.075666	3.153704	-0.005017	0.267576	0.007582
01469	-9.274679	0.062210	3.075258	-0.006047	0.287344	0.004826
01470	-9.251042	0.065714	3.113101	-0.004639	0.307689	0.008808
01471	-9.288776	0.061354	3.052415	-0.013792	0.325669	0.007911
01472	-9.336352	0.015360	3.024094	-0.009862	0.336654	0.010692
01473	-9.353178	0.033486	2.977207	-0.008215	0.332642	0.008599
01474	-9.390461	0.029282	2.914996	-0.006937	0.320403	0.009588
01475	-9.355301	0.059006	2.899247	-0.008545	0.304319	0.010862
01476	-9.400113	0.027170	2.925598	-0.006779	0.302499	0.011472
01477	-9.392232	0.052203	2.878684	-0.011306	0.311545	0.012660
01478	-9.371152	0.042280	2.863233	-0.012135	0.303875	0.014288
01479	-9.409695	0.053842	2.821047	-0.016659	0.307183	0.009458
01480	-9.418985	0.040760	2.739975	-0.012978	0.293378	0.014584
01481	-9.447153	0.019378	2.697284	-0.014836	0.263369	0.012944
01482	-9.409817	0.049349	2.688508	0.000905	0.229685	0.012867
01483	-9.375546	-0.083131	2.691455	0.008609	0.206501	0.028594
01484	-9.422868	-0.017257	2.679429	0.027065	0.205235	0.092127
01485	-9.441609	0.117892	2.616631	0.025539	0.192769	0.096751
01486	-9.460458	0.100933	2.651081	0.023835	0.178100	0.080086
01487	-9.408937	0.102668	2.680978	0.031819	0.175484	0.073003
01488	-9.410998	0.094624	2.644335	0.039035	0.210131	0.069353
01489	-9.443625	0.111167	2.642333	0.130038	0.258085	0.039864
01490	-9.409785	0.162202	2.650774	0.077588	0.271581	0.040807
01491	-9.472024	0.159969	2.525676	-0.014313	0.261023	0.058222
01492	-9.444104	0.149572	2.583021	0.011983	0.285535	0.029596
01493	-9.442793	0.119153	2.552061	0.007246	0.319160	0.024850
01494	-9.505262	0.113713	2.421461	0.014842	0.318490	0.017044
01495	-9.540566	0.112295	2.325969	0.013151	0.269647	0.008674
01496	-9.540504	0.096108	2.318860	0.019880	0.215488	0.010718
01497	-9.520592	0.115877	2.385721	0.014438	0.184756	0.002414
01498	-9.497161	0.119102	2.435828	0.012164	0.184159	-0.004435
01499	-9.498387	0.103365	2.399068	0.008285	0.203788	-0.000385
01500	-9.483561	0.125565	2.395792	-0.001801	0.228542	-0.001973
01501	-9.518484	0.136136	2.357169	0.001292	0.266656	-0.007112
01502	-9.501608	0.141795	2.329304	0.003421	0.299162	-0.011326
01503	-9.532213	0.133900	2.301159	0.001079	0.310901	-0.019441
01504	-9.538845	0.119896	2.184323	-0.005649	0.311535	-0.015322
01505	-9.587068	0.088281	2.173470	-0.000156	0.285043	-0.007408
01506	-9.556551	0.135621	2.113171	0.003431	0.269728	-0.006142
01507	-9.560772	0.133481	2.122397	0.008249	0.258021	-0.005027
01508	-9.559807	0.113792	2.148373	0.004428	0.258756	-0.007840
01509	-9.545990	0.135255	2.140581	-0.008068	0.275666	-0.007884
01510	-9.547064	0.116244	2.129226	-0.015989	0.303063	-0.018768
01511	-9.569174	0.076144	2.062515	-0.027488	0.338862	-0.015569
01512	-9.580426	0.089951	2.047676	-0.025937	0.351575	-0.013452
01513	-9.640169	0.094105	1.964056	-0.040063	0.340589	-0.015837
01514	-9.638542	0.062147	1.861695	-0.035101	0.314369	-0.016113
01515	-9.596539	0.071446	1.867347	-0.009275	0.284107	-0.016077
01516	-9.657503	0.088108	1.877250	0.008395	0.262905	-0.019892
01517	-9.638847	0.092483	1.852259	0.018586	0.256954	-0.029931
01518	-9.624474	0.110480	1.879791	0.018827	0.266682	-0.029034
01519	-9.620418	0.076350	1.817509	0.007299	0.274650	-0.031636
01520	-9.648874	0.067215	1.790958	0.009751	0.270451	-0.025262
01521	-9.648907	0.050042	1.747381	0.002228	0.257855	-0.006911
01522	-9.634551	0.072278	1.741209	0.006658	0.253463	0.004342
01523	-9.634524	0.055406	1.732542	0.011343	0.267243	0.005117
01524	-9.704407	0.111152	1.674292	0.017642	0.268733	0.003730
01525	-9.647610	0.075938	1.630298	0.020450	0.259425	0.002788
01526	-9.666470	0.035516	1.637849	0.016731	0.252522	0.013334
01527	-9.679163	0.072600	1.581057	0.022258	0.240006	0.024342
01528	-9.709768	0.088157	1.507775	0.020752	0.204157	0.028727
01529	-9.684673	0.080212	1.507533	0.018868	0.157608	0.026733
01530	-9.689327	0.078166	1.596115	0.016935	0.148600	0.031238
01531	-9.677567	0.120660	1.583170	0.012231	0.166076	0.020611
01532	-9.702876	0.117140	1.531015	0.021210	0.179446	0.000870
01533	-9.714958	0.149633	1.514544	0.019012	0.187686	-0.022367
01534	-9.679563	0.016165	1.456943	0.010124	0.177235	-0.028335
01535	-9.713675	0.043045	1.406657	0.015836	0.154940	-0.006415
01536	-9.715559	0.043408	1.393573	0.015597	0.114299	0.009346
01537	-9.758925	0.104527	1.386057	0.003557	0.070755	0.012497
01538	-9.723956	0.060012	1.432015	0.004465	0.030216	0.013134
01539	-9.710094	0.101368	1.431970	0.001069	0.020392	0.019031
01540	-9.682814	0.092005	1.447829	0.001191	0.018040	0.012943
01541	-9.707808	0.085108	1.479176	0.000509	0.022797	0.013377
01542	-9.680812	0.075811	1.493342	0.011739	0.050774	0.018549
01543	-9.689827	0.112386	1.453600	0.006629	0.084312	0.013286
01544	-9.687168	0.096412	1.461168	0.014151	0.101915	0.014024
01545	-9.701622	0.060211	1.413972	0.026561	0.110032	0.018835
01546	-9.703223	0.062684	1.402837	0.072297	0.118887	0.017788
01547	-9.719590	0.113767	1.409311	0.107487	0.137795	-0.002027
01548	-9.694182	0.103559	1.413385	0.100887	0.145288	-0.013685
01549	-9.708905	0.065434	1.362829	0.093901	0.135436	-0.012746
01550	-9.758421	0.072981	1.262010	0.104427	0.121081	-0.010963
01551	-9.728617	0.045286	1.286076	0.124716	0.097735	-0.008347
01552	-9.718720	0.083099	1.348908	0.133338	0.073419	-0.007451
01553	-9.707072	0.122525	1.378852	0.102893	0.063999	-0.003908
01554	-9.694936	0.073562	1.387931	0.053011	0.075536	0.014351
01555	-9.711162	0.145183	1.313221	0.014391	0.077917	0.026606
01556	-9.731865	0.123687	1.320996	-0.001097	0.078873	0.019077
01557	-9.731124	0.126251	1.279076	-0.007531	0.074605	0.007339
01558	-9.738691	0.052914	1.303960	-0.009996	0.058865	0.015700
01559	-9.752297	0.105529	1.283246	-0.001493	0.037925	0.028214
01560	-9.727414	0.115701	1.247073	-0.003531	0.027563	0.020426
01561	-9.734966	0.131656	1.297164	-0.000122	0.013509	0.007531
01562	-9.762317	0.142428	1.277803	-0.001464	0.008327	-0.008105
01563	-9.729678	0.114405	1.277906	-0.004321	0.003320	-0.016909
01564	-9.720454	0.079311	1.277068	-0.006857	-0.002679	-0.019436
01565	-9.743905	0.070849	1.275972	-0.009833	-0.005108	-0.018727
01566	-9.725883	0.091563	1.295680	-0.009449	-0.006893	-0.014474
01567	-9.698546	0.079182	1.314962	-0.010208	-0.013263	-0.015533
01568	-9.694741	0.060380	1.332338	-0.012368	0.001805	-0.012303
01569	-9.725762	0.087119	1.296897	-0.011230	0.005400	-0.012457
01570	-9.724001	0.087212	1.262296	-0.011731	-0.002161	-0.010682
01571	-9.738057	0.046905	1.261146	-0.013476	-0.021672	0.002739
01572	-9.739436	0.045971	1.298652	-0.010417	-0.040906	0.009426
01573	-9.748108	0.080053	1.303977	-0.007248	-0.050795	0.010084
01574	-9.723953	0.087523	1.310369	-0.010609	-0.050451	0.012006
01575	-9.728792	0.104009	1.332865	-0.014497	-0.048713	0.002794
01576	-9.704685	0.110403	1.338819	-0.023696	-0.043883	0.000117
01577	-9.704189	0.109890	1.342448	-0.024154	-0.030372	-0.004082
01578	-9.727323	0.102216	1.343680	-0.027093	-0.023649	-0.012835
01579	-9.694324	0.073745	1.346042	-0.026913	-0.014104	-0.015413
01580	-9.712187	0.049771	1.328067	-0.020815	-0.008851	-0.009951
01581	-9.719659	0.083508	1.295551	-0.013513	-0.011728	-0.004699
01582	-9.726654	0.097366	1.348876	-0.006733	-0.012218	-0.005113
01583	-9.711734	0.047717	1.331450	-0.004954	-0.012591	-0.003649
01584	-9.742626	0.075712	1.298115	-0.005383	-0.019960	0.001559
01585	-9.738457	0.058237	1.317523	-0.003372	-0.034427	-0.003115
01586	-9.716104	0.063033	1.357104	-0.005525	-0.042215	-0.001399
01587	-9.715559	0.062907	1.361008	-0.006092	-0.038054	0.000427
01588	-9.709647	0.046958	1.346615	-0.008944	-0.030149	0.000593
01589	-9.689597	0.071025	1.334120	-0.008925	-0.029166	0.006060
01590	-9.710485	0.046177	1.386484	-0.018236	-0.022755	0.007456
01591	-9.708629	0.048221	1.353889	-0.010876	-0.015489	0.008713
01592	-9.731905	0.042350	1.354048	-0.005877	-0.015607	0.006826
01593	-9.712008	0.066995	1.340459	-0.008272	-0.021218	0.011177
01594	-9.707852	0.050429	1.359367	-0.003033	-0.023512	0.006654
01595	-9.712918	0.066935	1.379544	-0.002529	-0.026884	0.006849
01596	-9.698353	0.107206	1.384192	-0.001838	-0.020707	0.004478
01597	-9.690449	0.072693	1.418961	-0.005771	-0.006251	0.000818
01598	-9.719420	0.081813	1.434881	-0.005900	0.016217	-0.004511
01599	-9.693182	0.090555	1.364842	-0.007043	0.034492	-0.008274
01600	-9.718752	0.081673	1.394397	-0.009386	0.039026	-0.007906
01601	-9.704659	0.031734	1.371501	-0.008807	0.046781	-0.006226
01602	-9.712993	0.065975	1.333352	-0.007461	0.049970	-0.001518
01603	-9.704363	0.032593	1.327674	-0.003530	0.046449	0.000186
01604	-9.708769	0.049986	1.306653	-0.006194	0.042032	0.001701
01605	-9.756247	0.037220	1.300108	-0.008406	0.035032	0.005438
01606	-9.736909	0.061245	1.282214	-0.006021	0.017794	-0.000467
01607	-9.729418	0.026520	1.314748	-0.006840	0.001280	0.002442
01608	-9.709687	0.050488	1.299795	-0.008747	-0.008684	0.001516
01609	-9.743970	0.075450	1.334815	-0.010225	-0.011274	-0.004611
01610	-9.693034	0.070384	1.355479	-0.016953	-0.011572	-0.006222
01611	-9.731057	0.043590	1.267543	-0.019181	-0.019551	-0.007955
01612	-9.714299	0.063702	1.323911	-0.019739	-0.037264	-0.002221
01613	-9.731737	0.041255	1.309206	-0.017059	-0.053740	0.005633
01614	-9.703580	0.031573	1.333412	-0.010480	-0.071975	0.022683
01615	-9.731448	0.043543	1.357292	-0.003610	-0.082237	0.033114
01616	-9.702982	0.036125	1.383208	-0.002139	-0.079651	0.039235
01617	-9.700388	0.041922	1.356157	0.002211	-0.073059	0.048697
01618	-9.728237	0.056504	1.379649	0.002303	-0.071894	0.057601
01619	-9.703718	0.068650	1.387796	0.001917	-0.069122	0.058819
01620	-9.680742	0.079178	1.429600	0.003254	-0.055979	0.056110
01621	-9.708818	0.093786	1.450795	0.005852	-0.040817	0.049202
01622	-9.697654	0.066250	1.418992	0.006481	-0.036594	0.035899
01623	-9.715386	0.135938	1.424615	0.005860	-0.034388	0.026798
01624	-9.707166	0.103045	1.461186	0.001591	-0.031614	0.011342
01625	-9.692431	0.055008	1.444632	0.002729	-0.016296	0.011276
01626	-9.705239	0.106590	1.430165	-0.002141	-0.006808	0.007178
01627	-9.699916	0.091136	1.412851	-0.001203	-0.002805	0.002175
01628	-9.703715	0.108633	1.396610	-0.005792	-0.006240	0.000824
01629	-9.724715	0.083018	1.446864	-0.006819	-0.000471	-0.005024
01630	-9.718120	0.068129	1.394400	-0.002544	0.004949	-0.004476
01631	-9.693179	0.075999	1.361381	-0.005212	-0.009424	0.004455
01632	-9.730822	0.119173	1.380755	-0.007873	-0.025562	0.005890
01633	-9.699123	0.091027	1.418291	-0.006612	-0.035270	0.001604
01634	-9.703906	0.106870	1.439155	-0.007735	-0.027926	-0.000190
01635	-9.690516	0.144533	1.478141	-0.011222	-0.017018	-0.007070
01636	-9.708703	0.120560	1.460033	-0.019126	-0.000968	-0.023317
01637	-9.694508	0.068264	1.440237	-0.029139	0.019209	-0.034327
01638	-9.666059	0.055968	1.421623	-0.029067	0.022919	-0.015896
01639	-9.736868	0.035401	1.416402	-0.040125	0.009795	-0.001103
01640	-9.710611	0.044556	1.348817	-0.045189	-0.011960	0.004664
01641	-9.713045	0.041499	1.419679	-0.034376	-0.027534	0.009247
01642	-9.689041	0.048705	1.424134	-0.024104	-0.038952	0.015667
01643	-9.717226	0.059483	1.444574	-0.018888	-0.039491	0.018618
01644	-9.665748	0.056364	1.467021	-0.010107	-0.030821	0.017082
01645	-9.699441	0.082900	1.503167	-0.009192	-0.003359	0.012289
01646	-9.670904	0.074217	1.485157	-0.007744	0.031671	0.005756
01647	-9.695067	0.068608	1.479783	-0.004106	0.054544	0.012312
01648	-9.716637	0.067022	1.404745	-0.000985	0.046398	0.020402
01649	-9.720978	0.086380	1.384757	0.004030	0.022822	0.018294
01650	-9.704238	0.109074	1.436752	0.004570	0.008691	0.023845
01651	-9.645795	0.071757	1.487627	-0.000706	0.021745	0.023020
01652	-9.684309	0.117353	1.500893	-0.005847	0.072095	0.036875
01653	-9.781384	0.223845	1.339025	-0.017772	0.077077	0.002445
01654	-9.747404	0.087121	1.362555	-0.018312	0.048839	-0.036841
01655	-9.684218	0.028475	1.393117	-0.007528	0.035004	-0.024758
01656	-9.717299	0.054049	1.389832	-0.001150	0.030798	-0.001579
01657	-9.719911	0.073384	1.336861	-0.004312	0.008058	0.007036
01658	-9.759194	0.114429	1.389604	-0.004111	-0.019496	-0.006749
01659	-9.711860	0.037595	1.373177	-0.004048	-0.032005	-0.008881
01660	-9.725733	0.085584	1.395713	-0.009749	-0.039813	-0.012131
01661	-9.701705	0.090460	1.400557	-0.010824	-0.033249	-0.015943
01662	-9.717137	0.047170	1.435492	-0.005064	-0.027975	-0.022220
01663	-9.706232	0.013960	1.402467	-0.011518	-0.026742	-0.008017
01664	-9.686182	0.037663	1.389724	-0.002612	-0.026900	0.006765
01665	-9.714551	0.048356	1.409115	-0.001600	-0.030931	0.020099
01666	-9.717952	0.067884	1.395581	-0.002989	-0.032355	0.022881
01667	-9.700565	0.090217	1.452204	-0.003476	-0.030732	0.015199
01668	-9.726160	0.103944	1.402790	-0.005748	-0.028725	0.006062
01669	-9.727118	0.102255	1.439968	-0.004670	-0.027063	-0.005017
01670	-9.694067	0.074455	1.442895	-0.010648	-0.033666	-0.011089
01671	-9.708027	0.033895	1.443712	-0.006993	-0.034250	-0.004739
01672	-9.698283	0.089334	1.467421	-0.011552	-0.034968	0.006871
01673	-9.716166	0.067737	1.451330	-0.014416	-0.026272	0.009109
01674	-9.692269	0.074693	1.454908	-0.016696	-0.022516	0.007474
01675	-9.678971	0.024693	1.472326	-0.013348	-0.021113	0.013025
01676	-9.682552	0.043847	1.457772	-0.009642	-0.020736	0.024842
01677	-9.691314	0.079444	1.461009	-0.008170	-0.019131	0.025498
01678	-9.681987	0.048031	1.461393	-0.003976	-0.015640	0.015117
01679	-9.690825	0.082983	1.464053	-0.000938	-0.012251	0.019872
01680	-9.709081	0.062276	1.445789	0.000938	-0.004220	0.009886
01681	-9.686727	0.067857	1.481868	-0.004019	-0.004876	0.009765
01682	-9.685429	0.070251	1.447609	-0.001605	0.000744	0.005429
01683	-9.715460	0.078273	1.498296	-0.002985	0.009300	0.000833
01684	-9.715710	0.078121	1.496681	-0.005210	0.024002	-0.002711
01685	-9.710929	0.062292	1.476342	-0.003690	0.026568	0.003415
01686	-9.700939	0.031168	1.438358	0.000859	0.019051	0.006681
01687	-9.685307	0.073946	1.405212	0.001652	0.005452	0.022535
01688	-9.720486	0.099652	1.473979	-0.002639	0.000037	0.021975
01689	-9.691821	0.092076	1.456897	0.002771	0.008082	0.016926
01690	-9.697159	0.108934	1.473513	-0.000746	0.018050	0.004610
01691	-9.696168	0.110630	1.436976	-0.003685	0.024825	-0.004085
01692	-9.711063	0.070466	1.432041	-0.005472	0.025209	-0.005540
01693	-9.707522	0.052523	1.446549	-0.002577	0.017473	-0.002313
01694	-9.709059	0.051012	1.479585	-0.001472	0.011866	0.006957
01695	-9.707865	0.053510	1.444208	-0.002370	0.007068	0.009920
01696	-9.705425	0.035642	1.494736	-0.001577	0.003449	0.018394
01697	-9.707973	0.056898	1.443352	0.003598	0.003678	0.023373
01698	-9.709384	0.057264	1.477222	-0.000592	0.008426	0.018871
01699	-9.689822	0.082728	1.460724	-0.000002	0.015213	0.015111
01700	-9.688694	0.085746	1.424745	-0.001919	0.016202	0.012244
01701	-9.708657	0.063189	1.438482	-0.001967	0.016984	0.014272
01702	-9.694254	0.103891	1.439813	-0.000852	0.007889	0.008548
01703	-9.708875	0.065397	1.436910	-0.002836	-0.000321	0.015089
01704	-9.737574	0.076161	1.453634	0.000562	-0.001452	0.011118
01705	-9.686578	0.072921	1.473120	-0.001564	-0.007315	0.023742
01706	-9.688901	0.094253	1.422801	-0.001649	-0.007494	0.020302
01707	-9.670344	0.118310	1.442796	0.000488	-0.010652	0.020524
01708	-9.713526	0.090264	1.457695	0.001477	-0.005676	0.021002
01709	-9.708329	0.076646	1.440041	-0.001063	0.001036	0.024039
01710	-9.684728	0.085394	1.441385	0.001334	-0.003330	0.027085
01711	-9.684683	0.088094	1.441528	-0.002504	0.000395	0.028848
01712	-9.693599	0.124018	1.442628	-0.001420	0.003807	0.025269
01713	-9.713444	0.102179	1.457456	-0.000503	0.006861	0.014811
01714	-9.686221	0.092001	1.474402	-0.002983	0.011049	0.008324
01715	-9.691560	0.108079	1.490891	-0.000893	0.017693	-0.002271
01716	-9.714094	0.102965	1.453065	-0.007339	0.026212	-0.008408
01717	-9.696691	0.035683	1.447801	-0.005830	0.028773	-0.002282
01718	-9.678662	0.057947	1.464288	-0.005102	0.025933	0.008218
01719	-9.702543	0.052672	1.460919	-0.002094	0.017587	0.012858
01720	-9.730120	0.065707	1.441273	-0.002030	0.019507	0.023793
01721	-9.692214	0.113566	1.442676	0.001266	0.030702	0.018530
01722	-9.691237	0.116901	1.405101	-0.000953	0.033684	0.014864
01723	-9.740261	0.103978	1.433775	0.000795	0.032334	0.010852
01724	-9.715677	0.112746	1.397624	-0.000583	0.029171	0.006136
01725	-9.693969	0.117342	1.430530	-0.004302	0.029593	-0.003658
01726	-9.694369	0.116854	1.427856	-0.002117	0.025650	-0.005460
01727	-9.709499	0.076592	1.422319	-0.003521	0.034993	-0.008032
01728	-9.715177	0.091711	1.436848	-0.003269	0.033785	-0.005209
01729	-9.734028	0.069314	1.414468	-0.004542	0.031759	-0.001018
01730	-9.727673	0.055587	1.359762	-0.002199	0.017408	0.009412
01731	-9.705676	0.061620	1.395025	-0.000106	-0.006501	0.022368
01732	-9.714309	0.097402	1.397841	0.002694	-0.025188	0.027512
01733	-9.746343	0.127007	1.400387	0.001320	-0.028351	0.022795
01734	-9.700350	0.138777	1.439700	-0.002670	-0.016913	-0.000643
01735	-9.686180	0.088632	1.421581	-0.004982	-0.004302	-0.018566
01736	-9.708308	0.082276	1.385657	-0.004959	0.007423	-0.018449
01737	-9.708396	0.080819	1.385127	-0.005849	0.003585	-0.010022
01738	-9.719430	0.023097	1.398913	-0.003433	0.000175	-0.001504
01739	-9.682676	0.067630	1.437085	-0.001960	0.004475	0.012120
01740	-9.715267	0.096468	1.435929	0.001417	0.018545	0.023265
01741	-9.661160	0.076148	1.468924	0.001767	0.040005	0.024297
01742	-9.670745	0.111784	1.465243	0.001860	0.062672	0.022503
01743	-9.683439	0.077870	1.386574	0.002073	0.084735	0.022117
01744	-9.736960	0.083690	1.393351	0.005254	0.086724	0.026261
01745	-9.712907	0.094727	1.352231	0.006593	0.079119	0.036325
01746	-9.726974	0.060752	1.308106	0.013719	0.065048	0.040023
01747	-9.756382	0.075185	1.319771	0.032142	0.032143	0.051953
01748	-9.752259	0.151820	1.356024	0.035265	0.009723	0.050415
01749	-9.738279	0.107760	1.336401	0.056457	0.000996	0.042655
01750	-9.712721	0.098924	1.389123	0.077266	-0.006890	0.025192
01751	-9.703047	0.157670	1.409537	0.077219	0.004652	0.021849
01752	-9.733733	0.188871	1.374470	0.042204	0.000275	0.009089
01753	-9.719753	0.140690	1.355676	0.005743	-0.003763	0.006601
01754	-9.716148	0.123781	1.372722	-0.002637	-0.004216	0.004943
01755	-9.743129	0.135207	1.355725	-0.004275	-0.017904	-0.002688
01756	-9.737591	0.118724	1.340477	-0.005492	-0.034183	-0.008107
01757	-9.709918	0.106746	1.362403	-0.007173	-0.045150	-0.002787
01758	-9.724839	0.153859	1.420212	-0.008896	-0.045544	-0.006275
01759	-9.726269	0.171620	1.372972	-0.017626	-0.033434	-0.017535
01760	-9.715142	0.116454	1.425918	-0.022166	-0.027836	-0.031761
01761	-9.714905	0.113129	1.427798	-0.031285	-0.010236	-0.028835
01762	-9.694868	0.133613	1.413114	-0.039268	-0.000775	-0.026146
01763	-9.713371	0.108682	1.393501	-0.050791	0.010431	-0.020911
01764	-9.704747	0.072883	1.391329	-0.053964	0.010367	-0.014130
01765	-9.676088	0.061711	1.374172	-0.052854	0.004935	-0.001419
01766	-9.704898	0.071750	1.390334	-0.038314	0.001733	0.021991
01767	-9.681327	0.079783	1.391531	-0.036651	0.002904	0.027504
01768	-9.717018	0.105285	1.459173	-0.032708	0.020879	0.018494
01769	-9.715774	0.108186	1.422258	-0.040890	0.030764	0.016342
01770	-9.716264	0.109086	1.418838	-0.038976	0.040533	0.013866
01771	-9.728362	0.074115	1.343551	-0.044928	0.035882	0.018699
01772	-9.715537	0.113079	1.377959	-0.044666	0.022167	0.019368
01773	-9.710530	0.098409	1.358662	-0.031004	0.007802	0.014350
01774	-9.730601	0.075924	1.373483	-0.007763	-0.001575	0.016330
01775	-9.701751	0.068096	1.357430	0.001474	-0.006322	0.022404
01776	-9.683184	0.092681	1.377745	0.002806	-0.013941	0.032462
01777	-9.703020	0.072795	1.394164	0.009736	-0.013188	0.044388
01778	-9.715074	0.128348	1.379890	0.007187	-0.006473	0.047418
01779	-9.732155	0.178069	1.467826	0.002948	0.009680	0.036156
01780	-9.680155	0.176685	1.450130	-0.001097	0.045820	0.010163
01781	-9.714364	0.115734	1.422282	-0.003456	0.072521	-0.001540
01782	-9.711986	0.119538	1.346506	-0.007884	0.069641	0.007389
01783	-9.734716	0.116236	1.304398	-0.001019	0.057714	0.013725
01784	-9.708319	0.106603	1.317282	0.005549	0.048730	0.024734
01785	-9.712483	0.105779	1.381037	-0.000437	0.056586	0.031707
01786	-9.721942	0.141952	1.376396	-0.001876	0.065764	0.025697
01787	-9.726255	0.161231	1.353355	-0.004183	0.067462	0.009678
01788	-9.715156	0.110655	1.361717	-0.012174	0.075027	0.001425
01789	-9.674370	0.138222	1.374412	-0.017065	0.096897	-0.003957
01790	-9.714422	0.092306	1.359352	-0.018801	0.121690	0.000284
01791	-9.697918	0.114428	1.365880	-0.018625	0.145648	0.010838
01792	-9.717070	0.074420	1.381469	-0.016914	0.182142	0.020157
01793	-9.745758	0.109637	1.258976	-0.019893	0.204467	0.033403
01794	-9.730051	0.134353	1.258764	-0.016423	0.202716	0.030853
01795	-9.757061	0.150320	1.186946	-0.009505	0.188103	0.024256
01796	-9.777185	0.130672	1.150664	-0.007888	0.152365	0.021904
01797	-9.760570	0.154341	1.157202	-0.006346	0.117236	0.018150
01798	-9.745321	0.155813	1.251068	0.002342	0.113435	0.002876
01799	-9.704589	0.164267	1.310771	0.008321	0.153239	-0.001545
01800	-9.677858	0.153972	1.277329	0.011691	0.210360	-0.011767
01801	-9.725056	0.123280	1.266293	0.015616	0.275557	-0.013421
01802	-9.714918	0.092747	1.167278	0.008603	0.323332	-0.005834
01803	-9.768890	0.117513	1.063898	0.007029	0.321299	-0.001743
01804	-9.751559	0.140768	1.018533	0.002932	0.312973	-0.007123
01805	-9.749190	0.085748	1.071967	0.005020	0.320478	-0.000551
01806	-9.773189	0.082507	1.002404	0.012002	0.351952	0.018190
01807	-9.726979	0.079883	0.988490	0.024933	0.376689	0.038986
01808	-9.788253	0.142589	0.879506	0.025330	0.383213	0.043416
01809	-9.745358	0.139858	0.898296	0.016399	0.384517	0.048915
01810	-9.769696	0.121039	0.874553	0.003716	0.388444	0.047125
01811	-9.749530	0.132201	0.838610	-0.009446	0.406172	0.059735
01812	-9.782575	0.148015	0.812518	-0.011416	0.427594	0.063901
01813	-9.796304	0.167904	0.821095	-0.005844	0.454895	0.057227
01814	-9.819255	0.169031	0.737381	-0.001577	0.490339	0.050710
01815	-9.769434	0.170551	0.676462	0.011820	0.529863	0.061196
01816	-9.777488	0.175160	0.656473	0.025454	0.578171	0.067085
01817	-9.829789	0.188176	0.574469	0.043460	0.607808	0.075004
01818	-9.806361	0.221003	0.466415	0.042841	0.627920	0.075011
01819	-9.830385	0.258228	0.333458	0.045558	0.620625	0.046404
01820	-9.781523	0.292419	0.231140	0.046200	0.585311	0.015736
01821	-9.848414	0.222815	0.213918	0.042304	0.545925	-0.003333
01822	-9.848085	0.204853	0.178559	0.040315	0.513189	-0.005980
01823	-9.848880	0.203668	0.129210	0.032661	0.487456	-0.019229
01824	-9.827336	0.224751	0.069228	0.032633	0.476626	-0.029118
01825	-9.801078	0.174781	0.078026	0.042038	0.469177	-0.035468
01826	-9.818203	0.166886	-0.006541	0.043637	0.467861	-0.039506
01827	-9.809047	0.183148	0.002573	0.061948	0.476323	-0.040259
01828	-9.832200	0.173008	-0.049650	0.075214	0.485997	-0.045759
01829	-9.862790	0.178125	-0.085751	0.075105	0.485694	-0.052822
01830	-9.847483	0.158309	-0.183830	0.071313	0.476208	-0.055590
01831	-9.785940	0.167917	-0.287458	0.076929	0.468316	-0.050428
01832	-9.838149	0.149121	-0.308477	0.059777	0.430112	-0.054374
01833	-9.814378	0.167017	-0.360368	0.050180	0.386736	-0.054997
01834	-9.812598	0.143731	-0.379478	0.031629	0.348889	-0.060518
01835	-9.810900	0.120447	-0.395772	0.002446	0.330453	-0.056813
01836	-9.839681	0.072949	-0.365670	-0.006884	0.321052	-0.046355
01837	-9.800866	0.097211	-0.369798	-0.018320	0.331135	-0.031175
01838	-9.822220	0.071444	-0.391941	-0.024753	0.350810	-0.016675
01839	-9.812763	0.089754	-0.478003	-0.031827	0.372671	0.000359
01840	-9.811056	0.107860	-0.531831	-0.020222	0.377541	0.009848
01841	-9.800427	0.093144	-0.585019	-0.019920	0.373004	0.012875
01842	-9.829628	0.104460	-0.611203	-0.014730	0.370295	0.013680
01843	-9.795811	0.078606	-0.640908	-0.007773	0.375561	0.016311
01844	-9.810833	0.094873	-0.628773	0.002248	0.390407	0.021543
01845	-9.816791	0.130989	-0.669252	0.012441	0.418993	0.034257
01846	-9.805186	0.101168	-0.710589	0.011053	0.439577	0.040946
01847	-9.833166	0.132677	-0.761904	0.017650	0.454644	0.044287
01848	-9.756768	0.118507	-0.858607	0.022385	0.453360	0.045655
01849	-9.774895	0.134853	-0.926399	0.023743	0.446840	0.058014
01850	-9.770633	0.140226	-0.969559	0.023857	0.435764	0.056569
01851	-9.794468	0.175724	-0.946785	0.011777	0.429838	0.049393
01852	-9.780946	0.164375	-1.005287	0.008243	0.438506	0.047435
01853	-9.789604	0.147154	-1.071503	-0.001585	0.442556	0.049647
01854	-9.760382	0.192735	-1.140865	-0.007255	0.427865	0.046131
01855	-9.758235	0.176878	-1.236658	0.002076	0.385234	0.047722
01856	-9.800880	0.260237	-1.193604	0.004076	0.353016	0.020894
01857	-9.766976	0.215540	-1.201746	0.003247	0.340175	-0.013329
01858	-9.739278	0.236467	-1.244284	-0.002585	0.338679	-0.036634
01859	-9.770761	0.189381	-1.219158	0.001193	0.358414	-0.061880
01860	-9.734232	0.172282	-1.263284	-0.000043	0.383534	-0.082105
01861	-9.769836	0.206004	-1.295795	0.022481	0.415404	-0.115417
01862	-9.731787	0.043875	-1.315862	-0.011307	0.459156	-0.106472
01863	-9.753279	0.097878	-1.405574	-0.014069	0.490399	-0.068733
01864	-9.736140	0.075533	-1.469815	-0.003724	0.509615	-0.064841
01865	-10.040061	0.224830	-1.806221	0.023852	0.461543	-0.090047
01866	-9.629410	0.072262	-1.742451	0.030134	0.349430	-0.122305
01867	-9.708897	-0.008244	-1.642923	0.023178	0.305145	-0.104406
01868	-9.743765	0.083966	-1.572732	0.030659	0.319640	-0.082334
01869	-9.739692	0.037301	-1.644551	0.042908	0.349879	-0.083615
01870	-9.697723	0.053529	-1.719706	0.047078	0.361030	-0.083688
01871	-9.679123	0.046258	-1.786660	0.042508	0.355866	-0.081488
01872	-9.694856	0.031517	-1.828782	0.035311	0.332020	-0.080549
01873	-9.667087	0.029589	-1.851007	0.028907	0.309962	-0.075361
01874	-9.639296	-0.111894	-1.840129	0.025435	0.285474	-0.050412
01875	-9.670972	0.000888	-1.858466	0.026995	0.287689	-0.005305
01876	-9.663414	0.017290	-1.903723	0.034712	0.297262	-0.003779
01877	-9.649022	-0.016595	-1.930208	0.029208	0.292440	0.005239
01878	-9.619621	0.006938	-1.965221	0.026869	0.272397	0.003394
01879	-9.649218	-0.000752	-1.968290	0.013437	0.261865	0.005546
01880	-9.641746	0.016877	-2.010590	0.008187	0.263270	0.003582
01881	-9.649327	-0.022693	-2.043413	0.002714	0.267288	-0.000750
01882	-9.635617	-0.017762	-2.028032	-0.000045	0.268114	0.004190
01883	-9.649343	-0.006211	-2.080313	0.001408	0.268386	0.004440
01884	-9.600508	0.006874	-2.087344	-0.001972	0.273231	0.007520
01885	-9.641061	0.016057	-2.077402	-0.008738	0.286091	0.009943
01886	-9.647700	-0.022550	-2.113490	-0.029655	0.308480	0.002149
01887	-9.649494	0.011561	-2.146866	-0.039000	0.336840	-0.001465
01888	-9.609017	0.002501	-2.185946	-0.046995	0.373894	-0.004773
01889	-9.583707	0.021756	-2.271162	-0.029441	0.393723	-0.005962
01890	-9.547782	0.063060	-2.332302	-0.007404	0.387217	0.001586
01891	-9.554466	0.006288	-2.359284	0.007871	0.369563	0.003549
01892	-9.521702	0.030202	-2.400248	0.018499	0.348012	0.008316
01893	-9.513596	0.030555	-2.432172	0.033562	0.322660	0.012329
01894	-9.515891	0.008476	-2.485278	0.031540	0.275346	0.006312
01895	-9.467066	0.020689	-2.488916	0.020797	0.235571	0.001911
01896	-9.518717	0.006106	-2.499598	0.011089	0.209705	-0.006880
01897	-9.543233	0.002417	-2.457274	0.002419	0.208847	-0.005368
01898	-9.595039	-0.012374	-2.468209	0.001166	0.233095	-0.011167
01899	-9.549864	-0.018532	-2.454126	-0.004944	0.262556	-0.015731
01900	-9.575897	-0.010252	-2.477223	-0.015930	0.297236	-0.019082
01901	-9.544326	-0.043472	-2.535462	-0.031142	0.327255	-0.021706
01902	-9.520399	-0.042845	-2.598550	-0.037203	0.347086	-0.014917
01903	-9.486784	-0.019402	-2.637980	-0.046734	0.356191	-0.013113
01904	-9.492791	-0.021050	-2.641209	-0.055831	0.361277	-0.018001
01905	-9.488349	-0.025820	-2.717525	-0.059805	0.368235	-0.016086
01906	-9.530302	-0.035233	-2.703388	-0.065475	0.394417	-0.020413
01907	-9.498222	-0.028830	-2.731666	-0.067514	0.432589	-0.014127
01908	-9.485688	-0.028416	-2.774888	-0.071212	0.477702	-0.017377
01909	-9.455731	-0.026261	-2.852028	-0.075660	0.506853	-0.015309
01910	-9.432356	-0.058963	-2.898060	-0.104210	0.525090	-0.025873
01911	-9.421365	-0.007304	-2.967408	-0.130602	0.536272	-0.030404
01912	-9.364022	0.019209	-3.053019	-0.141305	0.539334	-0.035138
01913	-9.343303	0.037817	-3.119789	-0.117202	0.537446	-0.027891
01914	-9.322392	0.056223	-3.185667	-0.078157	0.523722	-0.020520
01915	-9.314401	0.021335	-3.201197	-0.044552	0.512767	-0.014760
01916	-9.297942	0.021135	-3.248691	-0.031636	0.508120	-0.015926
01917	-9.278553	0.024861	-3.253917	-0.026826	0.508261	-0.016872
01918	-9.309116	-0.010580	-3.351886	-0.025889	0.517993	-0.026838
01919	-9.256067	-0.017337	-3.359080	-0.037255	0.521235	-0.028392
01920	-9.230178	-0.052020	-3.403755	-0.042895	0.508649	-0.029918
