// General information: 
//  MT Manager version: 2019.2.0 
//  XDA version: 2019.2.0 build 3853 rev 94535 built on 2019-09-09
// Device information: 
//  DeviceId: 00B44113
//  ProductCode: MTW2-3A7G6
//  Firmware Version: 4.3.5
//  Hardware Version: 1.1.0
// Device settings: 
//  Filter Profile: human(46.1)
//  Option Flags: Orientation Smoother Disabled, AHS Disabled, ICC Disabled
// Coordinate system: ENU
PacketCounter	Acc_X	Acc_Y	Acc_Z	Gyr_X	Gyr_Y	Gyr_Z
52480	9.833141	0.193429	-0.077235	0.005906	0.002599	-0.003002
52481	9.832082	0.226831	-0.060017	0.005358	0.002450	-0.004253
52482	9.835807	0.217632	-0.068008	0.005934	0.002571	-0.003619
52483	9.840420	0.207465	-0.085666	0.005934	0.002571	-0.003619
52484	9.835773	0.219548	-0.066741	0.005900	0.003118	-0.004887
52485	9.834869	0.221390	-0.056535	0.006087	0.001393	-0.002932
52486	9.843053	0.232845	-0.075922	0.005928	0.003089	-0.005503
52487	9.835715	0.222641	-0.065048	0.005330	0.002478	-0.003638
52488	9.835698	0.223513	-0.064598	0.006719	0.001458	-0.003530
52489	9.839434	0.214295	-0.072620	0.006475	0.003239	-0.004253
52490	9.838532	0.215993	-0.062323	0.005969	0.002025	-0.002352
52491	9.841187	0.214017	-0.090914	0.006025	0.001968	-0.003584
52492	9.828126	0.222041	-0.082248	0.006328	0.003899	-0.003057
52493	9.842048	0.239815	-0.062003	0.006447	0.003267	-0.003637
52494	9.842033	0.240627	-0.061244	0.005815	0.003203	-0.003040
52495	9.840251	0.218059	-0.078474	0.006179	0.000791	-0.002897
52496	9.832925	0.207386	-0.067938	0.005365	0.001932	-0.002371
52497	9.843098	0.210154	-0.076599	0.005422	0.001875	-0.003603
52498	9.838423	0.222114	-0.057853	0.005935	0.002571	-0.003621
52499	9.850379	0.223375	-0.085650	0.005900	0.003116	-0.004889
52500	9.846780	0.227984	-0.046178	0.005815	0.003203	-0.003041
52501	9.838372	0.224927	-0.055661	0.007655	0.003455	-0.003602
52502	9.846567	0.236108	-0.074931	0.007205	0.002184	-0.002932
52503	9.833726	0.212395	-0.073184	0.005815	0.003203	-0.003041
52504	9.838146	0.233923	-0.083827	0.005901	0.003116	-0.004890
52505	9.834599	0.213251	-0.081356	0.006362	0.003355	-0.001791
52506	9.842976	0.217853	-0.070476	0.006055	0.001939	-0.004201
52507	9.843857	0.218035	-0.079641	0.005992	0.002513	-0.004854
52508	9.839151	0.230411	-0.060617	0.006351	0.004386	-0.005561
52509	9.833631	0.218158	-0.068896	0.005849	0.002659	-0.001773
52510	9.843815	0.220699	-0.077384	0.005274	0.002536	-0.002408
52511	9.851114	0.232716	-0.087008	0.007747	0.002853	-0.003566
52512	9.843959	0.215674	-0.045850	0.005787	0.003233	-0.002426
52513	9.823395	0.218885	-0.057179	0.005964	0.002542	-0.004238
52514	9.851076	0.235141	-0.084800	0.005633	0.004409	-0.003116
52515	9.840868	0.234000	-0.074885	0.005964	0.002542	-0.004238
52516	9.831560	0.232140	-0.074883	0.005993	0.002512	-0.004855
52517	9.838219	0.213789	-0.081792	0.006147	0.001336	-0.004165
52518	9.840182	0.206344	-0.070421	0.005815	0.003204	-0.003043
52519	9.829979	0.204890	-0.060712	0.005941	0.002058	-0.001737
52520	9.853868	0.231170	-0.079788	0.007410	0.005235	-0.004332
52521	9.833458	0.228145	-0.060762	0.006056	0.001939	-0.004202
52522	9.852005	0.235120	-0.058979	0.007081	0.003333	-0.004239
52523	9.824137	0.227145	-0.060104	0.007235	0.002157	-0.003549
52524	9.846493	0.223697	-0.066903	0.004700	0.002413	-0.003044
52525	9.838111	0.220671	-0.076437	0.005782	0.003747	-0.004314
52526	9.849355	0.216229	-0.064319	0.005999	0.001999	-0.002970
52527	9.843873	0.203706	-0.072703	0.006298	0.003932	-0.002447
52528	9.819510	0.217150	-0.075252	0.006323	0.004414	-0.004950
52529	9.835161	0.233402	-0.074438	0.005936	0.002572	-0.003623
52530	9.838041	0.225033	-0.072569	0.006448	0.003269	-0.003643
52531	9.837104	0.226956	-0.062065	0.005782	0.003747	-0.004315
52532	9.853082	0.211441	-0.068175	0.006120	0.001366	-0.003548
52533	9.819566	0.215327	-0.041714	0.006574	0.002124	-0.002335
52534	9.895126	0.188733	-0.119578	0.005623	0.005433	-0.006894
52535	9.830510	0.225630	-0.088709	0.006532	0.003689	-0.007378
52536	9.837454	0.195597	-0.034121	0.004707	0.008200	-0.010184
52537	9.855238	0.254741	-0.115377	0.005229	0.004614	-0.009340
52538	9.834465	0.209385	-0.032485	0.006194	0.006070	-0.008147
52539	9.813405	0.251538	-0.067098	0.006084	0.002421	-0.006705
52540	9.845420	0.220178	-0.079872	0.006658	0.002546	-0.006070
52541	9.846869	0.251355	-0.091835	0.005841	0.003687	-0.005549
52542	9.815513	0.234851	0.006555	0.006230	0.005018	-0.004991
52543	9.840755	0.215993	-0.126227	0.006000	0.002002	-0.002969
52544	9.857534	0.218346	-0.074709	0.005630	0.004413	-0.003123
52545	9.826892	0.213159	-0.046570	0.006478	0.003241	-0.004260
52546	9.844376	0.227561	-0.065327	0.006693	0.002005	-0.004799
52547	9.851021	0.215430	-0.102323	0.007237	0.002162	-0.003548
52548	9.828296	0.245823	-0.057832	0.004885	0.001210	-0.002969
52549	9.839427	0.247752	-0.075982	0.006989	0.003939	-0.004280
52550	9.862230	0.212865	-0.089143	0.007267	0.002131	-0.004164
52551	9.823860	0.228252	-0.044387	0.007082	0.003337	-0.004242
52552	9.842814	0.203446	-0.049096	0.005907	0.002606	-0.003009
52553	9.849997	0.221793	-0.089099	0.006030	0.001972	-0.003586
52554	9.841746	0.212466	-0.068595	0.006571	0.002639	-0.004223
52555	9.807729	0.248308	-0.035269	0.005752	0.003780	-0.003703
52556	9.868493	0.230534	-0.085928	0.006604	0.002099	-0.002951
52557	9.831988	0.243832	-0.060342	0.005597	0.004953	-0.004398
52558	9.834398	0.204865	-0.054974	0.005149	0.003684	-0.003723
52559	9.839696	0.225262	-0.075454	0.005334	0.002479	-0.003644
52560	9.846479	0.206679	-0.082049	0.006541	0.002670	-0.003607
52561	9.827549	0.227060	-0.045906	0.006664	0.002036	-0.004184
52562	9.832274	0.223012	-0.093770	0.007238	0.002164	-0.003549
52563	9.845968	0.241152	-0.073850	0.006449	0.003273	-0.003646
52564	9.844046	0.244285	-0.053547	0.005657	0.004890	-0.005633
52565	9.841494	0.229068	-0.090831	0.006094	0.001402	-0.002931
52566	9.847336	0.211630	-0.087820	0.005936	0.003082	-0.005515
52567	9.825928	0.209716	-0.059194	0.006356	0.003876	-0.003687
52568	9.853710	0.219678	-0.056720	0.005428	0.001877	-0.003606
52569	9.835626	0.245298	-0.060552	0.006572	0.002639	-0.004224
52570	9.849717	0.238043	-0.077280	0.005752	0.003780	-0.003706
52571	9.836543	0.246222	-0.068725	0.005969	0.002543	-0.004243
52572	9.846285	0.218543	-0.074256	0.006248	0.000736	-0.004124
52573	9.846266	0.219571	-0.073737	0.005782	0.003748	-0.004323
52574	9.835071	0.219456	-0.054331	0.006001	0.002005	-0.002971
52575	9.836971	0.218298	-0.073209	0.006062	0.001941	-0.004204
52576	9.831592	0.205902	-0.081611	0.005815	0.003210	-0.003051
52577	9.838407	0.243441	-0.054534	0.005304	0.002512	-0.003030
52578	9.845172	0.231098	-0.091343	0.005999	0.002511	-0.004860
52579	9.833967	0.231136	-0.072024	0.005938	0.002576	-0.003628
52580	9.836895	0.222718	-0.070067	0.006418	0.003307	-0.003033
52581	9.839770	0.220531	-0.098374	0.005969	0.002543	-0.004244
52582	9.832470	0.210395	-0.087441	0.006603	0.002607	-0.004841
52583	9.842731	0.207216	-0.065535	0.007022	0.003404	-0.003014
52584	9.848069	0.221330	-0.055716	0.004545	0.003588	-0.003747
52585	9.834830	0.235730	-0.077487	0.005397	0.002414	-0.004880
52586	9.836790	0.228576	-0.065881	0.006449	0.003275	-0.003650
52587	9.840690	0.219201	-0.073559	0.007146	0.002769	-0.003590
52588	9.841689	0.212775	-0.052333	0.005274	0.002545	-0.002415
52589	9.854858	0.206151	-0.059415	0.006387	0.003340	-0.002418
52590	9.830424	0.219458	-0.062582	0.006125	0.001875	-0.005437
52591	9.843019	0.245109	-0.063296	0.005148	0.003684	-0.003730
52592	9.836693	0.233811	-0.061870	0.006574	0.002640	-0.004226
52593	9.844925	0.244960	-0.081199	0.005846	0.003178	-0.003670
52594	9.838603	0.233656	-0.079759	0.006480	0.003242	-0.004267
52595	9.844500	0.215951	-0.076386	0.006960	0.003471	-0.001783
52596	9.836233	0.206659	-0.055519	0.006448	0.003778	-0.005541
52597	9.836213	0.207776	-0.054855	0.005430	0.001877	-0.003607
52598	9.851753	0.223954	-0.054692	0.008125	0.000458	-0.003407
52599	9.843458	0.220642	-0.064564	0.004608	0.003018	-0.003093
52600	9.849739	0.233883	-0.064610	0.006002	0.002510	-0.004862
52601	9.839459	0.239131	-0.085179	0.005908	0.003112	-0.004904
52602	9.835125	0.219736	-0.072767	0.006449	0.003276	-0.003652
52603	9.844366	0.223609	-0.071398	0.005815	0.003212	-0.003055
52604	9.834119	0.222357	-0.061534	0.004514	0.003620	-0.003135
52605	9.831144	0.232386	-0.062174	0.006637	0.002071	-0.003569
52606	9.846290	0.224016	-0.088627	0.005877	0.003145	-0.004288
52607	9.861832	0.234133	-0.057770	0.005274	0.002547	-0.002417
52608	9.828132	0.244106	-0.061536	0.006449	0.003276	-0.003653
52609	9.842309	0.230771	-0.047963	0.005971	0.002543	-0.004247
52610	9.849199	0.218348	-0.084514	0.006990	0.003942	-0.004292
52611	9.844243	0.230744	-0.065449	0.006199	0.005049	-0.004395
52612	9.841896	0.209241	-0.072162	0.006575	0.002640	-0.004228
52613	9.837924	0.220388	-0.063364	0.006097	0.001406	-0.002931
52614	9.854434	0.235393	-0.072592	0.005815	0.003213	-0.003057
52615	9.840220	0.244405	-0.054606	0.006003	0.002009	-0.002973
52616	9.826653	0.227793	-0.073295	0.005369	0.002445	-0.004267
52617	9.845134	0.234892	-0.071567	0.006035	0.001975	-0.003589
52618	9.853043	0.215366	-0.087542	0.006418	0.003810	-0.004929
52619	9.832540	0.212502	-0.068573	0.004577	0.003552	-0.004371
52620	9.838799	0.225761	-0.068582	0.005337	0.002480	-0.003651
52621	9.842081	0.248216	-0.070076	0.004765	0.002348	-0.004287
52622	9.824550	0.235904	-0.049979	0.007022	0.003409	-0.003019
52623	9.826529	0.234470	-0.068661	0.006004	0.002010	-0.002973
52624	9.840737	0.226832	-0.085398	0.006387	0.003346	-0.002422
52625	9.838411	0.199121	-0.061818	0.006991	0.003942	-0.004295
52626	9.838715	0.230619	-0.064438	0.007085	0.002842	-0.002361
52627	9.853902	0.215994	-0.060880	0.006414	-0.000433	-0.003419
52628	9.824168	0.215734	-0.073342	0.005149	0.003683	-0.003737
52629	9.838657	0.233560	-0.062700	0.007469	0.005673	-0.007486
52630	9.847876	0.238015	-0.060975	0.005149	0.003684	-0.003738
52631	9.844601	0.223756	-0.088105	0.005627	0.005414	-0.006929
52632	9.845547	0.218733	-0.065003	0.006717	0.014732	-0.009344
52633	9.840549	0.238784	-0.073634	0.007927	0.015924	-0.013090
52634	9.877371	0.233437	-0.271010	0.009328	0.028403	-0.005780
52635	9.865846	0.186730	-0.140655	0.009334	0.112094	-0.015573
52636	9.857051	0.237340	-0.058913	0.045083	0.122008	-0.018369
52637	9.933328	0.232414	-0.307142	0.073256	0.196310	-0.013978
52638	9.919898	0.251806	-0.244292	0.039772	0.341746	-0.022480
52639	9.880543	0.271949	0.025526	-0.021117	0.452166	-0.026159
52640	9.835139	0.245064	0.278416	-0.040806	0.487532	-0.027729
52641	9.819780	0.226358	0.391391	-0.021322	0.500535	-0.031594
52642	9.840132	0.251767	0.506529	0.008456	0.499199	-0.033614
52643	9.875066	0.273087	0.452208	-0.004533	0.551871	-0.036468
52644	9.882730	0.281205	0.506523	-0.038172	0.671729	-0.046924
52645	9.739697	0.307974	1.159309	-0.050562	0.706234	-0.049092
52646	9.713582	0.327134	1.437173	-0.051505	0.599643	-0.038395
52647	9.675629	0.288575	1.627025	-0.005987	0.456475	-0.030100
52648	9.769685	0.284442	1.331660	0.060443	0.378410	-0.019354
52649	9.851825	0.341422	1.119771	0.038654	0.473655	-0.021604
52650	9.751805	0.344514	1.513754	-0.022052	0.594882	-0.030042
52651	9.599567	0.346808	2.074834	-0.018514	0.536299	-0.025543
52652	9.650032	0.328602	2.018315	0.016197	0.404005	-0.016699
52653	9.754942	0.292085	1.648720	0.062368	0.435740	-0.014791
52654	9.672000	0.323480	1.912548	0.040237	0.564146	-0.032510
52655	9.566029	0.362218	2.368546	0.063894	0.538880	-0.027227
52656	9.620400	0.375804	2.222135	0.097564	0.522399	-0.011372
52657	9.584230	0.377062	2.374837	0.064072	0.586966	-0.017878
52658	9.468108	0.409487	2.837775	0.015261	0.570759	-0.027731
52659	9.435383	0.400165	2.932591	0.009174	0.468253	-0.019900
52660	9.508583	0.374678	2.673394	0.005344	0.450734	-0.016890
52661	9.500347	0.388539	2.717985	-0.011771	0.561107	-0.024978
52662	9.326518	0.388603	3.343172	-0.015334	0.569303	-0.021441
52663	9.283978	0.397702	3.480363	-0.006547	0.427765	-0.017114
52664	9.348418	0.397582	3.221933	-0.001486	0.406401	-0.014896
52665	9.373629	0.402802	3.112863	0.008411	0.473061	-0.012018
52666	9.279806	0.404731	3.396058	0.015702	0.569519	-0.009701
52667	9.160010	0.423618	3.801908	0.038931	0.580035	-0.002701
52668	9.080517	0.417813	3.986734	0.065951	0.479653	0.008632
52669	9.160834	0.400206	3.682613	0.055884	0.470573	0.009792
52670	9.100812	0.407421	3.863208	0.039663	0.577470	0.005777
52671	8.777054	0.405240	4.974965	0.055941	0.437137	0.012670
52672	8.958868	0.426909	4.252750	0.049493	0.199663	0.011889
52673	9.049382	0.427381	3.892622	0.048137	0.291902	0.013303
52674	8.963776	0.408774	4.219413	0.035621	0.390872	0.007399
52675	8.831984	0.395923	4.531025	0.015963	0.383052	-0.004672
52676	8.806404	0.398813	4.664402	0.017870	0.313413	-0.004061
52677	8.823221	0.402531	4.524874	0.025130	0.269598	0.001714
52678	8.836546	0.403980	4.416349	0.021168	0.303146	-0.002274
52679	8.869148	0.413684	4.202872	0.002339	0.457964	-0.011032
52680	8.634144	0.405720	4.998046	-0.002350	0.546566	-0.016431
52681	8.593981	0.452738	5.060539	0.008681	0.413381	-0.009031
52682	8.631735	0.423380	4.799696	0.014560	0.472639	-0.002376
52683	8.491109	0.417722	5.187150	0.012591	0.474961	-0.004396
52684	8.487424	0.410740	5.158736	0.002726	0.470123	-0.006858
52685	8.370278	0.424667	5.360773	0.001175	0.456622	-0.004790
52686	8.342306	0.424194	5.429113	0.002894	0.431628	-0.003375
52687	8.305857	0.454050	5.404465	0.019187	0.435694	0.007405
52688	8.221523	0.447651	5.580874	0.035877	0.452751	0.020692
52689	8.156324	0.414517	5.727752	0.027849	0.437450	0.017405
52690	8.094129	0.402323	5.838205	0.006912	0.391154	0.006180
52691	8.071367	0.423434	5.782300	-0.009521	0.380839	0.007067
52692	7.972431	0.395692	6.051037	-0.011675	0.372246	0.009792
52693	7.884729	0.401940	6.280872	-0.008994	0.271266	0.004992
52694	7.899779	0.427877	6.079924	-0.002745	0.172865	0.003387
52695	7.913970	0.405162	6.033342	-0.000844	0.171865	0.007553
52696	7.905631	0.426997	6.065940	0.001672	0.168839	0.010912
52697	7.879598	0.371701	6.066797	0.001105	0.168021	0.009409
52698	7.833213	0.383033	6.146598	-0.004646	0.170007	0.004769
52699	7.788747	0.364186	6.285431	-0.002631	0.140227	0.004298
52700	7.817329	0.384910	6.169499	0.000180	0.094689	0.001004
52701	7.855440	0.416513	5.993083	-0.003630	0.156347	0.004266
52702	7.809840	0.400030	6.086535	-0.008908	0.225463	0.008513
52703	7.724072	0.375041	6.271772	-0.011477	0.257392	0.011613
52704	7.712421	0.386624	6.238682	-0.017889	0.283287	0.013246
52705	7.656087	0.356208	6.378316	-0.022124	0.319000	0.014346
52706	7.568086	0.330394	6.545211	-0.022192	0.300475	0.013389
52707	7.488270	0.331482	6.686711	-0.016401	0.232857	0.009135
52708	7.597494	0.376255	6.284518	-0.015895	0.255903	0.011370
52709	7.448324	0.330721	6.675857	-0.022089	0.316715	0.013360
52710	7.313584	0.283437	7.018742	-0.009511	0.205932	0.006201
52711	7.399773	0.330035	6.701947	-0.001046	0.107371	0.001026
52712	7.425089	0.326627	6.583438	-0.002772	0.145828	0.000109
52713	7.345791	0.311958	6.796881	-0.004287	0.173078	0.000880
52714	7.248483	0.297040	7.038856	0.002476	0.080579	-0.001059
52715	7.324961	0.316148	6.776548	0.006318	0.009487	-0.001933
52716	7.372927	0.340266	6.594694	0.003691	0.046148	-0.000282
52717	7.379984	0.341330	6.604668	-0.001669	0.123686	-0.001074
52718	7.280509	0.326748	6.819621	-0.000119	0.159325	-0.002201
52719	7.209465	0.302711	7.025511	0.000411	0.122867	-0.000752
52720	7.139591	0.290977	7.165777	0.006928	-0.015793	-0.002702
52721	7.297612	0.323534	6.699155	0.008412	-0.071008	-0.003485
52722	7.278987	0.324681	6.812955	0.007441	-0.024564	-0.002553
52723	7.286105	0.321990	6.765830	0.009332	-0.028374	-0.002497
52724	7.340679	0.328675	6.643541	0.006557	0.018812	-0.003863
52725	7.316169	0.319046	6.742687	0.004714	0.076252	-0.001540
52726	7.233575	0.304234	6.939193	0.003738	0.078855	-0.001697
52727	7.272629	0.306646	6.793026	0.004674	0.043504	-0.001533
52728	7.319510	0.303094	6.602013	0.002195	0.115519	-0.002373
52729	7.232918	0.303933	6.851264	0.001360	0.188482	-0.004015
52730	7.164190	0.323917	7.004869	0.002355	0.166726	-0.005175
52731	7.056802	0.324651	7.254457	0.005896	0.095562	-0.003933
52732	7.120816	0.306726	7.070457	0.005544	-0.015169	-0.001313
52733	7.214364	0.321245	6.789119	0.005619	0.011881	-0.003941
52734	7.180225	0.317865	6.905283	0.006684	0.066887	-0.004109
52735	7.103696	0.302867	7.119185	0.006488	0.040760	-0.004419
52736	7.090542	0.311416	7.085971	0.006235	-0.036911	-0.000470
52737	7.202148	0.323253	6.844806	0.006851	-0.038316	-0.001345
52738	7.202741	0.333834	6.839541	0.006719	0.017784	-0.002253
52739	7.156280	0.314889	6.973642	0.006929	0.052461	-0.004604
52740	7.093586	0.334665	7.075214	0.005359	-0.002262	-0.001946
52741	7.165653	0.307312	6.915827	0.006665	-0.010142	-0.000837
52742	7.142341	0.308239	6.950184	0.006197	0.011137	-0.004935
52743	7.151103	0.321218	6.978661	0.004715	0.008343	-0.003840
52744	7.152802	0.313729	6.954204	0.006399	0.007825	-0.004343
52745	7.143477	0.312356	6.977758	0.007323	0.006779	-0.003066
52746	7.165292	0.319368	6.928969	0.006613	0.014115	-0.003816
52747	7.121905	0.318524	7.023265	0.006079	0.014206	-0.002709
52748	7.154187	0.305863	6.974693	0.006290	0.000419	-0.003281
52749	7.133391	0.306512	6.979247	0.005564	-0.005574	-0.001347
52750	7.166448	0.307003	6.909498	0.005614	0.003367	-0.001297
52751	7.118120	0.302575	6.995736	0.004474	0.012323	-0.004557
52752	7.127318	0.320030	7.035023	0.006725	-0.016475	-0.001902
52753	7.152323	0.314035	6.947323	0.006486	-0.031494	-0.001125
52754	7.188286	0.314629	6.874477	0.005791	-0.004954	-0.002022
52755	7.156899	0.303170	6.935760	0.006593	0.019786	-0.002631
52756	7.154437	0.295766	6.942803	0.006185	0.021615	-0.003786
52757	7.159746	0.313397	6.986064	0.005793	0.018849	-0.003554
52758	7.142493	0.317524	6.972913	0.005268	0.027469	-0.005106
52759	7.130507	0.325088	6.967447	0.005269	0.027474	-0.005107
52760	7.157795	0.312760	6.951284	0.007298	0.021865	-0.003301
52761	7.131589	0.309414	6.977128	0.007697	0.029444	-0.003576
52762	7.145332	0.290773	6.948742	0.008266	0.038101	-0.005997
52763	7.113219	0.302209	6.987154	0.010403	0.048239	-0.009278
52764	7.126520	0.306523	6.990152	0.010199	0.041954	-0.009799
52765	7.116357	0.302233	6.949166	0.013625	0.049890	-0.010761
52766	7.034208	0.370959	7.153584	0.013207	0.043192	-0.009254
52767	7.126981	0.305207	6.943724	0.004972	0.004383	-0.003120
52768	7.130093	0.289632	6.869041	0.014955	0.064803	-0.013797
52769	7.089869	0.334508	7.050514	0.018989	0.094801	-0.019921
52770	7.036334	0.342552	7.110454	0.014253	0.067202	-0.015898
52771	7.036944	0.345561	7.084603	0.011810	0.038925	-0.009282
52772	7.089319	0.304571	6.954514	0.013432	0.054213	-0.010172
52773	7.049744	0.340627	7.056529	0.020424	0.095363	-0.018683
52774	7.031876	0.347583	7.100591	0.017396	0.075561	-0.019169
52775	7.036571	0.320555	7.020590	0.018667	0.106135	-0.024000
52776	7.076126	0.297760	6.939915	0.028543	0.170025	-0.036773
52777	6.967106	0.371259	7.127295	0.037537	0.231215	-0.049620
52778	6.732129	0.515183	7.700415	0.015254	0.114400	-0.027777
52779	6.899703	0.386930	7.201525	0.010285	0.014509	-0.001362
52780	6.936376	0.396008	7.155411	0.018790	0.012518	0.008703
52781	6.939892	0.400524	7.138497	0.015088	0.048182	0.009570
52782	6.926089	0.401253	7.177918	0.012357	0.072221	0.014819
52783	6.980354	0.376100	7.028925	0.022864	0.118835	0.031366
52784	6.872481	0.368739	7.202676	0.006520	0.213056	0.022050
52785	6.843086	0.356364	7.237109	0.000514	0.213170	0.009198
52786	6.817944	0.357172	7.249613	-0.001300	0.254396	0.000852
52787	6.776464	0.369090	7.323700	0.006301	0.297222	0.001143
52788	6.674332	0.373702	7.395332	0.018126	0.318607	0.006355
52789	6.621050	0.361188	7.463917	0.012049	0.334469	0.001812
52790	6.538889	0.392968	7.519301	0.011992	0.341301	0.000444
52791	6.480864	0.389256	7.585570	0.030106	0.340448	0.025430
52792	6.432047	0.340357	7.589125	0.032738	0.356105	0.023282
52793	6.390119	0.347566	7.601214	0.007785	0.392660	-0.007944
52794	6.298879	0.360267	7.720823	-0.004774	0.435725	-0.021749
52795	6.190062	0.409867	7.833331	-0.001764	0.438961	-0.013167
52796	6.208080	0.405526	7.738019	0.019193	0.482226	0.012830
52797	6.009890	0.328585	7.925785	0.016986	0.545204	0.007975
52798	5.898250	0.383196	8.034500	-0.001044	0.570568	-0.013224
52799	5.744596	0.389115	8.210773	0.008513	0.558678	0.000425
52800	5.751939	0.490939	8.080428	0.038738	0.541975	0.052067
52801	5.618882	0.320846	8.161816	0.075708	0.623988	0.111228
52802	5.307705	0.317450	8.536331	0.023612	0.633054	0.025583
52803	5.177576	0.331424	8.668625	0.011160	0.530891	0.008567
52804	5.127312	0.419613	8.631433	0.004947	0.449466	-0.002396
52805	5.186257	0.425992	8.540818	0.043022	0.429235	0.072307
52806	4.997392	0.307685	8.645612	0.036660	0.455928	0.056673
52807	4.846548	0.290849	8.836200	0.002598	0.425835	-0.001186
52808	4.775736	0.368612	8.889510	-0.007369	0.344990	-0.019705
52809	4.796471	0.390004	8.776166	-0.002456	0.313047	-0.003452
52810	4.751058	0.410023	8.761343	0.017868	0.335684	0.031206
52811	4.676945	0.329956	8.811985	0.022254	0.356510	0.036585
52812	4.585525	0.441755	8.891641	0.025423	0.370219	0.044079
52813	4.555073	0.344431	8.829915	0.046700	0.394041	0.087938
52814	4.425472	0.269977	8.899648	0.024520	0.457754	0.048782
52815	4.245688	0.353359	9.067542	0.001787	0.482162	-0.001258
52816	4.141511	0.368797	9.176103	0.013380	0.431865	0.024398
52817	4.129569	0.371320	9.056459	0.011730	0.435156	0.018325
52818	3.989466	0.383587	9.176215	0.018556	0.454630	0.042064
52819	3.845934	0.276414	9.287667	0.004156	0.442652	0.004823
52820	3.777549	0.353614	9.287974	-0.004918	0.424908	-0.021852
52821	3.630235	0.352322	9.440372	-0.009476	0.372722	-0.021068
52822	3.630015	0.358102	9.347595	-0.003296	0.340212	-0.002950
52823	3.585717	0.321150	9.296214	0.000482	0.353812	-0.002454
52824	3.465814	0.337462	9.385704	-0.002943	0.366380	-0.013729
52825	3.343400	0.349963	9.464574	-0.006237	0.343962	-0.014638
52826	3.316675	0.351761	9.456715	-0.005489	0.335139	-0.009815
52827	3.249506	0.362424	9.487664	-0.000357	0.336385	0.001878
52828	3.166609	0.388785	9.526326	0.011757	0.330483	0.034625
52829	3.040827	0.259249	9.560072	0.011540	0.317104	0.024494
52830	2.984872	0.319401	9.577419	0.000288	0.304284	-0.004617
52831	2.916407	0.327020	9.617448	0.000541	0.297631	-0.009471
52832	2.826236	0.361774	9.714186	0.001206	0.253401	-0.007543
52833	2.866551	0.355838	9.533386	0.003637	0.251992	-0.000353
52834	2.876387	0.321077	9.435781	-0.000486	0.328221	-0.004947
52835	2.689028	0.344876	9.598094	-0.003255	0.413965	-0.008336
52836	2.522438	0.310379	9.755710	-0.001949	0.384961	0.000368
52837	2.438597	0.326130	9.792316	0.000898	0.333650	0.003510
52838	2.421946	0.322807	9.666370	0.002741	0.338276	0.009665
52839	2.342827	0.327888	9.726571	0.001867	0.349628	0.006763
52840	2.227451	0.365473	9.778104	0.000702	0.340588	0.016150
52841	2.211768	0.333805	9.716129	0.005271	0.355360	0.037469
52842	2.117797	0.251520	9.715695	0.005446	0.387047	0.022741
52843	2.034686	0.243931	9.696187	-0.000682	0.434216	-0.017112
52844	1.934636	0.278561	9.704914	-0.011003	0.510075	-0.046348
52845	1.704757	0.354873	9.938820	-0.008109	0.535218	-0.032418
52846	1.478454	0.324696	10.113796	-0.003989	0.460976	-0.019180
52847	1.379075	0.276942	10.115011	0.000836	0.344054	-0.014767
52848	1.387779	0.364575	10.055885	-0.001364	0.243091	-0.014237
52849	1.366071	0.308115	9.958005	0.001566	0.187256	-0.007290
52850	1.381256	0.258136	9.887308	0.000028	0.195992	-0.025171
52851	1.335159	0.296438	9.911146	-0.002674	0.217297	-0.041429
52852	1.253076	0.319377	9.962959	0.003317	0.219299	-0.021062
52853	1.175193	0.291108	9.991800	0.002238	0.203929	-0.022560
52854	1.168007	0.363054	9.949000	0.013380	0.189196	0.002295
52855	1.117735	0.289940	9.942796	0.035575	0.206288	0.049520
52856	1.045658	0.348795	9.969155	0.007728	0.193970	0.017223
52857	1.070470	0.370133	9.954980	-0.009975	0.199903	0.033989
52858	0.913708	0.401947	10.082318	-0.003835	0.171545	0.064939
52859	0.951389	0.146809	9.985178	0.006261	0.140106	0.074948
52860	0.933484	0.224815	9.895933	0.003268	0.152060	0.008382
52861	0.936350	0.249904	9.849155	-0.002255	0.206216	-0.013208
52862	0.609942	0.306523	10.442901	-0.005646	0.057852	-0.021872
52863	0.854557	0.313043	9.931435	-0.033197	0.054625	-0.022810
52864	0.817269	0.367521	9.971569	-0.024736	0.057258	0.000704
52865	0.824573	0.507405	9.937192	-0.056504	0.099144	0.090416
52866	0.745031	0.230183	10.015914	-0.081927	0.094571	0.174316
52867	0.784799	0.091606	9.969554	-0.081443	0.111026	0.098682
52868	0.761841	0.143504	9.944265	-0.083551	0.110946	0.018497
52869	0.614713	0.050411	10.129128	-0.032992	0.116899	-0.003978
52870	0.678114	0.156970	10.009700	0.027270	0.081304	-0.004524
52871	0.704033	0.176522	9.955662	0.027947	0.087613	-0.007391
52872	0.702478	0.158305	9.896634	0.056135	0.174528	-0.008893
52873	0.369367	0.272708	10.243692	0.020800	0.042525	-0.006074
52874	0.585843	0.200579	9.988785	0.007031	0.003956	-0.001786
52875	0.578718	0.224923	9.990285	0.003358	0.002380	-0.001632
52876	0.555751	0.231145	10.049636	-0.000761	-0.018611	-0.001062
52877	0.581333	0.217552	10.023904	0.000042	-0.023808	0.000350
52878	0.511284	0.231320	10.107584	-0.022669	-0.097362	0.006712
52879	0.762058	0.130648	9.858025	-0.019481	-0.088139	0.015735
52880	0.688125	0.155119	9.969343	0.000513	-0.008566	0.001126
52881	0.731796	0.169700	9.914249	0.016555	0.036450	-0.001644
52882	0.653684	0.191044	9.980159	0.029401	0.081799	0.000271
52883	0.535902	0.202257	10.111161	0.018923	0.047636	-0.002259
52884	0.671598	0.186007	9.936406	0.008995	0.015184	-0.003764
52885	0.534439	0.197513	10.086702	0.031439	0.093409	-0.014533
52886	0.597209	0.237324	9.993449	0.007867	0.003810	-0.000847
52887	0.611874	0.174932	10.029004	0.006197	0.004083	-0.002720
52888	0.576400	0.197359	10.009250	0.006670	0.004913	-0.001532
52889	0.583782	0.181482	9.995393	0.006173	0.004164	-0.001855
52890	0.595010	0.206498	10.007963	0.006773	0.005645	-0.002543
52891	0.577777	0.232859	10.008417	0.007112	0.004759	-0.001928
52892	0.603724	0.220958	10.014786	0.006954	0.003126	-0.001636
52893	0.561769	0.203828	9.999276	0.005181	0.002665	-0.002499
52894	0.604994	0.179492	10.011029	0.006307	0.005876	-0.001281
52895	0.577310	0.191378	9.995584	0.006978	0.003040	-0.002501
52896	0.585042	0.201934	10.023939	0.006040	0.002443	-0.002426
52897	0.586021	0.212482	10.020595	0.006174	0.004159	-0.001853
52898	0.596484	0.221480	10.018260	0.006119	0.003258	-0.002572
52899	0.592744	0.198314	10.006776	0.007892	0.003718	-0.001709
52900	0.584212	0.210731	10.002410	0.006875	0.002305	-0.001488
52901	0.601515	0.193199	9.989588	0.005340	0.004292	-0.002790
52902	0.579467	0.188814	9.990971	0.006199	0.004071	-0.002718
52903	0.597631	0.187383	9.993020	0.007033	0.003935	-0.001780
52904	0.585741	0.201120	10.019371	0.006253	0.004969	-0.001999
52905	0.605484	0.208594	10.018068	0.006278	0.004884	-0.002864
52906	0.586062	0.206291	9.997850	0.006095	0.003337	-0.001705
52907	0.567173	0.223525	10.001583	0.006774	0.005630	-0.002541
52908	0.600691	0.201069	10.012435	0.006667	0.003829	-0.003978
52909	0.580318	0.205947	10.010432	0.007166	0.005646	-0.001207
52910	0.593831	0.170564	10.004421	0.006042	0.002434	-0.002422
52911	0.562685	0.207136	9.968633	0.005315	0.004369	-0.001924
52912	0.586974	0.209099	10.011527	0.007034	0.003928	-0.001777
52913	0.585678	0.214345	10.020647	0.006563	0.003095	-0.002964
52914	0.587614	0.217978	9.999061	0.006484	0.002279	-0.002817
52915	0.573602	0.203244	10.004814	0.006617	0.003994	-0.002246
52916	0.590953	0.185707	9.992065	0.005626	0.002498	-0.002890
52917	0.590187	0.187098	9.992084	0.005237	0.003551	-0.001776
52918	0.571751	0.204457	9.995745	0.008646	0.001683	-0.003065
52919	0.585546	0.192444	10.022798	0.007140	0.005725	-0.000341
52920	0.580797	0.219130	10.002519	0.006485	0.002275	-0.002815
52921	0.578564	0.208190	9.996826	0.005732	0.004296	-0.001454
52922	0.576138	0.197319	9.991147	0.007060	0.003835	-0.002640
52923	0.593993	0.199430	10.002333	0.006096	0.003326	-0.001702
52924	0.591145	0.192036	10.005759	0.006279	0.004869	-0.002862
52925	0.576342	0.180984	10.020647	0.007998	0.004427	-0.002713
52926	0.588840	0.195894	10.005820	0.007972	0.004513	-0.001848
52927	0.579926	0.208430	10.001406	0.007972	0.004512	-0.001848
52928	0.588972	0.228443	10.026351	0.008102	0.004321	0.005689
52929	0.586613	0.191336	9.978624	0.009041	0.005987	0.008063
52930	0.607880	0.178194	9.997761	0.038305	0.021618	-0.005156
52931	0.565091	0.197863	10.011833	0.012069	0.006816	-0.010934
52932	0.585137	0.157538	10.019606	0.015128	0.007546	-0.030795
52933	0.572873	0.230901	10.024283	0.027663	0.012200	-0.036012
52934	0.560827	0.281144	10.005106	-0.011913	0.001383	-0.018818
52935	0.601590	0.229474	10.005997	0.000798	0.004625	-0.020676
52936	0.694605	0.228199	10.022519	0.003521	0.027019	-0.071926
52937	0.651382	0.197056	10.004661	0.019605	0.131980	0.008400
52938	0.578748	0.186182	10.001504	0.031001	0.194592	0.016641
52939	0.566089	0.200381	9.984134	0.046248	0.251803	0.018609
52940	0.480841	0.210259	9.998972	0.064941	0.335054	0.000060
52941	0.332765	0.266002	10.014882	0.078667	0.403488	-0.019845
52942	0.031854	0.412501	10.082729	0.024700	0.331683	-0.003091
52943	0.357796	0.304499	10.037780	-0.039637	0.341898	0.028258
52944	0.159803	0.276024	10.027966	-0.051486	0.514293	-0.011666
52945	-0.119132	0.250152	9.995499	-0.062777	0.542865	-0.023214
52946	-0.316263	0.195168	9.989690	-0.060445	0.506043	-0.038441
52947	-0.422653	0.188219	9.984238	-0.051781	0.436840	-0.050827
52948	-0.427453	0.199574	9.996213	-0.050806	0.412048	-0.039361
52949	-0.507892	0.172635	10.001018	-0.055450	0.439816	-0.004785
52950	-0.649682	0.184428	9.990558	-0.057246	0.491244	-0.002443
52951	-0.891650	0.134056	9.972610	-0.057575	0.441732	0.017277
52952	-0.913064	0.127219	9.976884	-0.049518	0.365719	0.019048
52953	-0.896931	0.113591	9.981219	-0.046076	0.378012	-0.000718
52954	-0.972585	0.120833	9.991246	-0.056802	0.456676	-0.032476
52955	-1.220808	0.054389	9.946579	-0.063674	0.470580	-0.029729
52956	-1.382641	0.043433	9.897515	-0.032755	0.421717	-0.033291
52957	-1.413734	0.063996	9.889775	-0.012422	0.352686	-0.024592
52958	-1.377753	0.068397	9.907214	-0.004878	0.378432	-0.049975
52959	-1.467635	0.053441	9.901066	-0.006706	0.475393	-0.038112
52960	-1.763453	0.023243	9.841639	-0.004354	0.473488	-0.011298
52961	-1.848372	0.037922	9.822760	0.001507	0.405283	0.006393
52962	-1.880749	0.025868	9.818981	0.008148	0.396391	0.011006
52963	-2.019923	0.082025	9.797705	0.014370	0.384964	-0.022838
52964	-2.063301	0.059268	9.781755	0.000393	0.362277	-0.032003
52965	-2.121926	0.068432	9.758596	0.011079	0.403038	-0.064451
52966	-2.321193	0.061310	9.724656	0.001445	0.387281	-0.034740
52967	-2.350862	0.019645	9.729757	-0.001280	0.329569	-0.005700
52968	-2.341601	0.026795	9.719321	0.009952	0.366261	-0.040845
52969	-2.405228	0.039923	9.669621	0.007516	0.450430	-0.060530
52970	-2.619794	0.024545	9.638925	0.005495	0.501328	-0.055622
52971	-2.775621	0.043681	9.603885	0.003139	0.467884	-0.043048
52972	-2.748737	0.030440	9.568234	0.013158	0.495689	-0.072126
52973	-2.810940	0.038695	9.568214	0.023022	0.613844	-0.121370
52974	-3.138302	0.013028	9.482868	0.014916	0.679960	-0.112739
52975	-3.307171	0.000207	9.426872	0.016385	0.653929	-0.104766
52976	-3.465721	-0.004647	9.367954	0.001515	0.624272	-0.089963
52977	-3.594776	-0.017091	9.311213	-0.009050	0.589417	-0.067023
52978	-3.713961	-0.020091	9.252919	-0.004660	0.571155	-0.061505
52979	-3.811702	-0.010004	9.223493	-0.008983	0.568277	-0.043082
52980	-4.032964	-0.035631	9.134281	-0.014849	0.514110	-0.002356
52981	-4.050206	-0.052664	9.099752	-0.007985	0.464299	0.021627
52982	-4.127853	-0.036898	9.063629	0.018891	0.481194	-0.020375
52983	-4.347302	-0.056584	8.999495	-0.003299	0.458630	-0.012218
52984	-4.427130	-0.051819	8.948659	0.005619	0.393763	0.012082
52985	-4.562541	-0.007914	8.915354	0.000619	0.294291	0.025402
52986	-4.519996	-0.016439	8.895532	-0.009388	0.234828	0.012735
52987	-4.471753	-0.033716	8.895160	-0.000176	0.239077	-0.003794
52988	-4.500252	-0.037597	8.850784	0.004905	0.325034	-0.013154
52989	-4.742204	-0.037148	8.806626	-0.005978	0.330841	-0.012409
52990	-4.741214	-0.075946	8.758252	-0.008058	0.271576	-0.019483
52991	-4.690701	-0.058104	8.758933	0.003307	0.311827	-0.040297
52992	-4.811245	-0.068135	8.712877	0.007274	0.362204	-0.036803
52993	-4.900383	-0.080023	8.654138	0.038546	0.414353	-0.056029
52994	-5.018802	0.006410	8.619919	0.031429	0.430460	-0.060755
52995	-5.064356	-0.045492	8.559516	-0.000844	0.447320	-0.042024
52996	-5.191908	-0.071725	8.500078	-0.004332	0.473201	-0.021212
52997	-5.218388	-0.102797	8.419646	0.008096	0.505570	-0.014560
52998	-5.397459	-0.101243	8.345979	0.020714	0.578772	-0.021372
52999	-5.607485	-0.028386	8.262593	0.019985	0.557989	-0.032104
53000	-5.766992	-0.037459	8.171707	-0.014157	0.478420	-0.022313
53001	-5.766086	-0.094013	8.118300	-0.009348	0.417003	-0.026382
53002	-5.663791	-0.053041	8.099157	-0.000756	0.448505	-0.033919
53003	-5.924756	-0.021205	8.009112	-0.071403	0.552195	-0.008151
53004	-6.259306	-0.194995	7.851517	-0.073481	0.397733	0.014764
53005	-6.048175	-0.183924	7.879411	-0.009436	0.299358	-0.016987
53006	-5.947970	-0.140952	7.842626	0.010288	0.399323	-0.047729
53007	-6.146868	-0.057398	7.776938	-0.018215	0.529007	-0.039563
53008	-6.454589	-0.191783	7.611839	-0.043718	0.477919	0.008789
53009	-6.432817	-0.196785	7.566239	0.008558	0.413780	0.003216
53010	-6.534237	-0.141106	7.506624	0.035343	0.378070	-0.007481
53011	-6.410440	-0.085079	7.499165	0.004055	0.380891	0.004829
53012	-6.465949	-0.057165	7.442975	-0.092222	0.544198	0.033650
53013	-7.010094	-0.255091	7.226345	-0.110962	0.470352	0.066301
53014	-6.895061	-0.249808	7.183675	-0.027804	0.292329	0.032746
53015	-6.824669	-0.159158	7.204008	0.017240	0.289946	0.004603
53016	-6.889844	-0.131326	7.156198	0.000179	0.286406	-0.001297
53017	-6.991178	-0.126212	7.087587	-0.020681	0.254816	0.003573
53018	-6.987456	-0.207828	7.049560	-0.029648	0.222232	0.019429
53019	-7.186607	-0.235369	6.988310	0.018888	0.111098	0.072568
53020	-7.067070	-0.204348	7.004262	0.023614	0.048373	0.052211
53021	-7.009652	-0.110244	7.016141	0.038507	0.015180	0.013202
53022	-6.947109	-0.171374	7.021194	0.023150	0.077060	-0.009322
53023	-7.128299	-0.073935	6.986891	0.023854	0.038864	0.016190
53024	-7.027742	-0.115702	7.012010	0.007219	0.005696	0.006870
53025	-7.012974	-0.142728	6.981437	0.017048	0.022036	0.005182
53026	-7.055752	-0.133387	6.991882	0.017906	0.029029	0.005624
53027	-7.045932	-0.114601	6.980223	0.014029	0.020651	0.006788
53028	-7.047268	-0.134144	6.959265	0.014607	0.023104	0.011189
53029	-7.034288	-0.121141	6.991268	0.025222	0.030790	0.011140
53030	-7.088529	-0.099006	6.962485	0.022920	0.026680	0.010538
53031	-7.079992	-0.077074	6.964962	0.016272	0.015637	0.006695
53032	-7.047681	-0.096189	6.971031	0.015926	0.014436	0.002236
53033	-7.082285	-0.102156	6.965532	0.014851	0.010730	0.003200
53034	-7.069418	-0.105161	6.952752	0.016797	0.010966	0.007147
53035	-7.064717	-0.091216	6.971255	0.014883	0.013306	0.005816
53036	-7.070063	-0.097573	6.970284	0.008805	0.008671	0.001841
53037	-7.073494	-0.077632	6.937300	0.006828	0.008423	-0.000141
53038	-7.065337	-0.097733	6.962188	0.007695	0.004960	0.004771
53039	-7.074475	-0.070414	6.969972	0.007955	0.008797	0.007322
53040	-7.069489	-0.112355	6.969480	0.008871	0.007999	0.002469
53041	-7.078384	-0.077818	6.954942	0.007958	0.003650	-0.001833
53042	-7.062554	-0.093125	6.952184	0.011617	0.006811	0.001595
53043	-7.064315	-0.082019	6.927872	0.014604	0.014000	0.006564
53044	-7.075749	-0.073440	6.944753	0.005665	0.009245	0.008046
53045	-7.081324	-0.066863	6.970181	0.003540	0.008362	0.008058
53046	-7.087513	-0.077190	6.934674	0.006649	0.007774	0.003821
53047	-7.083057	-0.076698	6.941821	0.008956	0.002785	-0.000194
53048	-7.066674	-0.092472	6.939668	0.006931	0.001242	-0.001520
53049	-7.064355	-0.089532	6.960198	0.012057	0.010603	0.004742
53050	-7.081533	-0.071290	6.946035	0.015471	0.017725	0.006971
53051	-7.064804	-0.074593	6.939837	0.018456	0.021656	0.011920
53052	-7.091389	-0.050279	6.928990	0.025433	0.030017	0.014343
53053	-7.076341	-0.080617	6.939799	0.029555	0.033103	0.013075
53054	-7.077949	-0.064703	6.918182	0.039302	0.048676	0.021841
53055	-7.069892	-0.057837	6.918852	0.052268	0.066844	0.030927
53056	-7.039156	-0.045102	6.933360	0.050542	0.096320	0.052462
53057	-7.017055	-0.055582	6.904315	0.047981	0.220228	0.068903
53058	-7.093188	-0.060825	6.836407	0.151631	0.318694	0.049572
53059	-7.265245	0.209457	6.853712	0.122597	0.385249	0.007670
53060	-7.375293	0.091270	6.657574	0.038087	0.362322	-0.001380
53061	-7.529231	0.101198	6.589608	-0.001429	0.210103	-0.015521
53062	-7.382136	0.045427	6.613927	-0.003592	0.156692	-0.012462
53063	-7.409030	0.075597	6.599065	-0.002556	0.172557	-0.013259
53064	-7.425946	0.045411	6.546196	-0.001557	0.166431	-0.012209
53065	-7.456563	0.045597	6.527844	-0.004745	0.174040	-0.006028
53066	-7.482129	0.041751	6.481933	-0.015411	0.175347	0.008010
53067	-7.453687	0.054431	6.512140	-0.037393	0.234332	0.025578
53068	-7.519653	0.037773	6.436933	-0.036384	0.316430	0.018421
53069	-7.594080	0.042448	6.354158	-0.029297	0.341076	0.014438
53070	-7.617574	0.027981	6.289513	-0.022677	0.370247	0.010094
53071	-7.691138	0.042310	6.222925	-0.004820	0.415172	-0.005203
53072	-7.734812	0.041044	6.137504	-0.001823	0.458973	-0.012624
53073	-7.878287	0.022623	6.014578	-0.003493	0.476566	-0.012698
53074	-7.963668	0.025654	5.910042	-0.000739	0.447201	-0.011359
53075	-7.975867	0.024258	5.831040	0.001514	0.427028	-0.011743
53076	-8.026888	0.017354	5.748338	0.002715	0.446065	-0.014411
53077	-8.102757	0.029478	5.644525	0.000432	0.444041	-0.014082
53078	-8.160921	0.025624	5.563418	0.005041	0.441370	-0.016569
53079	-8.195274	0.022691	5.481262	0.008487	0.456756	-0.020311
53080	-8.260455	0.010658	5.415340	0.004559	0.486742	-0.018317
53081	-8.355071	-0.015387	5.244634	0.003304	0.521830	-0.017299
53082	-8.463429	-0.001089	5.127324	0.005477	0.472631	-0.015099
53083	-8.489684	-0.004468	5.052868	0.009108	0.419585	-0.014690
53084	-8.528222	0.009346	4.953185	0.004927	0.395944	-0.012222
53085	-8.558241	-0.009929	4.904336	0.001901	0.375407	-0.013753
53086	-8.604232	-0.012415	4.823189	-0.000248	0.381098	-0.010361
53087	-8.639890	-0.007928	4.760198	0.002887	0.373974	-0.013263
53088	-8.678998	-0.022798	4.645185	0.004649	0.375182	-0.011289
53089	-8.728896	-0.022430	4.574273	0.003028	0.389662	-0.010887
53090	-8.743549	-0.015489	4.501203	0.000006	0.396846	-0.010466
53091	-8.825975	-0.013607	4.392958	-0.001494	0.410715	-0.012565
53092	-8.859224	-0.030954	4.320691	-0.000162	0.386890	-0.010629
53093	-8.872076	-0.024418	4.246634	-0.001356	0.405081	-0.012002
53094	-8.966741	-0.027409	4.127276	0.000056	0.417112	-0.013262
53095	-9.006362	-0.008819	4.010851	-0.008171	0.370647	-0.008452
53096	-9.007047	-0.046752	3.949227	-0.035963	0.338976	0.002892
53097	-8.995934	-0.047919	3.919521	-0.031325	0.372891	0.004522
53098	-9.036509	-0.048870	3.820109	-0.010232	0.424717	-0.004904
53099	-9.111361	-0.036678	3.690295	-0.001166	0.441178	-0.012301
53100	-9.179859	-0.028240	3.586442	-0.001834	0.437915	-0.011912
53101	-9.203243	-0.046976	3.484010	-0.011308	0.415566	-0.007741
53102	-9.198256	-0.055728	3.390212	-0.013509	0.422107	-0.009972
53103	-9.266294	-0.068120	3.306201	-0.016425	0.426103	-0.007879
53104	-9.299709	-0.060219	3.189720	-0.020215	0.416692	-0.008825
53105	-9.379526	-0.062530	3.056093	-0.009002	0.360324	-0.010047
53106	-9.324215	-0.049088	3.047421	-0.003591	0.321766	-0.008235
53107	-9.343168	-0.064877	2.975622	-0.006229	0.358223	-0.007300
53108	-9.399476	-0.073492	2.851206	-0.015788	0.385692	-0.000687
53109	-9.458333	-0.096772	2.754611	-0.029233	0.348450	0.057690
53110	-9.430035	-0.074519	2.729277	-0.008430	0.335733	0.084197
53111	-9.428809	-0.040484	2.637896	0.006463	0.352024	0.099519
53112	-9.489193	-0.001419	2.547232	0.016776	0.368136	0.098350
53113	-9.490198	0.024745	2.459965	0.018496	0.358587	0.094992
53114	-9.531099	0.057811	2.356003	0.013303	0.367466	0.097234
53115	-9.559372	0.066097	2.258078	0.011499	0.356571	0.108233
53116	-9.588657	0.065360	2.199960	0.021692	0.348258	0.132722
53117	-9.596915	0.135973	2.054225	0.031847	0.324622	0.152659
53118	-9.640960	0.226699	1.967299	0.036463	0.210905	0.110281
53119	-9.617506	0.236360	2.002692	0.031084	0.133999	0.045713
53120	-9.600150	0.221680	1.998179	0.032478	0.124403	0.012190
53121	-9.597648	0.222686	1.946398	0.024817	0.140482	-0.003584
53122	-9.618594	0.237342	1.916067	0.011942	0.126318	-0.017282
53123	-9.638733	0.199058	1.854642	0.003199	0.107668	-0.031923
53124	-9.616105	0.177283	1.860908	-0.000320	0.073480	-0.031943
53125	-9.605323	0.155667	1.850546	0.006585	0.079323	-0.004867
53126	-9.623317	0.175357	1.823437	0.013511	0.079024	0.020621
53127	-9.610921	0.193411	1.824622	0.016320	0.087099	0.022332
53128	-9.633554	0.205239	1.811153	0.018728	0.109295	0.018010
53129	-9.633506	0.224907	1.728326	0.014387	0.103072	0.010843
53130	-9.663623	0.238718	1.690708	0.009610	0.052814	-0.008819
53131	-9.654867	0.206543	1.709354	0.004270	0.012385	-0.024199
53132	-9.637309	0.191271	1.728211	0.001558	-0.011296	-0.025548
53133	-9.615930	0.184490	1.749213	-0.000555	0.003560	-0.027813
53134	-9.641303	0.169595	1.726379	0.001395	0.010455	-0.024305
53135	-9.629297	0.169836	1.734754	0.001496	0.007761	-0.010140
53136	-9.645349	0.181201	1.760675	0.006541	0.030780	-0.005089
53137	-9.624788	0.185764	1.722042	0.005355	0.053788	-0.000661
53138	-9.634093	0.169220	1.697036	0.006868	0.055217	0.001920
53139	-9.645859	0.172030	1.703996	0.007571	0.049215	0.006565
53140	-9.652047	0.189661	1.667386	0.008740	0.022895	0.005691
53141	-9.638977	0.170651	1.691171	0.006832	0.009557	-0.005036
53142	-9.662540	0.190633	1.681850	0.006787	-0.000397	-0.004981
53143	-9.641114	0.189489	1.703331	0.007334	-0.010500	-0.004309
53144	-9.652471	0.185263	1.676529	0.003081	-0.016602	-0.014005
53145	-9.634932	0.170506	1.717835	0.003131	-0.006615	-0.014682
53146	-9.639311	0.159351	1.723642	0.005097	0.029906	0.004200
53147	-9.636666	0.172835	1.696726	0.005354	0.041153	0.013556
53148	-9.659616	0.175600	1.666196	0.005334	0.044131	0.005015
53149	-9.648753	0.181342	1.656601	0.007041	0.043091	-0.004368
53150	-9.640752	0.203172	1.666919	0.003972	0.059076	-0.023387
53151	-9.664932	0.169242	1.601370	0.003517	0.046664	-0.033423
53152	-9.664276	0.141040	1.603643	0.006145	-0.004117	-0.013888
53153	-9.667087	0.106112	1.578983	0.012680	-0.069758	0.024124
53154	-9.645189	0.207183	1.720188	0.013818	-0.115919	0.022167
53155	-9.627267	0.192188	1.737423	0.003893	-0.038481	-0.015211
53156	-9.641733	0.150536	1.673759	0.007079	-0.041397	-0.018470
53157	-9.646161	0.157344	1.725732	0.009462	-0.057917	0.001782
53158	-9.620055	0.165874	1.764853	0.009184	-0.010541	0.001303
53159	-9.628882	0.172952	1.733263	0.008616	0.032031	-0.001320
53160	-9.645732	0.162453	1.694629	0.008301	0.030473	0.005441
53161	-9.640509	0.177434	1.719097	0.006725	0.025289	-0.007916
53162	-9.643432	0.171680	1.666132	0.006108	0.002486	-0.009800
53163	-9.648241	0.155597	1.714221	0.006657	-0.007648	-0.008490
53164	-9.622802	0.166297	1.705613	0.005685	0.013426	-0.003598
53165	-9.653591	0.170318	1.682774	0.008626	0.009388	0.003035
53166	-9.632593	0.171262	1.701597	0.005925	0.001769	0.003852
53167	-9.638874	0.181339	1.720813	0.005572	0.009444	-0.010040
53168	-9.632438	0.144756	1.712108	0.004764	0.034550	-0.011154
53169	-9.654557	0.145783	1.675381	0.008446	0.021627	0.007444
53170	-9.650064	0.187084	1.686484	0.008444	0.002124	0.011354
53171	-9.653903	0.177876	1.695172	0.005760	-0.002585	-0.006960
53172	-9.647980	0.163946	1.685347	0.003859	-0.006193	-0.014010
53173	-9.648437	0.159260	1.705580	0.006747	-0.000742	-0.009967
53174	-9.643038	0.146487	1.703822	0.008493	0.005526	0.005938
53175	-9.636235	0.167355	1.692464	0.006628	0.025146	0.006376
53176	-9.661737	0.159450	1.666763	0.006500	0.011239	-0.000602
53177	-9.646781	0.170467	1.695523	0.005280	0.007984	-0.005140
53178	-9.643048	0.177824	1.686394	0.001758	-0.004321	-0.018269
53179	-9.656009	0.141740	1.656066	0.007384	-0.020264	-0.007905
53180	-9.633589	0.167845	1.733882	0.012000	-0.028283	0.009106
53181	-9.629431	0.153347	1.758939	0.006869	0.052382	-0.003366
53182	-9.648803	0.140239	1.644808	0.013966	0.063727	0.003511
53183	-9.641243	0.168022	1.663637	0.015025	0.046980	0.021911
53184	-9.661538	0.179713	1.650908	0.013059	0.059155	0.010740
53185	-9.656426	0.151051	1.621798	0.018352	0.074332	0.022184
53186	-9.615825	0.193750	1.720972	0.026076	0.119874	0.062061
53187	-9.665480	0.255607	1.629138	0.005212	0.264674	0.001278
53188	-9.681597	0.238350	1.510171	0.004306	0.299894	-0.036461
53189	-9.692081	0.202002	1.441652	-0.010664	0.329209	-0.075935
53190	-9.699223	0.145794	1.381555	-0.001231	0.382406	-0.079294
53191	-9.729238	0.131109	1.215854	0.014358	0.409028	-0.083841
53192	-9.714692	0.118237	1.078106	0.019617	0.341436	-0.082246
53193	-9.685147	0.048978	1.067781	0.024263	0.294562	-0.039146
53194	-9.698013	0.074836	1.051634	0.065726	0.343456	0.037122
53195	-9.721416	0.096781	0.990943	0.203340	0.467733	0.117400
53196	-9.747057	0.152730	0.788880	0.206022	0.544659	0.084044
53197	-9.735749	0.170808	0.638732	0.132435	0.538706	0.084021
53198	-9.748888	0.163677	0.530338	0.104604	0.561766	0.115432
53199	-9.758921	0.266693	0.327065	0.101409	0.574695	0.112369
53200	-9.756639	0.298351	0.185555	0.089562	0.512020	0.061911
53201	-9.757909	0.294013	0.094890	0.039827	0.463350	0.022438
53202	-9.752070	0.265968	0.045464	0.039967	0.502762	0.025840
53203	-9.765169	0.283230	-0.109662	0.126533	0.581238	0.045142
53204	-9.730741	0.332937	-0.321260	0.196732	0.567992	0.029538
53205	-9.727517	0.311695	-0.390741	0.094215	0.558316	-0.023151
53206	-9.719538	0.295335	-0.550759	0.064846	0.585960	-0.039409
53207	-9.704769	0.248290	-0.733754	0.085972	0.576334	-0.029528
53208	-9.697381	0.278211	-0.839852	0.089386	0.556474	-0.023767
53209	-9.696200	0.267716	-0.941676	0.065649	0.587004	-0.030302
53210	-9.657532	0.252490	-1.168705	0.050361	0.582746	-0.048388
53211	-9.669550	0.245838	-1.339373	0.029668	0.495563	-0.052919
53212	-9.691666	0.264042	-1.455148	0.019027	0.370837	-0.086805
53213	-9.613299	0.210930	-1.466140	0.000270	0.253821	-0.144015
53214	-9.676454	0.142590	-1.453101	0.005790	0.267363	-0.162197
53215	-9.593695	0.134040	-1.538012	0.037621	0.330149	-0.154346
53216	-9.550010	0.097600	-1.695450	0.047195	0.299968	-0.178190
53217	-9.539035	0.021395	-1.761446	0.035035	0.235422	-0.187412
53218	-9.602053	-0.060833	-1.751500	0.026116	0.209336	-0.147035
53219	-9.571375	-0.067527	-1.803685	0.027946	0.222281	-0.105344
53220	-9.559246	-0.093766	-1.838980	0.029076	0.251890	-0.065847
53221	-9.501295	-0.072241	-1.950111	0.045066	0.241023	-0.053821
53222	-9.508676	-0.079972	-2.028404	0.031037	0.181238	-0.087536
53223	-9.526423	-0.108580	-2.008047	0.016482	0.174996	-0.108468
53224	-9.554891	-0.116718	-1.996738	0.011633	0.226467	-0.127453
53225	-9.493007	-0.251846	-2.109874	0.014488	0.302009	-0.097673
53226	-9.439428	-0.186054	-2.223845	0.045814	0.304860	-0.012921
53227	-9.368822	-0.231579	-2.320196	0.032695	0.249438	-0.011050
53228	-9.410618	-0.208617	-2.324418	-0.018862	0.142747	-0.024247
53229	-9.470214	-0.213314	-2.311549	-0.001476	0.201746	-0.008780
53230	-9.394348	-0.188423	-2.430502	0.030563	0.248793	0.000357
53231	-9.357696	-0.204751	-2.495082	0.028899	0.203671	-0.001732
53232	-9.383083	-0.181835	-2.511929	0.015910	0.172034	-0.008685
53233	-9.428248	-0.227228	-2.472034	0.007023	0.241106	-0.002716
53234	-9.416097	-0.184389	-2.542277	0.040839	0.353174	0.012455
53235	-9.318552	-0.198739	-2.719693	0.039647	0.437889	-0.007078
53236	-9.265926	-0.202066	-2.861608	0.077557	0.415520	-0.010513
53237	-9.311954	-0.222926	-2.844408	0.073202	0.419495	-0.003952
53238	-9.216899	-0.221368	-3.016006	0.052722	0.495355	-0.010472
53239	-9.119260	-0.254228	-3.168172	0.050295	0.439074	-0.003759
53240	-9.225584	-0.270296	-3.089374	-0.038309	0.424538	-0.028746
53241	-9.156185	-0.253296	-3.241316	-0.140411	0.564774	-0.069071
53242	-9.027853	-0.200271	-3.530648	-0.086305	0.612360	-0.044480
53243	-8.922391	-0.226088	-3.663996	-0.025042	0.551125	-0.025134
53244	-8.918814	-0.226656	-3.743993	-0.007501	0.441383	-0.022393
53245	-8.979417	-0.230320	-3.705705	-0.021637	0.488127	-0.036036
53246	-8.887077	-0.245612	-3.876282	-0.064876	0.633276	-0.060115
53247	-8.652473	-0.252827	-4.206795	-0.036948	0.552694	-0.038592
53248	-8.684446	-0.275210	-4.204800	0.000655	0.418664	-0.017379
53249	-8.702080	-0.265477	-4.254462	0.000469	0.410606	-0.021077
53250	-8.652346	-0.264830	-4.331926	-0.016203	0.446800	-0.031604
53251	-8.520762	-0.272957	-4.520205	-0.022209	0.410316	-0.028742
53252	-8.518499	-0.258222	-4.554805	-0.027066	0.332644	-0.024151
53253	-8.539073	-0.268497	-4.589202	-0.053555	0.351237	-0.042027
53254	-8.543174	-0.254971	-4.585618	-0.075876	0.434473	-0.066820
53255	-8.384844	-0.266441	-4.782950	-0.071308	0.534160	-0.072219
53256	-8.245953	-0.286100	-5.003355	-0.010529	0.467170	-0.026843
53257	-8.309957	-0.293645	-4.925531	-0.015930	0.415621	-0.029708
53258	-8.257187	-0.286442	-5.025296	-0.067708	0.511122	-0.069897
53259	-8.059873	-0.275918	-5.267854	-0.072358	0.472976	-0.067903
53260	-8.075460	-0.275728	-5.288436	-0.014249	0.387601	-0.029629
53261	-8.082216	-0.287745	-5.309181	0.000396	0.435342	-0.026319
53262	-7.979638	-0.302062	-5.433622	-0.009155	0.498827	-0.040313
53263	-7.853455	-0.324534	-5.612767	-0.005181	0.477660	-0.030513
53264	-7.802024	-0.308583	-5.692662	-0.006058	0.396386	-0.026150
53265	-7.794614	-0.312286	-5.677871	0.000511	0.391598	-0.026294
53266	-7.764934	-0.299386	-5.737021	-0.000301	0.474499	-0.027697
53267	-7.561147	-0.306066	-5.955059	-0.004052	0.460447	-0.019761
53268	-7.528222	-0.303268	-6.031586	-0.006404	0.341392	-0.005190
53269	-7.512249	-0.309320	-6.023340	0.000169	0.291156	-0.002480
53270	-7.477850	-0.320404	-6.073381	0.002171	0.279536	-0.006192
53271	-7.493284	-0.337711	-6.082905	-0.007869	0.322306	-0.011736
53272	-7.369512	-0.312969	-6.224179	-0.011413	0.349135	-0.003850
53273	-7.288535	-0.299556	-6.303420	-0.004802	0.280870	-0.001930
53274	-7.345124	-0.309813	-6.247964	0.000408	0.288897	-0.007932
53275	-7.287064	-0.295069	-6.333226	-0.001323	0.387804	-0.017792
53276	-7.115139	-0.291581	-6.502364	0.003568	0.395448	-0.016276
53277	-7.036217	-0.323525	-6.578778	0.007063	0.254351	-0.016675
53278	-6.967192	-0.338092	-6.658250	0.012149	0.107899	-0.014367
53279	-7.143483	-0.320012	-6.514469	0.012089	0.060838	-0.035453
53280	-7.118478	-0.301917	-6.565074	0.032370	0.134388	-0.058985
53281	-6.926555	-0.365409	-6.621910	0.023943	0.094236	-0.043301
53282	-6.966295	-0.367058	-6.630018	0.005493	0.008822	-0.009977
53283	-7.011453	-0.350151	-6.600685	-0.004529	-0.035833	0.009151
53284	-7.097908	-0.326386	-6.575626	0.005869	0.000996	-0.003159
53285	-6.985523	-0.361080	-6.610828	0.007251	0.005840	-0.004626
53286	-7.030752	-0.373108	-6.619090	-0.005036	-0.035047	0.009000
53287	-7.059147	-0.344905	-6.559215	-0.002866	-0.021241	0.001441
53288	-7.064148	-0.328442	-6.573967	-0.002799	-0.010355	-0.002697
53289	-7.044099	-0.329972	-6.576551	-0.001762	-0.006724	-0.005182
53290	-7.030478	-0.342684	-6.604628	-0.004977	-0.019467	0.000606
53291	-7.059523	-0.343170	-6.581748	-0.010368	-0.046165	0.009783
53292	-7.093073	-0.306858	-6.540326	-0.006783	-0.031701	0.006473
53293	-7.063095	-0.342789	-6.564618	0.004020	-0.002223	-0.003111
53294	-7.050897	-0.340571	-6.546639	0.003502	-0.001612	-0.001910
53295	-7.082701	-0.325258	-6.554133	0.004999	0.000396	-0.002986
53296	-7.064980	-0.306080	-6.559542	0.004281	-0.002528	-0.000945
53297	-7.067582	-0.310805	-6.545933	0.003695	-0.003095	-0.001308
53298	-7.054901	-0.328060	-6.562305	0.002075	-0.007290	0.000816
53299	-7.066808	-0.332629	-6.541434	0.000763	-0.015797	0.003937
53300	-7.076320	-0.333362	-6.533901	0.003909	-0.004241	0.002111
53301	-7.068727	-0.333277	-6.539326	0.005036	0.001069	-0.002885
53302	-7.081147	-0.337710	-6.556957	0.006076	-0.000152	0.000246
53303	-7.064241	-0.313273	-6.546646	0.005861	0.000995	-0.003174
53304	-7.083835	-0.319272	-6.559230	0.007634	0.007882	-0.004887
53305	-7.082762	-0.306548	-6.541359	0.006609	0.004423	-0.003756
53306	-7.067166	-0.315907	-6.556721	0.007318	0.007179	-0.004441
53307	-7.073076	-0.324142	-6.567827	0.006810	0.003109	-0.004510
53308	-7.063263	-0.335722	-6.540548	0.008204	0.003269	-0.001721
53309	-7.073077	-0.322129	-6.552814	0.007071	0.002806	-0.002344
53310	-7.085228	-0.312184	-6.551804	0.005306	0.000934	-0.002075
53311	-7.075928	-0.303266	-6.554980	0.004056	0.003301	-0.003095
53312	-7.075226	-0.290237	-6.536763	0.006347	0.004730	-0.005921
53313	-7.099339	-0.313929	-6.526974	0.009373	0.014270	-0.008065
53314	-7.085327	-0.337669	-6.533822	0.006460	0.016614	-0.012683
53315	-7.077753	-0.333606	-6.563337	0.000087	0.021405	-0.022182
53316	-7.001741	-0.334859	-6.596189	-0.003974	-0.001798	-0.009122
53317	-7.083444	-0.318404	-6.551730	-0.000792	-0.019157	0.004826
53318	-7.077216	-0.303109	-6.536834	0.005786	-0.000344	-0.003373
53319	-7.059678	-0.308839	-6.564974	0.008230	0.008799	-0.007237
53320	-7.067139	-0.321317	-6.563596	0.003220	0.008225	-0.008428
53321	-7.071209	-0.310523	-6.568608	-0.000940	-0.001951	-0.005550
53322	-7.082285	-0.321034	-6.537796	0.005781	0.014542	-0.011893
53323	-7.106248	-0.330600	-6.548310	0.008575	0.035106	-0.024528
53324	-7.053251	-0.360043	-6.561639	0.000373	0.041869	-0.031242
53325	-7.072844	-0.312783	-6.566211	0.004278	0.052720	-0.033460
53326	-6.998563	-0.338361	-6.607262	0.019226	0.063531	-0.030136
53327	-7.021961	-0.348858	-6.592786	0.014499	0.032684	-0.016300
53328	-7.059034	-0.351752	-6.590797	0.010811	0.036116	-0.017723
53329	-7.075932	-0.340500	-6.586233	0.015812	0.087681	-0.041965
53330	-7.029884	-0.371955	-6.620782	0.017665	0.132095	-0.071441
53331	-7.006651	-0.383150	-6.629911	0.019166	0.155780	-0.083592
53332	-6.963309	-0.384873	-6.688883	0.037244	0.192332	-0.087039
53333	-6.950742	-0.425249	-6.688767	0.026831	0.205179	-0.098992
53334	-6.900243	-0.448881	-6.761378	-0.005820	0.236429	-0.145764
53335	-6.677721	-0.594513	-6.764522	-0.094637	0.124709	-0.164403
53336	-6.835031	-0.490537	-6.762664	-0.180619	0.006415	-0.205806
53337	-6.883623	-0.421900	-6.853421	-0.154860	0.046649	-0.167382
53338	-6.893007	-0.432264	-6.844122	-0.071397	0.233787	-0.077084
53339	-6.757501	-0.406718	-6.894708	-0.001562	0.311212	-0.001645
53340	-6.679329	-0.442314	-6.940223	0.060040	0.335790	0.056186
53341	-6.559478	-0.454033	-7.004377	0.046978	0.307515	0.043984
53342	-6.570265	-0.440059	-7.053580	0.056893	0.276264	0.057691
53343	-6.505092	-0.449392	-7.076068	0.076324	0.292519	0.075584
53344	-6.457454	-0.488605	-7.133365	0.072301	0.278636	0.061705
53345	-6.499091	-0.488643	-7.141947	0.034186	0.298350	0.006778
53346	-6.408208	-0.527374	-7.191438	0.006182	0.378219	-0.019491
53347	-6.318028	-0.486622	-7.261810	-0.034385	0.369576	-0.044092
53348	-6.337320	-0.458595	-7.331877	-0.043520	0.466179	-0.026805
53349	-6.150185	-0.468356	-7.413626	-0.055218	0.567814	-0.030700
53350	-6.104327	-0.486410	-7.487504	-0.094650	0.619114	-0.078098
53351	-5.874809	-0.486879	-7.611491	-0.167787	0.648609	-0.193804
53352	-5.707394	-0.396882	-7.721749	-0.155562	0.606695	-0.194392
53353	-5.558062	-0.396932	-7.835907	-0.077564	0.600096	-0.108919
53354	-5.454061	-0.391253	-7.883836	-0.032309	0.538784	-0.113418
53355	-5.326743	-0.452691	-7.958893	-0.014380	0.470991	-0.136343
53356	-5.266317	-0.472461	-8.004330	-0.047378	0.382660	-0.193545
53357	-5.180028	-0.470708	-8.063474	-0.063738	0.318130	-0.178870
53358	-5.199254	-0.468308	-8.108520	-0.023784	0.342899	-0.057138
53359	-5.049466	-0.523110	-8.139773	-0.021392	0.357029	-0.023226
53360	-5.032037	-0.502857	-8.176914	-0.047509	0.331530	-0.031665
53361	-5.036198	-0.463834	-8.210234	-0.048956	0.360955	-0.060066
53362	-4.951067	-0.474986	-8.254093	-0.070805	0.417039	-0.122989
53363	-4.954628	-0.475515	-8.270462	-0.098268	0.506943	-0.189653
53364	-4.578854	-0.411594	-8.428649	-0.096981	0.580959	-0.214402
53365	-4.423277	-0.453854	-8.485782	-0.068602	0.495255	-0.130117
53366	-4.373893	-0.426746	-8.533068	0.007795	0.476753	0.053830
53367	-4.405835	-0.519101	-8.548097	0.034313	0.510228	0.109041
53368	-4.178204	-0.470160	-8.640822	0.004632	0.540926	0.085130
53369	-4.142413	-0.453412	-8.678734	-0.004205	0.526148	0.079784
53370	-4.107625	-0.451883	-8.711227	-0.058616	0.574000	-0.078922
53371	-3.896440	-0.426608	-8.778861	-0.099423	0.644759	-0.149409
53372	-3.632087	-0.409612	-8.892739	-0.114697	0.656106	-0.187581
53373	-3.498064	-0.405973	-8.938548	-0.106624	0.592656	-0.180768
53374	-3.402512	-0.411654	-8.973020	-0.078869	0.560437	-0.200892
53375	-3.272849	-0.355713	-9.034904	-0.047723	0.602980	-0.148054
53376	-3.014732	-0.426970	-9.090796	-0.031722	0.576212	-0.022111
53377	-2.946762	-0.372470	-9.135584	-0.049985	0.459673	-0.025798
53378	-2.917812	-0.337946	-9.156357	-0.036019	0.437256	-0.018933
53379	-2.733831	-0.331197	-9.212372	-0.005615	0.409966	0.030446
53380	-2.682038	-0.336835	-9.234604	0.029207	0.374654	0.104333
53381	-2.620577	-0.385757	-9.249259	0.036997	0.336968	0.096670
53382	-2.609386	-0.351679	-9.259097	0.046827	0.337583	0.089880
53383	-2.561680	-0.326604	-9.276421	0.076177	0.389575	0.071808
53384	-2.436993	-0.380137	-9.297336	0.080716	0.451930	0.041338
53385	-2.277069	-0.408213	-9.323897	0.076431	0.478780	0.046406
53386	-2.159495	-0.416408	-9.358984	0.051162	0.457909	0.027681
53387	-2.098676	-0.433364	-9.350267	0.031994	0.464369	0.008931
53388	-1.924095	-0.469578	-9.399481	-0.005381	0.471761	-0.033832
53389	-1.775020	-0.425015	-9.431309	-0.026952	0.437273	-0.020456
53390	-1.730859	-0.388968	-9.447241	-0.026972	0.403219	-0.027636
53391	-1.595091	-0.396090	-9.469643	-0.020886	0.388420	-0.045945
53392	-1.506145	-0.391603	-9.484377	-0.031983	0.358592	-0.045772
53393	-1.423015	-0.392116	-9.509432	-0.028262	0.326398	-0.030683
53394	-1.340075	-0.382820	-9.529325	-0.014590	0.290984	0.002386
53395	-1.332748	-0.381055	-9.507434	-0.008524	0.280638	0.008628
53396	-1.240213	-0.398695	-9.533831	-0.016329	0.291317	0.014043
53397	-1.222442	-0.380236	-9.518555	-0.029368	0.307310	0.007447
53398	-1.100603	-0.351836	-9.531649	-0.032385	0.329289	-0.004284
53399	-1.002376	-0.337208	-9.579207	-0.041239	0.312816	-0.017631
53400	-0.950493	-0.321824	-9.555073	-0.039664	0.316991	0.001348
53401	-0.877472	-0.328171	-9.578735	-0.050678	0.338873	-0.003648
53402	-0.728354	-0.321070	-9.585121	-0.056595	0.314494	0.003703
53403	-0.703281	-0.276709	-9.592652	-0.043279	0.276972	0.001825
53404	-0.625852	-0.270050	-9.617736	-0.023628	0.264094	0.000533
53405	-0.611063	-0.285512	-9.590444	-0.021721	0.273404	-0.007709
53406	-0.516342	-0.249829	-9.613262	-0.004575	0.297130	0.002781
53407	-0.352044	-0.283664	-9.640298	0.015265	0.242881	0.030514
53408	-0.359704	-0.267174	-9.609645	0.004920	0.177425	0.027367
53409	-0.366264	-0.274392	-9.627099	0.006787	0.157692	-0.010296
53410	-0.327886	-0.279180	-9.619194	0.007176	0.167058	-0.019429
53411	-0.255426	-0.278852	-9.637375	0.007990	0.166892	0.017922
53412	-0.200851	-0.299284	-9.622206	-0.009359	0.108430	0.004877
53413	-0.212682	-0.270203	-9.628304	-0.024551	0.075214	-0.020479
53414	-0.234114	-0.260979	-9.632216	-0.036788	0.078024	-0.040194
53415	-0.177404	-0.237144	-9.614871	-0.052890	0.101574	-0.047343
53416	-0.097777	-0.187359	-9.596310	-0.030207	0.062345	-0.008744
53417	-0.144072	-0.231453	-9.618495	-0.011029	0.031257	-0.002988
53418	-0.206118	-0.262934	-9.627652	-0.023588	0.054008	-0.009148
53419	-0.151291	-0.237305	-9.619137	-0.054262	0.104830	-0.006522
53420	-0.088579	-0.191732	-9.626267	-0.063011	0.121789	0.004266
53421	-0.068306	-0.180711	-9.619254	-0.068807	0.134095	0.004851
53422	0.084849	-0.074526	-9.623677	-0.009541	0.027189	0.000452
53423	-0.042413	-0.141574	-9.609558	0.004389	0.004065	0.024293
53424	-0.037146	-0.161157	-9.615086	0.007313	0.003551	0.015180
53425	-0.059216	-0.183239	-9.634882	0.006069	0.003278	-0.003447
53426	-0.041686	-0.172152	-9.628708	0.006979	0.003535	-0.004221
53427	-0.040864	-0.158716	-9.644336	0.007831	0.003738	-0.004127
53428	-0.133669	-0.116782	-9.702721	0.025789	0.048456	-0.007755
53429	0.024199	-0.197340	-9.585899	0.032223	0.064023	-0.010156
53430	-0.031390	-0.153822	-9.639314	0.032216	0.061020	-0.017672
53431	-0.048861	-0.140807	-9.677556	0.051896	0.106933	-0.005609
53432	-0.023557	-0.182233	-9.666181	0.075081	0.162002	-0.001151
53433	0.249366	-0.330970	-9.471548	0.051707	0.098107	-0.019777
53434	0.061123	-0.306613	-9.610581	0.019104	0.014593	-0.110327
53435	0.101681	-0.195769	-9.609800	0.010423	-0.002732	-0.143608
53436	0.084441	-0.171938	-9.644895	0.013792	0.010835	-0.094619
53437	0.102509	-0.221011	-9.616769	0.008765	0.019619	-0.032906
53438	0.162151	-0.190943	-9.600454	-0.012580	0.045977	0.020475
53439	0.109592	-0.242121	-9.614596	-0.000106	-0.003762	-0.009829
53440	0.162299	-0.280855	-9.536232	0.006593	-0.086842	-0.014357
53441	0.013941	-0.134472	-9.702164	0.012149	0.017701	-0.000770
53442	0.124456	-0.224297	-9.592877	0.004603	0.000419	-0.003096
53443	0.069360	-0.219052	-9.628690	0.007217	0.001078	-0.003671
53444	0.118904	-0.235199	-9.606490	0.005286	-0.000155	-0.005331
53445	0.062712	-0.217793	-9.648874	0.005777	0.002370	-0.004031
53446	0.104315	-0.209638	-9.609480	0.006824	0.000997	-0.004155
53447	0.085857	-0.200099	-9.628846	0.007575	0.001990	-0.003946
53448	0.094738	-0.225991	-9.645983	0.005678	0.003156	-0.003921
53449	0.081128	-0.211158	-9.642453	0.006431	0.000915	-0.004639
53450	0.109609	-0.222020	-9.621193	0.006367	0.000870	-0.003770
53451	0.092291	-0.239336	-9.618194	0.005355	0.001408	-0.002888
53452	0.091551	-0.213571	-9.640541	0.006233	0.002490	-0.004418
53453	0.095513	-0.212963	-9.608376	0.005974	0.000788	-0.004254
53454	0.080543	-0.224332	-9.623825	0.005875	0.001576	-0.004144
53455	0.095054	-0.218758	-9.599080	0.005875	0.001575	-0.004144
53456	0.100342	-0.223276	-9.620135	0.005677	0.003151	-0.003923
53457	0.084434	-0.199327	-9.613992	0.006268	0.001654	-0.003660
53458	0.096729	-0.231157	-9.642958	0.005319	0.002237	-0.003648
53459	0.084186	-0.228317	-9.632868	0.006038	0.000828	-0.005124
53460	0.105770	-0.234976	-9.631846	0.005776	0.002361	-0.004034
53461	0.100262	-0.221153	-9.617315	0.005974	0.000783	-0.004255
53462	0.080559	-0.214353	-9.627496	0.005875	0.001571	-0.004145
53463	0.088233	-0.219841	-9.607189	0.006462	0.003309	-0.002958
53464	0.089989	-0.218291	-9.616381	0.005418	0.001446	-0.003759
53465	0.093950	-0.225964	-9.628198	0.007447	0.001892	-0.002210
53466	0.083904	-0.232400	-9.620736	0.005383	0.002276	-0.004519
53467	0.096186	-0.241007	-9.621510	0.006661	0.001729	-0.003178
53468	0.084672	-0.220309	-9.636499	0.005847	0.000693	-0.002516
53469	0.087362	-0.207487	-9.610951	0.005776	0.002355	-0.004036
53470	0.091419	-0.215114	-9.622764	0.006661	0.001728	-0.003178
53471	0.098971	-0.205664	-9.618297	0.006625	0.002558	-0.003939
53472	0.087792	-0.223324	-9.645577	0.005875	0.001565	-0.004146
53473	0.096542	-0.225838	-9.634493	0.006625	0.002557	-0.003939
53474	0.102930	-0.219347	-9.620793	0.006725	0.001768	-0.004049
53475	0.085891	-0.221659	-9.633612	0.004826	0.002935	-0.004026
53476	0.113470	-0.220051	-9.618909	0.005811	0.001520	-0.003277
53477	0.076168	-0.214010	-9.641985	0.004112	0.001110	-0.003473
53478	0.094219	-0.229460	-9.613229	0.007446	0.001886	-0.002212
53479	0.091042	-0.209897	-9.617213	0.005875	0.001560	-0.004147
53480	0.096149	-0.229622	-9.622383	0.006825	0.000976	-0.004158
53481	0.111889	-0.236217	-9.591005	0.007017	0.002633	-0.003457
53482	0.084174	-0.228612	-9.612271	0.005875	0.001558	-0.004148
53483	0.084441	-0.215130	-9.628109	0.006760	0.000932	-0.003289
53484	0.097442	-0.182450	-9.625897	0.005647	0.000728	-0.005610
53485	0.093405	-0.219054	-9.616986	0.006524	0.003338	-0.003834
53486	0.103529	-0.218670	-9.615131	0.006625	0.002549	-0.003942
53487	0.039542	-0.299969	-9.617406	0.011806	-0.001131	-0.030502
53488	-0.198930	-0.575446	-9.640087	0.048306	0.029234	-0.313913
53489	-0.052308	-0.662643	-9.524029	0.005327	-0.033033	-0.905764
53490	0.213914	-0.147036	-9.638348	-0.007502	-0.046897	-1.071067
53491	0.203165	-0.225272	-9.583602	0.013381	-0.005466	-0.899741
53492	0.298894	0.460947	-9.681337	0.008042	-0.006322	-0.438049
53493	-0.266392	-0.222600	-9.958613	0.038937	0.139677	-0.050127
53494	0.599674	-0.125404	-9.254114	0.038816	0.280761	-0.134547
53495	0.247037	-0.220863	-9.621087	0.004046	0.001643	0.030268
53496	0.203184	-0.186829	-9.655404	0.009195	0.017340	0.102174
53497	0.204310	-0.311035	-9.612193	0.013400	0.019979	0.093562
53498	0.203131	-0.304544	-9.609553	0.003414	0.001563	0.043935
53499	0.246796	-0.214693	-9.606417	0.000828	-0.006617	0.042957
53500	0.231919	-0.190922	-9.631054	-0.002763	-0.009658	0.083874
53501	0.167424	-0.226566	-9.669645	0.012945	0.018168	0.120226
53502	0.163113	-0.359646	-9.598644	0.010966	0.008471	0.040652
53503	0.201221	-0.271301	-9.606589	0.006602	0.001846	-0.003195
53504	0.348502	-0.112854	-9.601049	-0.006571	-0.015310	0.052584
53505	0.379534	0.055245	-9.656986	-0.014175	-0.015423	0.329111
53506	0.140269	-0.273322	-9.655143	-0.004039	0.012740	0.489538
53507	0.009939	-0.535374	-9.567983	0.013896	0.031472	0.237849
53508	0.232156	-0.252536	-9.564407	-0.008916	-0.015688	0.089356
53509	0.199902	-0.232905	-9.614030	-0.022502	-0.039073	0.091003
53510	0.180642	-0.113571	-9.702440	-0.007499	-0.012531	0.142918
53511	0.191467	-0.274729	-9.607753	0.005125	0.010457	0.219698
53512	0.112591	-0.362818	-9.613953	0.003440	0.005660	0.111497
53513	0.160508	-0.263840	-9.617494	0.005005	0.002074	0.005566
53514	0.159346	-0.238423	-9.640130	0.006772	0.005860	-0.000801
53515	0.147515	-0.237340	-9.671510	0.018858	0.021368	-0.012566
53516	0.179322	-0.233801	-9.644517	0.036529	0.052201	-0.026504
53517	0.224475	-0.196713	-9.615353	0.028821	0.037871	-0.021719
53518	0.206805	-0.247704	-9.632646	0.017895	0.030810	-0.005984
53519	0.282381	-0.261739	-9.554827	0.009948	0.025335	0.013759
53520	0.229698	-0.215531	-9.639486	0.005923	0.005445	0.026004
53521	0.182437	-0.118732	-9.749319	0.004296	0.046071	0.095300
53522	0.100883	-0.363108	-9.787646	0.000165	0.157270	0.084895
53523	0.447329	-0.269347	-9.353646	0.000587	0.098119	0.044165
53524	0.302497	-0.125308	-9.597557	0.003905	0.015086	0.063427
53525	0.307525	-0.150257	-9.625269	0.000683	0.017523	0.141608
53526	0.280299	-0.161564	-9.704656	0.008642	0.027144	0.166596
53527	0.379747	-0.388092	-9.533326	0.032028	0.085515	0.154891
53528	0.358113	-0.322843	-9.556618	0.004648	0.008233	0.078781
53529	0.314261	-0.326301	-9.635802	0.004147	-0.004414	0.043413
53530	0.320073	-0.263206	-9.635561	0.005261	0.008124	0.032939
53531	0.347369	-0.264299	-9.610895	0.007474	0.010460	0.019796
53532	0.288657	-0.298803	-9.712586	0.007538	0.022029	0.002916
53533	0.361514	-0.229747	-9.598479	0.009129	0.073288	0.006332
53534	0.333131	-0.245622	-9.670458	0.007410	0.043581	0.017853
53535	0.334584	-0.204900	-9.689919	0.007945	0.098228	0.042354
53536	0.355754	-0.227655	-9.737245	0.010000	0.120852	0.065111
53537	0.337584	-0.352444	-9.813349	0.011907	0.204288	0.041220
53538	0.442600	-0.257141	-9.700638	0.016628	0.293487	0.017432
53539	0.583589	-0.188319	-9.579668	0.015621	0.308079	0.038191
53540	0.683619	-0.234201	-9.540721	0.012993	0.266227	0.073918
53541	0.667678	-0.389978	-9.691058	0.015512	0.283062	0.046365
53542	0.785513	-0.298915	-9.595031	0.017785	0.298240	0.007937
53543	0.797562	-0.198647	-9.704806	0.014098	0.335035	0.021208
53544	0.957212	-0.279082	-9.506402	0.012305	0.347502	0.039737
53545	1.039810	-0.280173	-9.548533	0.012623	0.318959	0.039722
53546	1.021218	-0.362410	-9.680332	0.014918	0.337443	0.012692
53547	1.214590	-0.289356	-9.463900	0.014529	0.377629	-0.004319
53548	1.273627	-0.304079	-9.567425	0.013765	0.321063	-0.012148
53549	1.357579	-0.225230	-9.498387	0.013756	0.342479	0.001589
53550	1.440353	-0.193627	-9.495742	0.006269	0.308693	0.057053
53551	1.443315	-0.407262	-9.622027	0.006192	0.343168	0.044532
53552	1.658214	-0.340931	-9.316258	0.013227	0.329168	-0.004771
53553	1.650451	-0.283234	-9.499188	0.012579	0.291359	-0.009945
53554	1.687525	-0.296685	-9.532101	0.011117	0.305522	-0.002274
53555	1.775324	-0.291813	-9.491156	0.011479	0.352669	0.005463
53556	1.875939	-0.326285	-9.447236	0.010012	0.347454	0.003896
53557	2.015221	-0.273165	-9.362066	0.008732	0.352922	0.005947
53558	2.079428	-0.351308	-9.351466	0.011884	0.303550	-0.000827
53559	2.087043	-0.307303	-9.461766	0.015091	0.322165	-0.013209
53560	2.186273	-0.291832	-9.398583	0.012710	0.349236	-0.011333
53561	2.342409	-0.300303	-9.277424	0.010943	0.329942	-0.005799
53562	2.425608	-0.268556	-9.254660	0.010411	0.285075	0.006670
53563	2.355757	-0.340828	-9.431246	0.015264	0.289805	-0.003541
53564	2.537284	-0.334236	-9.224479	0.018582	0.333423	-0.016892
53565	2.561248	-0.336792	-9.289401	0.016490	0.289089	-0.023392
53566	2.670801	-0.278436	-9.245134	0.014345	0.308001	-0.013620
53567	2.715202	-0.331822	-9.218244	0.012892	0.288612	-0.007475
53568	2.765619	-0.356208	-9.223139	0.018427	0.286006	-0.019293
53569	2.887902	-0.308802	-9.140318	0.013296	0.281281	-0.022053
53570	2.891965	-0.320237	-9.238680	0.011115	0.274507	-0.012704
53571	2.938522	-0.313842	-9.246311	0.014498	0.306745	-0.012721
53572	3.028032	-0.318225	-9.182506	0.013350	0.352416	-0.009554
53573	3.129527	-0.328857	-9.125848	0.015406	0.356806	-0.017790
53574	3.242298	-0.349206	-9.043134	0.011505	0.356397	-0.020829
53575	3.364180	-0.343650	-8.956697	0.014252	0.319720	-0.029171
53576	3.470557	-0.305111	-8.886601	0.016295	0.236425	-0.032175
53577	3.371350	-0.299057	-9.123612	0.014188	0.230941	-0.015793
53578	3.436057	-0.325814	-9.060991	0.013346	0.288551	-0.016275
53579	3.560740	-0.323040	-8.922803	0.013054	0.292756	-0.021470
53580	3.670963	-0.306197	-8.831368	0.010388	0.262470	-0.013538
53581	3.669012	-0.332402	-8.916883	0.009513	0.221103	-0.012698
53582	3.648550	-0.321287	-9.024313	0.012366	0.264195	-0.010770
53583	3.793840	-0.324767	-8.848086	0.011162	0.298370	-0.009209
53584	3.880061	-0.315108	-8.756657	0.005940	0.247174	-0.002001
53585	3.845297	-0.300044	-8.943282	-0.001760	0.270383	0.010600
53586	3.953415	-0.335443	-8.854421	-0.006351	0.329483	0.023012
53587	4.075923	-0.314890	-8.677452	-0.006975	0.310234	0.022318
53588	4.096283	-0.346040	-8.695855	-0.003898	0.278290	0.015863
53589	4.184240	-0.326115	-8.666495	0.005100	0.257291	0.000994
53590	4.275700	-0.329199	-8.592993	0.002834	0.221436	0.005424
53591	4.250747	-0.320885	-8.695964	0.003809	0.213031	0.009300
53592	4.393148	-0.347552	-8.510992	0.005371	0.196677	0.001948
53593	4.397251	-0.336676	-8.508513	0.007546	0.119555	-0.007643
53594	4.263841	-0.328795	-8.814897	0.007625	0.147352	-0.010158
53595	4.376080	-0.286256	-8.672086	0.006227	0.229010	-0.000002
53596	4.548718	-0.299220	-8.409833	-0.010181	0.221535	0.027469
53597	4.513630	-0.387906	-8.505862	-0.004651	0.154510	0.020138
53598	4.471460	-0.347306	-8.660597	0.005957	0.191099	-0.002075
53599	4.496401	-0.308110	-8.712035	0.005862	0.281764	-0.003618
53600	4.629575	-0.335377	-8.491266	0.008636	0.351100	-0.003851
53601	4.785126	-0.310757	-8.295153	0.009357	0.322873	-0.002653
53602	4.801721	-0.336167	-8.413471	0.004811	0.288004	0.009094
53603	4.824124	-0.358906	-8.440224	0.007673	0.344322	0.003698
53604	4.979974	-0.335690	-8.212316	0.010285	0.342388	-0.004657
53605	5.098384	-0.323581	-8.088468	0.005849	0.277639	-0.006125
53606	5.050056	-0.343232	-8.268512	-0.001075	0.234260	-0.001079
53607	5.101419	-0.321849	-8.229443	-0.009608	0.259827	0.002994
53608	5.214350	-0.318409	-8.070166	-0.016703	0.253301	0.018748
53609	5.290640	-0.339968	-7.997659	-0.007914	0.172267	0.008035
53610	5.215176	-0.376320	-8.142762	-0.004950	0.147946	-0.010697
53611	5.220144	-0.345311	-8.200687	-0.018147	0.188105	-0.027058
53612	5.279235	-0.341565	-8.174988	-0.023050	0.227562	-0.031550
53613	5.359515	-0.303776	-8.093955	-0.027650	0.275823	-0.034628
53614	5.509912	-0.262233	-7.830367	-0.019676	0.212128	-0.027841
53615	5.355330	-0.314474	-8.166222	-0.022490	0.224841	-0.028679
53616	5.371470	-0.314123	-8.209392	-0.039078	0.349180	-0.043865
53617	5.677073	-0.239358	-7.729454	-0.042609	0.392843	-0.048187
53618	5.766235	-0.198862	-7.634618	-0.022357	0.252263	-0.036699
53619	5.652524	-0.253392	-7.922596	-0.022182	0.252040	-0.034898
53620	5.753628	-0.208920	-7.799440	-0.031539	0.303427	-0.039799
53621	5.837522	-0.190952	-7.687775	-0.030569	0.285851	-0.036168
53622	5.887250	-0.182107	-7.652066	-0.031913	0.298791	-0.031789
53623	6.041933	-0.150915	-7.446847	-0.019551	0.212020	-0.025146
53624	5.919668	-0.211283	-7.727396	-0.012780	0.167015	-0.023630
53625	5.912099	-0.197548	-7.784717	-0.027970	0.279641	-0.034919
53626	6.128090	-0.149881	-7.393352	-0.026249	0.261071	-0.031467
53627	6.143256	-0.139385	-7.413718	-0.017422	0.203397	-0.026013
53628	6.161785	-0.135381	-7.475370	-0.013769	0.173400	-0.023260
53629	6.147683	-0.165036	-7.541531	-0.015146	0.183037	-0.021990
53630	6.132041	-0.164251	-7.628689	-0.025433	0.249580	-0.030397
53631	6.241106	-0.116589	-7.421653	-0.033341	0.310546	-0.035550
53632	6.407939	-0.088712	-7.188379	-0.025463	0.275958	-0.032858
53633	6.380681	-0.071993	-7.297743	-0.020306	0.225185	-0.028155
53634	6.325336	-0.117456	-7.469077	-0.025849	0.272504	-0.034197
53635	6.468285	-0.087770	-7.225202	-0.033831	0.345488	-0.042234
53636	6.558795	-0.053973	-7.111392	-0.033756	0.325933	-0.040115
53637	6.609987	-0.032913	-7.060291	-0.026165	0.292609	-0.041161
53638	6.650653	-0.025968	-7.026563	-0.023421	0.298675	-0.041382
53639	6.655323	-0.052100	-7.130651	-0.019352	0.293435	-0.047984
53640	6.730348	-0.043921	-7.025856	-0.006658	0.357067	-0.074129
53641	6.846449	0.021726	-6.809013	0.000904	0.359273	-0.085698
53642	6.907543	0.047250	-6.756308	-0.013725	0.320790	-0.058427
53643	7.045620	0.063030	-6.574628	-0.012084	0.256623	-0.046699
53644	6.933528	0.032281	-6.795857	-0.000393	0.207654	-0.046938
53645	7.140770	0.071015	-6.420839	-0.008837	0.155877	-0.040375
53646	6.993958	0.031317	-6.775457	-0.013349	0.119452	-0.042548
53647	7.051699	0.067709	-6.675284	-0.026304	0.140922	-0.043096
53648	7.172254	0.172471	-6.417658	-0.004829	0.054718	-0.017648
53649	7.078596	0.090503	-6.621744	0.006211	0.020818	-0.010485
53650	7.079327	0.079602	-6.627436	0.008115	0.005153	-0.006164
53651	7.060674	0.081888	-6.650720	0.006203	0.002857	-0.005411
53652	7.072501	0.075396	-6.689973	0.007139	0.014814	-0.005173
53653	7.094086	0.093346	-6.618672	0.006764	0.032343	-0.005537
53654	7.120452	0.082751	-6.487943	0.006966	-0.019680	-0.002882
53655	7.059929	0.078524	-6.738733	0.006249	-0.012092	-0.004454
53656	7.092951	0.071689	-6.664780	0.005543	-0.001773	-0.004249
53657	7.079535	0.076399	-6.645652	0.006529	0.001090	-0.003441
53658	7.078760	0.086379	-6.624049	0.004891	-0.000548	-0.003470
53659	7.065427	0.080419	-6.661640	0.006883	0.000418	-0.004816
53660	7.081303	0.086860	-6.637292	0.005950	0.004109	-0.005415
53661	7.067171	0.080579	-6.625411	0.004304	0.003290	-0.002882
53662	7.082445	0.065147	-6.630622	0.007574	0.000712	-0.002441
53663	7.090092	0.067777	-6.635948	0.005231	0.002721	-0.004444
53664	7.071495	0.091417	-6.630284	0.006337	-0.000897	-0.003250
53665	7.075687	0.092637	-6.657727	0.006063	-0.001553	-0.002468
53666	7.064318	0.076974	-6.646907	0.006671	-0.003481	-0.003839
53667	7.079049	0.061666	-6.652691	0.005383	0.000882	-0.003067
53668	7.084616	0.063720	-6.644282	0.005376	0.004003	-0.005230
53669	7.077665	0.081811	-6.643683	0.004231	0.003797	-0.004855
53670	7.074602	0.069528	-6.637480	0.006448	0.002417	-0.002852
53671	7.076109	0.101450	-6.634865	0.004957	0.002062	-0.003663
53672	7.072263	0.067471	-6.658417	0.006530	0.001088	-0.003443
53673	7.057773	0.082103	-6.652390	0.005422	0.004703	-0.004640
53674	7.082950	0.081882	-6.619626	0.006122	0.004178	-0.004826
53675	7.085740	0.082453	-6.632612	0.006149	0.002969	-0.003448
53676	7.079331	0.089569	-6.653894	0.007676	0.001293	-0.003819
53677	7.073726	0.076270	-6.634438	0.005612	0.000835	-0.004442
53678	7.066086	0.072342	-6.663517	0.005940	0.004925	-0.002861
53679	7.056332	0.078240	-6.656452	0.004524	0.012211	-0.006822
53680	7.021851	0.091354	-6.866024	0.005920	0.062347	-0.003455
53681	7.130148	0.080488	-6.528515	0.006474	0.096438	-0.002682
53682	7.106202	0.094963	-6.589125	0.007957	0.070642	-0.002070
53683	7.083200	0.076607	-6.735615	0.007831	0.101293	-0.001525
53684	7.086471	0.067306	-6.708106	0.007125	0.174716	-0.002465
53685	7.198777	0.061015	-6.499233	0.009177	0.198902	-0.005505
53686	7.197756	0.076298	-6.552263	0.013028	0.207249	-0.006717
53687	7.210773	0.095153	-6.620924	0.017051	0.238255	-0.009587
53688	7.264486	0.089861	-6.472732	0.015388	0.290554	-0.006471
53689	7.335960	0.057862	-6.366847	0.019984	0.295974	-0.011686
53690	7.316640	0.094442	-6.532228	0.027045	0.350447	-0.017327
53691	7.403454	0.074169	-6.363868	0.018220	0.437066	-0.006674
53692	7.538275	0.056821	-6.025187	0.023304	0.456529	-0.010066
53693	7.632111	0.058005	-5.952888	0.027083	0.374824	-0.015631
53694	7.645758	0.023648	-5.986875	0.036770	0.370438	-0.024068
53695	7.696775	0.062365	-5.936345	0.063471	0.367287	-0.042868
53696	7.765403	0.103549	-5.794871	0.054345	0.363819	-0.034104
53697	7.811944	0.101401	-5.713592	0.033620	0.335718	-0.016486
53698	7.832622	0.079716	-5.787989	0.014676	0.317719	-0.006612
53699	7.858492	0.061423	-5.814398	0.008513	0.380864	-0.000449
53700	7.961197	0.041309	-5.542251	0.008710	0.407627	0.002610
53701	8.003935	0.057868	-5.558218	0.009605	0.413442	-0.000435
53702	8.070883	0.059227	-5.477016	0.010323	0.439011	0.003761
53703	8.146381	0.062931	-5.287213	0.008628	0.437804	-0.000044
53704	8.196353	0.066566	-5.230923	0.009339	0.420344	0.001560
53705	8.244549	0.049076	-5.169383	0.008307	0.426665	0.001420
53706	8.296533	0.039544	-5.045516	0.008609	0.427639	0.002744
53707	8.384821	0.048566	-4.898116	0.008276	0.420093	0.002450
53708	8.425904	0.038415	-4.862120	0.010516	0.383033	0.000010
53709	8.466867	0.053376	-4.804989	0.010672	0.383362	0.000238
53710	8.493769	0.049275	-4.769270	0.008448	0.386441	0.000651
53711	8.555805	0.044507	-4.678360	0.006568	0.406188	0.002529
53712	8.602693	0.050322	-4.612796	0.007971	0.417542	0.003311
53713	8.649172	0.046195	-4.528843	0.007765	0.445061	0.004638
53714	8.701962	0.036463	-4.346573	0.009184	0.449655	0.001587
53715	8.711896	0.043901	-4.433200	0.013133	0.494003	0.000404
53716	8.800491	0.022114	-4.188961	0.020611	0.533194	-0.000928
53717	8.827640	0.028205	-4.145906	0.043614	0.561344	-0.013600
53718	8.934454	0.047732	-3.881760	0.059412	0.576238	-0.019394
53719	9.000485	0.033617	-3.731567	0.047044	0.572467	-0.016822
53720	9.084275	0.016836	-3.477705	0.066011	0.516114	-0.024478
53721	9.123440	0.023980	-3.441774	0.104030	0.444640	-0.041810
53722	9.147868	0.039559	-3.407271	0.095505	0.412617	-0.037024
53723	9.189701	0.022120	-3.308777	0.043221	0.416578	-0.017676
53724	9.213151	0.035240	-3.236546	0.021520	0.404902	-0.007515
53725	9.270419	0.037771	-3.079076	0.018780	0.380724	-0.004744
53726	9.286093	0.012980	-3.036397	0.020878	0.355093	-0.005967
53727	9.269514	0.035431	-3.065168	0.019545	0.365022	-0.003560
53728	9.336656	0.036450	-2.942328	0.011493	0.387280	-0.003352
53729	9.370238	0.016629	-2.806152	0.006450	0.389579	-0.001673
53730	9.402766	0.018278	-2.627576	0.004505	0.362973	-0.000455
53731	9.401663	0.020809	-2.725311	-0.000551	0.345457	-0.002586
53732	9.431131	0.017648	-2.618529	-0.011895	0.384347	-0.000043
53733	9.491709	0.025337	-2.422655	-0.020869	0.369972	0.003253
53734	9.491382	0.039459	-2.380016	-0.019447	0.348231	0.003109
53735	9.503650	0.017717	-2.331345	-0.005759	0.348946	0.000775
53736	9.502173	0.029860	-2.377278	-0.002243	0.388136	0.000369
53737	9.569886	0.022114	-2.118396	0.002230	0.426613	0.003056
53738	9.618616	-0.037095	-1.953612	0.001273	0.403351	-0.001167
53739	9.592233	-0.045361	-1.928229	-0.006753	0.361620	-0.028298
53740	9.599311	0.002862	-1.918967	-0.016184	0.390503	-0.043289
53741	9.657552	0.057717	-1.676073	-0.008348	0.381921	-0.047053
53742	9.681430	0.052503	-1.543716	-0.011935	0.341596	-0.045117
53743	9.674396	0.053286	-1.634852	-0.014898	0.305105	-0.038638
53744	9.655518	0.052782	-1.633038	-0.023915	0.359493	-0.045308
53745	9.715794	0.082446	-1.346984	-0.029464	0.360376	-0.045664
53746	9.726370	0.088484	-1.321721	-0.035942	0.333266	-0.044191
53747	9.733222	0.111380	-1.234404	-0.045269	0.326666	-0.039827
53748	9.723540	0.108683	-1.290734	-0.079898	0.351856	-0.036785
53749	9.761689	0.139713	-1.054043	-0.102750	0.370448	-0.037300
53750	9.774402	0.169932	-0.941515	-0.070957	0.338153	-0.034057
53751	9.772949	0.145076	-0.933487	-0.039396	0.322241	-0.034048
53752	9.771230	0.152230	-0.923962	-0.046655	0.336772	-0.033258
53753	9.824304	0.168692	-0.642187	-0.124350	0.368469	-0.026244
53754	9.837035	0.206565	-0.497356	-0.137765	0.285575	-0.008579
53755	9.810391	0.193275	-0.605159	-0.082197	0.229160	-0.004919
53756	9.805623	0.196581	-0.610356	-0.062418	0.231117	-0.005736
53757	9.831922	0.183094	-0.484059	-0.123287	0.244017	-0.002093
53758	9.847148	0.193351	-0.336990	-0.149876	0.208242	0.001101
53759	9.826057	0.180342	-0.352031	-0.075958	0.158410	-0.000837
53760	9.822918	0.188163	-0.437065	-0.014334	0.154496	-0.008420
53761	9.804027	0.178613	-0.485579	0.006728	0.196925	-0.006465
53762	9.806370	0.164386	-0.484634	0.007105	0.276897	-0.011717
53763	9.837864	0.190314	-0.216406	0.003636	0.340719	-0.021515
53764	9.884503	0.137165	0.156735	0.002796	0.283823	-0.026337
53765	9.884844	0.217156	0.259713	0.008136	0.103469	-0.055920
53766	9.853189	0.297766	0.119508	0.014808	0.016776	-0.009891
53767	9.849768	0.212870	-0.061135	0.010669	0.010242	-0.006834
53768	9.840083	0.206376	-0.038250	0.010490	0.009996	-0.003690
53769	9.831395	0.208748	-0.059408	0.007341	-0.000695	-0.005023
53770	9.848019	0.218355	-0.048355	0.006425	0.000082	-0.002688
53771	9.831363	0.210289	-0.059291	0.006699	0.002053	-0.002300
53772	9.835931	0.225240	-0.051219	0.005487	0.001846	-0.002357
53773	9.835931	0.200651	-0.065100	0.006272	0.002195	-0.005474
53774	9.843383	0.207121	-0.054370	0.006147	0.001879	-0.002941
53775	9.833696	0.200115	-0.033165	0.006989	0.004482	-0.003221
53776	9.838764	0.219673	-0.045856	0.005062	0.004313	-0.002084
53777	9.845059	0.206836	-0.061187	0.006093	0.001950	-0.002329
53778	9.840952	0.223313	-0.075361	0.004952	0.002129	-0.004308
53779	9.843835	0.215300	-0.072075	0.003445	0.003261	-0.003311
53780	9.839940	0.190456	-0.045783	0.002512	0.001258	-0.003114
53781	9.832421	0.211417	-0.041083	0.005225	0.004100	-0.003921
53782	9.832408	0.212165	-0.040432	0.006792	0.001456	-0.002215
53783	9.850097	0.205008	-0.086046	0.004477	0.000899	-0.003555
53784	9.834086	0.211447	-0.049129	0.006661	0.002583	-0.002997
53785	9.841531	0.217643	-0.038272	0.006661	0.002583	-0.002997
53786	9.832865	0.219701	-0.059971	0.005504	0.002304	-0.003667
53787	9.835755	0.211519	-0.056590	0.006421	0.003852	-0.002555
53788	9.842074	0.198655	-0.071873	0.005946	0.002622	-0.001802
53789	9.831187	0.198404	-0.062527	0.007006	0.004939	-0.004533
53790	9.834080	0.190295	-0.059135	0.005581	0.001249	-0.002273
53791	9.837425	0.212068	-0.063055	0.005963	0.003078	-0.003112
53792	9.846576	0.216134	-0.061497	0.006717	0.002512	-0.003610
53793	9.832853	0.199337	-0.069492	0.006204	0.001809	-0.003553
53794	9.833284	0.230278	-0.075948	0.006531	0.003709	-0.003781
53795	9.840276	0.206478	-0.057779	0.005908	0.003150	-0.002500
53796	9.848241	0.217015	-0.068310	0.005488	0.001848	-0.002358
53797	9.846602	0.194334	-0.072568	0.005870	0.003677	-0.003198
53798	9.838522	0.210923	-0.046265	0.005887	0.004132	-0.004508
53799	9.843671	0.205052	-0.073337	0.007634	0.004062	-0.002500
53800	9.841936	0.208199	-0.063173	0.006129	0.002863	-0.004949
53801	9.843536	0.232630	-0.057527	0.005320	0.003501	-0.003840
53802	9.833281	0.211281	-0.083984	0.006663	0.002584	-0.002998
53803	9.832731	0.207656	-0.061944	0.006625	0.003111	-0.003696
53804	9.835629	0.199639	-0.058454	0.006532	0.003710	-0.003782
53805	9.833890	0.202746	-0.048255	0.004659	0.003468	-0.003258
53806	9.843578	0.211300	-0.067893	0.005320	0.003501	-0.003841
53807	9.845166	0.235571	-0.062312	0.006719	0.002513	-0.003611
53808	9.810242	0.221226	-0.074655	0.006075	0.002935	-0.004338
53809	9.838886	0.225247	-0.059264	0.006058	0.002481	-0.003028
53810	9.847620	0.199227	-0.050531	0.005965	0.003079	-0.003114
53811	9.844691	0.208990	-0.052423	0.006533	0.003710	-0.003784
53812	9.831010	0.192182	-0.060176	0.005508	0.002304	-0.003669
53813	9.848127	0.206288	-0.069785	0.005414	0.002902	-0.003756
53814	9.834303	0.215115	-0.063270	0.006533	0.003710	-0.003784
53815	9.855520	0.213667	-0.057895	0.005321	0.003501	-0.003842
53816	9.834277	0.216806	-0.061606	0.007122	0.003362	-0.002445
53817	9.846897	0.216310	-0.078553	0.005927	0.003606	-0.003814
53818	9.846324	0.212838	-0.056483	0.004902	0.002199	-0.003699
53819	9.841816	0.199217	-0.063318	0.006478	0.003783	-0.003173
53820	9.843544	0.197771	-0.072011	0.005602	0.001706	-0.003583
53821	9.823872	0.224251	-0.071160	0.005304	0.003048	-0.002533
53822	9.837120	0.212585	-0.054671	0.006422	0.003856	-0.002561
53823	9.853670	0.222241	-0.042881	0.005052	0.001528	-0.004224
53824	9.845341	0.263569	-0.004438	0.003131	-0.009494	0.004626
53825	9.837820	0.114924	-0.237881	-0.003518	-0.010196	0.002994
53826	9.839718	0.240901	0.030281	-0.004423	0.025409	-0.014986
53827	9.824977	0.221943	-0.055507	0.005190	0.004626	-0.004629
53828	9.852606	0.207145	-0.066182	0.004997	0.001601	-0.003612
53829	9.849100	0.212410	-0.047091	0.006703	0.002063	-0.002300
53830	9.835496	0.260606	0.019652	0.001713	-0.007528	0.002385
53831	9.861629	0.308908	0.085911	-0.029379	-0.054572	0.030882
53832	9.824451	0.097241	-0.279316	-0.050415	-0.028384	0.018995
53833	9.834371	0.188298	-0.089781	-0.027032	-0.005082	0.005025
53834	9.841584	0.232381	-0.120766	-0.011605	-0.001029	0.016207
53835	9.878775	0.303294	-0.041681	-0.012025	-0.004399	0.047895
53836	9.936274	0.486720	-0.091971	-0.070662	-0.005854	0.138371
53837	9.865434	0.204529	-0.201287	0.002342	0.003373	0.226597
53838	9.834281	0.040355	-0.026792	0.028023	0.008425	0.233240
53839	9.894404	0.139710	-0.124957	0.025818	0.000228	0.249046
53840	9.855424	0.010831	-0.146234	0.039402	0.012132	0.298824
53841	9.888933	0.022957	-0.046740	0.038081	0.019028	0.341920
53842	9.893565	-0.036942	-0.102527	0.037691	0.009350	0.436462
53843	9.842346	-0.293697	-0.101777	0.063983	0.024488	0.501233
53844	9.798517	-0.512875	-0.034960	0.017651	0.034998	0.490067
53845	9.845952	-0.491726	-0.044640	0.003532	0.031199	0.510409
53846	9.807450	-0.769366	0.046360	0.021256	0.017017	0.539214
53847	9.722271	-1.091650	-0.025879	-0.025734	-0.028077	0.430194
53848	9.804271	-0.998700	-0.106717	-0.026138	0.004428	0.395028
53849	9.742092	-1.121304	-0.024889	-0.075084	0.013828	0.382377
53850	9.762881	-1.179245	-0.108752	-0.078776	0.017384	0.360391
53851	9.746315	-1.264738	-0.057217	-0.055376	0.016938	0.367326
53852	9.729296	-1.360909	-0.083606	-0.044694	0.017760	0.347283
53853	9.691888	-1.479569	-0.054565	-0.027063	0.013403	0.321589
53854	9.688884	-1.547116	-0.041756	-0.014552	0.013816	0.270826
53855	9.677400	-1.631674	-0.083998	0.008453	0.010186	0.234904
53856	9.679803	-1.639488	-0.071429	-0.032742	0.015448	0.205039
53857	9.737746	-1.542892	-0.078604	0.005805	0.011006	0.228962
53858	9.700784	-1.647636	-0.037226	0.033160	0.006754	0.274424
53859	9.700090	-1.710318	-0.054514	0.021717	0.009331	0.289401
53860	9.659429	-1.855634	-0.076142	0.019207	0.012836	0.320231
53861	9.620215	-1.987449	-0.049491	0.011886	0.015573	0.297719
53862	9.634677	-1.973020	-0.044446	0.008548	0.012623	0.286126
53863	9.631861	-1.981132	-0.036350	0.013582	0.012341	0.308648
53864	9.617237	-2.072021	-0.039171	0.022042	0.011997	0.347427
53865	9.574205	-2.219889	-0.031069	0.003998	0.017650	0.370865
53866	9.585910	-2.214340	-0.049217	-0.013440	0.024727	0.394758
53867	9.529025	-2.417706	-0.018174	-0.018297	0.028526	0.417969
53868	9.511085	-2.470246	-0.025058	-0.005831	0.024219	0.423529
53869	9.481178	-2.535037	-0.021077	0.022859	0.016606	0.460706
53870	9.435865	-2.748758	-0.018814	0.037827	0.011965	0.477568
53871	9.400146	-2.828030	-0.002564	0.018243	0.019700	0.480318
53872	9.375585	-2.945350	-0.004721	0.011493	0.023633	0.498520
53873	9.298866	-3.112742	0.001904	0.005352	0.026777	0.506394
53874	9.267860	-3.204069	0.022647	-0.008704	0.030152	0.489144
53875	9.290636	-3.217122	0.005390	-0.006080	0.028996	0.506159
53876	9.217633	-3.347994	0.011362	0.006881	0.025985	0.550553
53877	9.138281	-3.549320	0.005686	0.011292	0.024041	0.570926
53878	9.083005	-3.705261	0.029973	0.013534	0.026198	0.576430
53879	9.004640	-3.880172	0.048484	0.021092	0.022007	0.569548
53880	8.990229	-3.895977	0.035476	0.019253	0.022910	0.569525
53881	8.923805	-4.016915	0.038771	0.021972	0.022148	0.602166
53882	8.851650	-4.232320	0.049137	0.023161	0.022043	0.617383
53883	8.733878	-4.473369	0.044869	0.023251	0.021924	0.589871
53884	8.664178	-4.635094	0.053457	0.020727	0.019282	0.531606
53885	8.648750	-4.646122	0.073150	0.019488	0.019156	0.487218
53886	8.582072	-4.749146	0.078550	0.017724	0.020930	0.484666
53887	8.502774	-4.914303	0.093167	0.017112	0.014154	0.450545
53888	8.487570	-4.963306	0.096555	0.011754	0.011098	0.417483
53889	8.416744	-5.088046	0.120498	0.005474	-0.002176	0.377797
53890	8.389950	-5.096654	0.078973	0.002452	-0.011607	0.341354
53891	8.332329	-5.195973	0.065392	0.003763	-0.012338	0.312444
53892	8.303323	-5.243431	0.089566	0.002243	-0.011635	0.294994
53893	8.280113	-5.286816	0.082840	-0.000051	-0.012248	0.276448
53894	8.254039	-5.310752	0.059963	-0.000506	-0.012231	0.275927
53895	8.192167	-5.448208	0.010821	0.001444	-0.009505	0.270728
53896	8.199918	-5.395889	0.050272	0.007435	0.000219	0.249644
53897	8.113523	-5.569381	0.047691	0.006627	0.000378	0.241587
53898	8.093485	-5.532897	0.053386	0.006297	-0.000030	0.218022
53899	8.072694	-5.572658	0.073692	0.005212	-0.001952	0.208373
53900	8.061732	-5.617352	0.085349	0.004371	-0.003166	0.211731
53901	8.043921	-5.654074	0.083005	0.000633	-0.007113	0.214787
53902	7.976783	-5.721841	0.067138	-0.003497	-0.013341	0.218812
53903	7.964296	-5.744083	0.046979	-0.005658	-0.016888	0.213747
53904	7.723332	-6.172522	-0.018798	-0.007320	-0.007454	0.106601
53905	7.927511	-5.763518	0.053991	-0.010567	0.003993	0.035309
53906	7.879750	-5.871444	-0.016426	0.005816	-0.000694	0.009687
53907	7.986021	-5.688096	0.080413	-0.009550	0.007182	0.020468
53908	7.956211	-5.755743	0.036128	-0.033392	0.012255	0.065180
53909	7.860756	-5.884155	0.017359	-0.025759	0.005873	0.068305
53910	7.794033	-6.004206	-0.031295	-0.008369	0.009033	0.013353
53911	7.833374	-5.938379	0.003466	0.013791	0.012133	-0.053319
53912	7.919243	-5.801416	0.042532	0.018463	0.016239	-0.078804
53913	7.918517	-5.797856	0.031555	0.020797	0.015558	-0.076729
53914	8.015458	-5.648763	0.087610	0.014933	0.011358	-0.053136
53915	7.932519	-5.775395	0.049375	0.008115	0.004755	-0.013579
53916	7.948680	-5.759476	0.046694	0.005335	0.002723	0.002897
53917	7.932783	-5.781483	0.033552	0.005902	-0.000090	0.009604
53918	7.931808	-5.782817	0.034404	0.005546	0.000341	0.003896
53919	7.931022	-5.751124	0.035221	0.005041	0.000934	0.003162
53920	7.948701	-5.761276	0.028874	0.005077	-0.000905	0.011578
53921	7.902055	-5.848841	0.014931	0.004302	0.000904	0.006268
53922	7.899235	-5.821369	0.028471	0.009461	0.004778	-0.016040
53923	7.935152	-5.776790	0.028501	0.007718	0.005840	-0.015014
53924	7.958376	-5.768164	0.039416	0.008500	0.003938	-0.010313
53925	7.953439	-5.761202	0.018697	0.005066	0.003939	-0.001678
53926	7.928943	-5.772956	0.023275	0.005276	0.001558	-0.000678
53927	7.935025	-5.781575	0.037467	0.006300	0.000182	-0.000429
53928	7.935017	-5.781579	0.038631	0.006581	0.002162	0.000527
53929	7.931642	-5.790850	0.042554	0.005034	0.001033	0.003774
53930	7.901295	-5.829717	0.024621	0.006601	0.001875	-0.001305
53931	7.925665	-5.775537	0.050732	0.007250	0.004594	-0.007332
53932	7.935415	-5.754741	0.025396	0.007971	0.000172	0.005264
53933	7.934153	-5.782719	0.044824	0.008773	-0.005396	0.010535
53934	7.915666	-5.816248	0.025108	0.011388	0.000450	-0.001538
53935	7.972576	-5.718818	0.057745	0.008799	-0.002395	0.005692
53936	7.939457	-5.758242	0.048226	0.009909	-0.009059	0.032420
53937	7.891394	-5.813643	0.020773	0.012156	-0.015345	0.046620
53938	7.924113	-5.754560	0.039344	0.007080	-0.012322	0.044723
53939	7.963765	-5.705185	0.048626	0.000467	-0.017635	0.084129
53940	7.944371	-5.739932	0.037184	0.021026	-0.047539	0.146498
53941	7.882251	-5.873773	0.001698	0.015155	-0.045866	0.162997
53942	7.876046	-5.842150	0.015005	0.008431	-0.042970	0.174284
53943	7.799262	-5.945859	-0.022943	0.001771	-0.045444	0.195210
53944	7.892197	-5.836243	-0.127120	0.024339	-0.025985	0.223669
53945	7.778941	-5.973968	-0.006348	0.046541	-0.018341	0.304204
53946	7.703744	-6.066246	-0.033598	0.045887	-0.017053	0.319264
53947	7.675394	-6.090389	-0.011786	0.045608	-0.010739	0.354314
53948	7.595814	-6.194900	-0.005647	0.036641	-0.002281	0.380682
53949	7.562338	-6.220073	0.013494	0.042848	-0.014635	0.400834
53950	7.483194	-6.310836	0.001195	0.070076	-0.032241	0.445189
53951	7.321508	-6.520684	-0.021170	0.042705	0.003116	0.453729
53952	7.318719	-6.499153	0.021738	0.015041	0.019097	0.446516
53953	7.339083	-6.437970	0.006909	0.019050	0.020467	0.520997
53954	7.151894	-6.675515	0.041711	0.062183	-0.015065	0.588911
53955	7.056423	-6.764056	0.074022	0.088936	-0.043876	0.608042
53956	6.935258	-6.887203	0.055148	0.130217	-0.089924	0.648387
53957	6.766112	-7.056913	0.012029	0.113230	-0.076713	0.656090
53958	6.645207	-7.174623	0.022306	0.073772	-0.034779	0.652110
53959	6.550099	-7.226044	-0.000476	0.069781	-0.016026	0.668776
53960	6.394304	-7.401054	0.065669	0.057846	-0.004356	0.672578
53961	6.362548	-7.377372	0.198048	0.088881	-0.049671	0.708414
53962	6.074642	-7.683633	-0.044110	0.095095	-0.049822	0.713597
53963	6.003987	-7.732345	0.097071	0.035612	0.032531	0.698738
53964	5.849010	-7.837459	0.069640	0.051965	0.008202	0.692204
53965	5.620290	-8.089055	0.092679	0.033915	0.037246	0.648901
53966	5.516833	-8.169002	0.152118	0.032187	0.027886	0.570010
53967	5.428582	-8.206266	0.105362	0.019668	0.038319	0.511750
53968	5.418545	-8.121644	0.176417	0.015654	0.037897	0.480781
53969	5.343078	-8.151050	0.199607	0.035946	0.004539	0.522946
53970	5.253177	-8.204531	0.251395	0.069483	-0.048945	0.543521
53971	5.064764	-8.363358	0.111148	0.082547	-0.065769	0.584472
53972	4.947355	-8.453595	0.084502	0.057639	-0.028142	0.559705
53973	4.912737	-8.359379	0.108379	0.038485	0.015140	0.598831
53974	4.736242	-8.485977	0.194251	0.037691	0.022133	0.661300
53975	4.576078	-8.610770	0.201637	0.035132	0.025848	0.702971
53976	4.315343	-8.835610	0.195257	0.032035	0.027091	0.685790
53977	4.192168	-8.858220	0.174587	0.024151	0.044693	0.652485
53978	4.200111	-8.720528	0.257315	0.035332	0.022376	0.666540
53979	4.022985	-8.757565	0.353225	0.071448	-0.037675	0.768958
53980	3.702180	-9.046750	0.149199	0.087461	-0.080184	0.793658
53981	3.531357	-9.115391	0.211647	0.058364	-0.013000	0.779358
53982	3.367416	-9.135127	0.278102	0.048905	-0.002931	0.780390
53983	3.168610	-9.241180	0.285761	0.045015	-0.006661	0.770392
53984	2.983011	-9.344479	0.291019	0.052041	-0.028585	0.759013
53985	2.755464	-9.505121	0.201505	0.049565	-0.022728	0.697848
53986	2.664769	-9.420963	0.249607	0.035155	0.017126	0.638873
53987	2.479896	-9.454221	0.305668	0.031176	0.022257	0.637088
53988	2.355146	-9.484767	0.326943	0.028213	0.020459	0.628257
53989	2.320894	-9.410510	0.252755	0.032130	0.018191	0.648474
53990	2.052262	-9.607940	0.285841	0.033476	0.029159	0.664102
53991	1.810766	-9.741156	0.284785	0.025705	0.046113	0.592690
53992	1.744911	-9.647967	0.333931	0.022899	0.045292	0.534901
53993	1.617890	-9.609391	0.426777	0.026156	0.015031	0.541305
53994	1.516578	-9.672021	0.281967	0.025438	0.038759	0.545683
53995	1.387718	-9.715058	0.349450	0.029885	0.037937	0.518052
53996	1.301591	-9.694405	0.326075	0.028231	0.018070	0.509877
53997	1.137205	-9.721211	0.326461	0.023023	0.031882	0.491416
53998	1.058325	-9.670034	0.334924	0.021280	0.028029	0.492793
53999	0.875759	-9.709675	0.416783	0.020813	0.026167	0.513770
54000	0.777823	-9.797762	0.406134	0.022155	-0.009179	0.496131
54001	0.616671	-9.854492	0.300927	0.020428	0.011364	0.449509
54002	0.433387	-10.130408	0.441745	-0.003714	0.039736	0.386524
54003	0.399895	-9.969566	0.285194	-0.052778	0.038185	0.182388
54004	0.377600	-9.928104	0.238443	-0.031214	0.054034	0.113513
54005	0.417173	-9.770043	0.404111	-0.012347	0.068480	0.056938
54006	0.415984	-9.795140	0.414300	-0.017455	0.023610	0.059557
54007	0.459564	-9.732698	0.326166	-0.013675	0.009242	0.043752
54008	0.504441	-9.647572	0.302312	-0.029646	0.024723	0.091565
54009	0.428791	-9.694959	0.328739	-0.049158	0.046034	0.137632
54010	0.432332	-9.650435	0.362675	-0.075046	0.035113	0.202573
54011	0.274569	-9.831360	0.156859	-0.011881	0.009080	0.208951
54012	0.017725	-10.081527	0.270576	0.001751	0.015959	0.061621
54013	0.210041	-9.818581	0.231206	-0.000166	0.035295	0.018869
54014	0.256564	-9.760475	0.275724	0.000613	0.054001	0.013279
54015	0.196187	-9.808534	0.314692	0.002696	0.043209	0.008728
54016	0.229216	-9.785479	0.311254	0.006148	0.021794	-0.001937
54017	0.241341	-9.765760	0.273197	0.005659	0.003706	0.000480
54018	0.249804	-9.762820	0.271353	0.004479	0.004097	0.001961
54019	0.240015	-9.772915	0.298025	0.001577	0.001002	0.002751
54020	0.363792	-9.680972	0.436300	-0.015312	-0.020215	0.028518
54021	0.082867	-9.877617	0.120230	-0.005081	-0.007972	0.030761
54022	0.202635	-9.765327	0.266618	0.005529	0.001558	-0.002845
54023	0.196832	-9.765814	0.280347	0.006403	0.002726	-0.001617
54024	0.220930	-9.766611	0.286253	0.006381	0.003876	-0.003382
54025	0.216786	-9.771276	0.269674	0.007583	0.002333	-0.003098
54026	0.236959	-9.788189	0.249680	0.006404	0.002726	-0.001616
54027	0.230494	-9.770103	0.248320	0.005280	0.003334	-0.002459
54028	0.206155	-9.782959	0.228879	0.009217	0.003551	-0.002669
54029	0.183248	-9.764075	0.273842	0.005795	0.002984	-0.002403
54030	0.191549	-9.749726	0.280106	0.007510	0.001091	-0.002063
54031	0.212922	-9.778044	0.252324	0.005946	0.003291	-0.003993
54032	0.233627	-9.769812	0.256719	0.005890	0.003076	-0.001668
54033	0.243910	-9.778254	0.247444	0.006824	0.002283	-0.002292
54034	0.221032	-9.777362	0.244829	0.007243	0.001841	-0.002971
54035	0.193306	-9.763208	0.271354	0.006902	0.001349	-0.002850
54036	0.170098	-9.769464	0.291545	0.007070	0.002683	-0.003146
54037	0.197118	-9.760698	0.283925	0.006824	0.002283	-0.002290
54038	0.242349	-9.764670	0.285172	0.006898	0.003525	-0.003321
54039	0.244716	-9.768872	0.256130	0.005342	0.001371	-0.004306
54040	0.263627	-9.781545	0.266573	0.007261	0.002868	-0.001675
54041	0.204545	-9.773754	0.261085	0.005225	0.003120	-0.000130
54042	0.183940	-9.770496	0.267334	0.006635	0.002097	-0.003756
54043	0.154745	-9.795334	0.252462	0.008079	0.003130	-0.004797
54044	0.193340	-9.763156	0.298538	0.007833	0.002731	-0.003941
54045	0.204437	-9.764480	0.266778	0.007587	0.002332	-0.003085
54046	0.263059	-9.785944	0.258684	0.006216	0.002540	-0.003075
54047	0.274943	-9.780576	0.266375	0.007167	0.002776	-0.002405
54048	0.236363	-9.764599	0.263911	0.006385	0.003874	-0.003372
54049	0.173391	-9.780173	0.255218	0.006065	0.002235	-0.001484
54050	0.149486	-9.767907	0.260255	0.007834	0.002731	-0.003937
54051	0.172705	-9.757215	0.274275	0.008024	0.002918	-0.002467
54052	0.202771	-9.782705	0.243707	0.007000	0.001442	-0.002105
54053	0.263217	-9.765058	0.277192	0.008082	0.003128	-0.004790
54054	0.280178	-9.773020	0.255930	0.006407	0.002727	-0.001603
54055	0.250171	-9.754172	0.250317	0.007168	0.002776	-0.002401
54056	0.192754	-9.783433	0.275361	0.007762	0.001490	-0.002901
54057	0.145877	-9.763327	0.253239	0.006728	0.019474	-0.003755
54058	0.260810	-9.761982	0.119862	0.003799	0.115409	-0.001031
54059	0.292765	-9.785378	0.161287	-0.000398	0.335616	-0.002713
54060	0.140343	-9.779536	0.230997	-0.002853	0.450129	-0.006851
54061	0.061702	-9.780369	0.282912	0.003867	0.457545	-0.027999
54062	0.253744	-9.778965	0.241384	0.003198	0.332133	-0.013568
54063	0.307134	-9.734210	0.499508	0.003654	0.229452	-0.010147
54064	0.223530	-9.783422	0.346915	0.005331	0.048352	-0.004502
54065	0.198137	-9.775811	0.269595	0.006338	0.010092	-0.002871
54066	0.220932	-9.751047	0.237715	-0.002678	0.032286	0.019304
54067	0.216148	-9.795110	0.291250	0.003795	0.047088	0.002629
54068	0.251265	-9.778811	0.250071	0.006444	0.030566	-0.002412
54069	0.244722	-9.760762	0.248519	0.005634	0.056181	-0.002210
54070	0.221553	-9.778447	0.259762	0.005909	0.041573	-0.002302
54071	0.184267	-9.774017	0.247358	0.005077	0.046807	-0.001805
54072	0.181214	-9.774176	0.311219	0.004965	0.030564	-0.000070
54073	0.184641	-9.760068	0.267147	0.006886	0.003316	-0.000724
54074	0.218253	-9.783155	0.247282	0.005022	0.002841	-0.002127
54075	0.248998	-9.825200	0.407470	-0.080457	0.023293	0.002190
54076	0.246126	-9.749539	0.170827	-0.097199	0.018848	0.004061
54077	0.236694	-9.785645	0.263426	-0.077332	0.004138	0.000759
54078	0.186020	-9.827624	0.345835	-0.173682	0.008022	0.004989
54079	0.180688	-9.781582	0.147690	-0.263740	0.023864	0.008021
54080	0.181605	-9.786174	0.052558	-0.265806	0.015296	0.011053
54081	0.188808	-9.745643	-0.041862	-0.245430	-0.002009	0.007709
54082	0.205023	-9.777176	-0.075556	-0.229803	-0.001307	0.001743
54083	0.229407	-9.781287	-0.088788	-0.263265	0.025892	0.004887
54084	0.218649	-9.795570	-0.095902	-0.336941	0.045070	0.011552
54085	0.205904	-9.754449	-0.249587	-0.371730	0.010409	0.009680
54086	0.142782	-9.771198	-0.318280	-0.405290	-0.002317	0.008806
54087	0.155107	-9.765909	-0.368177	-0.474557	-0.009261	0.009331
54088	0.170009	-9.717431	-0.651266	-0.515179	-0.007984	0.013514
54089	0.175385	-9.674579	-0.897245	-0.456392	0.011779	0.015522
54090	0.186115	-9.705528	-0.915020	-0.384369	0.050663	0.016592
54091	0.209437	-9.770370	-0.711023	-0.460038	0.054552	0.019745
54092	0.197259	-9.681535	-1.064499	-0.564656	0.012910	0.019355
54093	0.131314	-9.622450	-1.345143	-0.491934	-0.004445	0.013929
54094	0.108113	-9.631446	-1.350607	-0.437175	0.008933	0.015470
54095	0.139628	-9.642876	-1.396793	-0.491180	0.029265	0.021519
54096	0.165589	-9.654450	-1.333425	-0.526106	0.020565	0.021830
54097	0.159236	-9.568594	-1.720395	-0.672072	-0.015431	0.021854
54098	0.137072	-9.446182	-2.180472	-0.505940	-0.011064	0.016847
54099	0.140979	-9.510784	-2.045865	-0.388164	-0.004002	0.013553
54100	0.118301	-9.488400	-2.122067	-0.368084	-0.004111	0.011591
54101	0.100943	-9.488044	-2.152733	-0.335864	0.006323	0.013506
54102	0.097692	-9.481331	-2.205643	-0.363337	0.011350	0.016746
54103	0.114245	-9.453788	-2.287180	-0.377740	0.001608	0.013978
54104	0.125485	-9.411820	-2.428202	-0.374713	-0.003720	0.012998
54105	0.132868	-9.398579	-2.479485	-0.380734	-0.004960	0.012681
54106	0.115017	-9.381028	-2.550467	-0.414932	-0.005193	0.014672
54107	0.086617	-9.327265	-2.677430	-0.464146	0.002761	0.018343
54108	0.071401	-9.286409	-2.891510	-0.457030	0.001211	0.017209
54109	0.062381	-9.271623	-2.876337	-0.441646	0.001495	0.018653
54110	0.070888	-9.235196	-2.967639	-0.500399	0.006837	0.020034
54111	0.091809	-9.161027	-3.179662	-0.546403	0.042323	0.034056
54112	0.098073	-9.122644	-3.313257	-0.514666	0.049030	0.035316
54113	0.077510	-9.096935	-3.368779	-0.510507	0.007534	0.023983
54114	0.064621	-9.007381	-3.568127	-0.518404	-0.009130	0.017689
54115	0.022322	-8.965614	-3.730900	-0.455631	-0.007350	0.014601
54116	0.029442	-8.926597	-3.752310	-0.432327	-0.007377	0.015899
54117	0.025262	-8.892849	-3.866048	-0.400109	-0.004488	0.013372
54118	0.048156	-8.911755	-3.764284	-0.450463	-0.002319	0.016709
54119	0.043669	-8.815611	-4.063585	-0.508828	-0.008919	0.017228
54120	0.057810	-8.733933	-4.180517	-0.486666	-0.011892	0.014942
54121	0.019057	-8.687267	-4.316690	-0.446227	-0.015374	0.012221
54122	0.010137	-8.710477	-4.139945	-0.502233	-0.019916	0.010017
54123	-0.004964	-8.594641	-4.349591	-0.631300	-0.017077	0.019774
54124	-0.030138	-8.472493	-4.694532	-0.641323	-0.013550	0.023016
54125	-0.006304	-8.384850	-4.896953	-0.577377	-0.010798	0.019736
54126	-0.002387	-8.320673	-5.026875	-0.453368	-0.010313	0.012607
54127	0.003467	-8.265797	-5.111375	-0.354937	-0.006382	0.007858
54128	-0.010962	-8.206257	-5.212715	-0.216061	-0.004456	0.005200
54129	-0.025093	-8.279347	-4.956785	-0.164052	-0.002327	0.002776
54130	-0.031548	-8.259618	-4.960342	-0.262941	-0.004462	0.007955
54131	-0.043775	-8.156178	-5.223803	-0.297503	-0.004382	0.008185
54132	-0.047801	-8.121587	-5.307156	-0.219225	-0.002025	0.004811
54133	-0.001940	-8.157009	-5.182294	-0.209008	-0.002320	0.004542
54134	-0.007545	-8.124003	-5.130602	-0.320360	-0.006143	0.010213
54135	-0.020707	-8.062766	-5.271019	-0.406004	-0.007444	0.015982
54136	-0.047041	-7.946116	-5.509031	-0.437724	-0.008092	0.015291
54137	-0.064118	-7.868099	-5.672533	-0.361061	-0.006150	0.012722
54138	-0.085815	-7.862974	-5.614051	-0.323196	-0.004747	0.009905
54139	-0.060011	-7.811046	-5.691464	-0.323277	-0.005748	0.009934
54140	-0.048619	-7.805397	-5.588010	-0.382477	-0.004846	0.013440
54141	-0.033113	-7.718761	-5.730680	-0.488087	-0.007445	0.016776
54142	-0.053605	-7.556491	-6.146965	-0.463855	-0.007902	0.016642
54143	-0.068537	-7.515311	-6.149476	-0.310940	-0.005501	0.007697
54144	-0.086206	-7.520972	-6.011773	-0.323113	-0.004523	0.008653
54145	-0.095787	-7.454174	-6.087272	-0.345568	-0.006086	0.011911
54146	-0.091290	-7.414018	-6.100265	-0.401699	-0.008092	0.012496
54147	-0.098851	-7.319038	-6.315493	-0.425214	-0.011989	0.009443
54148	-0.094220	-7.201413	-6.515422	-0.350026	-0.013448	0.002382
54149	-0.069992	-7.232993	-6.315102	-0.340867	-0.010987	0.002930
54150	-0.083388	-7.122505	-6.510803	-0.408078	-0.008915	0.012464
54151	-0.117572	-7.037412	-6.692566	-0.334953	-0.008681	0.009967
54152	-0.138997	-7.017475	-6.613397	-0.290173	-0.005370	0.004531
54153	-0.138336	-6.949251	-6.731463	-0.276819	-0.010821	0.000494
54154	-0.124408	-6.918355	-6.709230	-0.258462	-0.004401	0.004872
54155	-0.119264	-6.837843	-6.879675	-0.231546	-0.002415	0.006625
54156	-0.105121	-6.844530	-6.825662	-0.165654	-0.001755	0.003000
54157	-0.098881	-6.836439	-6.709706	-0.195933	-0.002555	0.001008
54158	-0.121658	-6.793215	-6.822552	-0.263926	-0.003476	0.006946
54159	-0.154586	-6.608943	-7.288281	-0.099233	0.000319	-0.001910
54160	-0.151372	-6.729075	-6.932396	0.005669	0.003020	-0.003310
54161	-0.131612	-6.725042	-6.909540	0.003950	0.002129	-0.004532
54162	-0.123363	-6.716897	-6.917086	0.001639	0.002593	-0.002999
54163	-0.116501	-6.706340	-6.910970	0.005820	0.002197	-0.003525
54164	-0.097981	-6.726247	-6.890536	0.006117	0.000982	-0.002331
54165	-0.117759	-6.727319	-6.919664	0.007262	0.001934	-0.003230
54166	-0.116910	-6.728465	-6.918563	0.005892	0.002000	-0.002819
54167	-0.151586	-6.720449	-6.915591	0.007052	0.001016	-0.001826
54168	-0.154801	-6.737884	-6.911702	0.007117	0.002324	-0.004638
54169	-0.126579	-6.728137	-6.909996	0.006834	0.001602	-0.003939
54170	-0.101158	-6.737130	-6.919119	0.006682	0.002425	-0.003723
54171	-0.101124	-6.709525	-6.923634	0.006326	0.001898	-0.003730
54172	-0.125572	-6.726674	-6.914824	0.007413	0.001109	-0.003441
54173	-0.137093	-6.724065	-6.908451	0.007485	0.000914	-0.002736
54174	-0.123513	-6.731581	-6.890688	0.006681	0.002424	-0.003722
54175	-0.139658	-6.740274	-6.925149	0.006456	0.003442	-0.004211
54176	-0.135901	-6.722689	-6.913215	0.007412	0.001108	-0.003438
54177	-0.125997	-6.720269	-6.911845	0.006832	0.001600	-0.003935
54178	-0.112869	-6.725248	-6.915934	0.005463	0.001666	-0.003526
54179	-0.097844	-6.735065	-6.911938	0.005390	0.001861	-0.004230
54180	-0.130842	-6.729458	-6.922736	0.004803	0.002786	-0.003103
54181	-0.131331	-6.727929	-6.908204	0.007564	0.000284	-0.003650
54182	-0.141415	-6.727960	-6.915316	0.007614	0.002457	-0.003214
54183	-0.140874	-6.726793	-6.935897	0.005825	0.001757	-0.005141
54184	-0.119341	-6.727818	-6.904615	0.006324	0.001895	-0.003724
54185	-0.120753	-6.721586	-6.933514	0.005817	0.002192	-0.003516
54186	-0.119352	-6.725031	-6.910746	0.006904	0.001404	-0.003225
54187	-0.116670	-6.731061	-6.901499	0.005462	0.001665	-0.003522
54188	-0.125451	-6.733453	-6.922375	0.006549	0.000876	-0.003231
54189	-0.136778	-6.730826	-6.916047	0.008047	0.002354	-0.004122
54190	-0.127348	-6.726219	-6.936248	0.007838	0.001439	-0.002718
54191	-0.138326	-6.726007	-6.908117	0.007918	0.000809	-0.003636
54192	-0.124733	-6.733350	-6.890425	0.005034	0.001330	-0.004232
54193	-0.111786	-6.709689	-6.935642	0.004446	0.002257	-0.003106
54194	-0.117556	-6.721282	-6.905259	0.003157	0.001694	-0.003618
54195	-0.125667	-6.725745	-6.904685	0.005815	0.002190	-0.003512
54196	-0.126694	-6.721928	-6.911826	0.007055	0.000578	-0.003434
54197	-0.134828	-6.726933	-6.910728	0.008126	0.001722	-0.005035
54198	-0.138340	-6.742195	-6.928359	0.007449	0.003716	-0.001370
54199	-0.131503	-6.732173	-6.921730	0.006757	0.001788	-0.004628
54200	-0.121515	-6.729641	-6.920456	0.006394	0.001698	-0.003012
54201	-0.103428	-6.747220	-6.921465	0.006982	0.000770	-0.004135
54202	-0.119038	-6.708272	-6.915667	0.007256	0.001928	-0.003210
54203	-0.118998	-6.733293	-6.916946	0.006982	0.000770	-0.004134
54204	-0.127759	-6.711708	-6.900045	0.006394	0.001698	-0.003010
54205	-0.142195	-6.725570	-6.926241	0.007029	0.002944	-0.003701
54206	-0.131778	-6.725301	-6.903250	0.006193	0.000346	-0.003228
54207	-0.129613	-6.729086	-6.915658	0.006675	0.002417	-0.003706
54208	-0.121588	-6.721667	-6.922574	0.006973	0.001207	-0.002509
54209	-0.118909	-6.727820	-6.913159	0.007182	0.002119	-0.003911
54210	-0.110259	-6.722672	-6.898339	0.006747	0.002223	-0.003000
54211	-0.132561	-6.718781	-6.900479	0.007408	0.001102	-0.003418
54212	-0.141142	-6.721403	-6.921246	0.006013	0.003536	-0.003286
54213	-0.118343	-6.725000	-6.903330	0.007254	0.001926	-0.003204
54214	-0.128407	-6.725014	-6.910552	0.006900	0.001398	-0.003210
54215	-0.134790	-6.734829	-6.901322	0.006981	0.000766	-0.004126
54216	-0.137467	-6.726111	-6.916745	0.005585	0.003201	-0.003996
54217	-0.125552	-6.728421	-6.907287	0.006981	0.000766	-0.004125
54218	-0.108473	-6.717318	-6.914038	0.006745	0.002222	-0.002997
54219	-0.136013	-6.726971	-6.899869	0.007606	0.002451	-0.003194
54220	-0.133682	-6.730884	-6.912175	0.006400	0.001254	-0.004623
54221	-0.137859	-6.719442	-6.914174	0.005611	0.000832	-0.003720
54222	-0.132498	-6.730835	-6.931830	0.006980	0.000765	-0.004122
54223	-0.113021	-6.726817	-6.908638	0.006590	0.003045	-0.002783
54224	-0.129419	-6.711614	-6.905452	0.006980	0.000764	-0.004121
54225	-0.118048	-6.711680	-6.917741	0.005230	0.002671	-0.004000
54226	-0.115685	-6.715319	-6.930326	0.005457	0.001655	-0.003506
54227	-0.132841	-6.723760	-6.929678	0.006318	0.001885	-0.003704
54228	-0.135173	-6.717230	-6.923433	0.005882	0.001991	-0.002794
54229	-0.129056	-6.730684	-6.919490	0.005157	0.002861	-0.004703
54230	-0.166567	-6.816981	-6.836223	-0.017467	0.006892	-0.010450
54231	-0.131695	-6.795661	-6.881655	-0.108187	0.028093	-0.035333
54232	-0.117695	-6.751324	-6.880174	-0.158450	0.040115	-0.046659
54233	-0.107566	-6.724759	-6.926290	-0.224792	0.050870	-0.070964
54234	-0.050658	-6.687860	-6.956457	-0.274686	0.040239	-0.107905
54235	0.005067	-6.458033	-7.109107	-0.285935	0.010959	-0.105558
54236	-0.091677	-6.705314	-6.973007	-0.346005	0.031163	-0.039320
54237	-0.009273	-6.400339	-7.205997	-0.498358	0.049692	-0.043903
54238	0.036565	-6.185378	-7.363505	-0.400189	0.032094	-0.030341
54239	0.044741	-6.120593	-7.436032	-0.262938	0.017282	-0.021363
54240	0.018650	-6.245441	-7.327591	-0.214015	0.013746	-0.015889
54241	0.037233	-6.130805	-7.430752	-0.197706	0.007906	-0.017313
54242	-0.004740	-6.280385	-7.305812	-0.230278	0.010304	-0.013268
54243	-0.001082	-6.220931	-7.341604	-0.402053	0.019783	-0.017635
54244	0.022579	-6.035683	-7.523398	-0.484541	0.023041	-0.016339
54245	0.024040	-5.879731	-7.609429	-0.488532	0.017165	-0.016969
54246	0.043649	-5.764058	-7.714488	-0.470759	0.014050	-0.020078
54247	0.053187	-5.774772	-7.698016	-0.468775	0.013035	-0.021524
54248	0.054170	-5.721907	-7.723133	-0.590716	0.014631	-0.024257
54249	0.046005	-5.437711	-7.929578	-0.647782	0.003818	-0.045370
54250	0.045857	-5.293432	-8.022146	-0.609098	0.003624	-0.047646
54251	0.049710	-5.127295	-8.161857	-0.562287	0.001220	-0.043158
54252	0.074619	-5.117774	-8.124142	-0.508162	0.006550	-0.034886
54253	0.082092	-5.014572	-8.185180	-0.567281	0.009360	-0.027828
54254	0.108546	-4.759779	-8.384684	-0.529050	0.004020	-0.032358
54255	0.094464	-4.660821	-8.463030	-0.412206	-0.005958	-0.041370
54256	0.082865	-4.611331	-8.460580	-0.329920	-0.000899	-0.035312
54257	0.077251	-4.652126	-8.408810	-0.325443	0.008465	-0.012598
54258	0.094319	-4.654871	-8.391712	-0.391372	0.011009	-0.013410
54259	0.082922	-4.581282	-8.420098	-0.521372	0.001891	-0.036351
54260	0.127551	-4.277294	-8.625551	-0.561709	-0.013871	-0.071376
54261	0.097683	-4.141717	-8.713020	-0.529211	-0.005235	-0.054898
54262	0.089287	-3.998102	-8.769235	-0.486597	0.000990	-0.039741
54263	0.101827	-3.963674	-8.761126	-0.454622	0.005836	-0.026008
54264	0.111590	-3.884908	-8.787548	-0.462436	-0.000667	-0.042751
54265	0.114405	-3.792721	-8.799600	-0.480679	-0.007106	-0.057538
54266	0.084241	-3.623590	-8.915349	-0.486087	-0.014203	-0.074602
54267	0.118365	-3.396582	-9.049340	-0.425229	-0.015585	-0.079027
54268	0.091985	-3.477047	-8.962125	-0.341784	-0.015122	-0.071382
54269	0.159330	-3.333963	-9.015261	-0.373723	-0.009871	-0.060195
54270	0.124784	-3.309047	-9.000881	-0.399839	0.006464	-0.015358
54271	0.111055	-3.219274	-9.051895	-0.433398	-0.000719	-0.030608
54272	0.117122	-2.972910	-9.197138	-0.383850	-0.011433	-0.060479
54273	0.134354	-3.011061	-9.110156	-0.356259	-0.006437	-0.046908
54274	0.136229	-2.926785	-9.137557	-0.381834	0.003836	-0.011389
54275	0.137240	-2.823057	-9.185097	-0.423883	0.005541	-0.002621
54276	0.149993	-2.637499	-9.281019	-0.405046	0.008628	0.001223
54277	0.106893	-2.731652	-9.157603	-0.407636	0.008150	0.001795
54278	0.134557	-2.411676	-9.359797	-0.402377	0.004906	-0.012321
54279	0.135490	-2.358853	-9.364528	-0.356885	0.003175	-0.008780
54280	0.179213	-2.270699	-9.359259	-0.282202	0.007185	0.019330
54281	0.166496	-2.305472	-9.331449	-0.314921	0.014983	0.064608
54282	0.112701	-2.217514	-9.367084	-0.342300	0.019688	0.071706
54283	0.085777	-2.108650	-9.412260	-0.290902	0.007480	0.011430
54284	0.157427	-2.062447	-9.375459	-0.293370	0.001137	-0.010512
54285	0.165861	-1.882976	-9.459369	-0.283791	0.008739	0.019836
54286	0.104800	-1.927291	-9.451490	-0.238338	0.005848	0.024067
54287	0.142372	-1.907829	-9.384851	-0.263308	-0.005929	-0.032246
54288	0.140143	-1.815336	-9.420541	-0.337176	-0.000890	-0.013373
54289	0.100451	-1.682647	-9.473631	-0.366911	0.004838	-0.013056
54290	0.153690	-1.604108	-9.475763	-0.328506	-0.005025	-0.051525
54291	0.178632	-1.617277	-9.407580	-0.389588	-0.009501	-0.049730
54292	0.174608	-1.395077	-9.493763	-0.468795	-0.006593	-0.036718
54293	0.093396	-1.202473	-9.595644	-0.446342	0.004081	-0.002308
54294	0.093358	-1.130968	-9.610380	-0.346348	0.002999	-0.019002
54295	0.187606	-1.116154	-9.524761	-0.336074	-0.003091	-0.020130
54296	0.123460	-0.947718	-9.645020	-0.327116	0.002949	0.019104
54297	0.137912	-0.921060	-9.609615	-0.259527	0.002178	0.001355
54298	0.128762	-0.799918	-9.661273	-0.207202	0.001822	0.028963
54299	0.121503	-0.873597	-9.576214	-0.147903	-0.002699	0.003460
54300	0.122703	-0.895596	-9.548861	-0.189850	-0.004613	-0.016716
54301	0.105198	-0.759000	-9.597344	-0.232067	-0.005309	-0.047832
54302	0.114326	-0.748712	-9.540018	-0.259907	-0.002153	-0.054415
54303	0.127401	-0.643843	-9.561835	-0.287827	-0.005388	-0.061952
54304	0.185745	-0.559741	-9.555679	-0.353524	-0.005904	-0.064100
54305	0.163987	-0.384921	-9.657614	-0.378133	0.003051	0.061442
54306	0.171710	-0.216258	-9.712971	-0.282036	0.002788	0.065595
54307	0.109763	-0.494481	-9.477473	-0.358610	0.010842	0.139997
54308	0.098436	0.047355	-9.868982	-0.264294	-0.016134	0.001827
54309	0.109622	-0.073167	-9.685132	-0.030906	-0.010518	0.000535
54310	0.110576	-0.193756	-9.599009	-0.033743	-0.015075	0.006281
54311	0.089125	-0.147736	-9.649272	0.002026	-0.002383	-0.007843
54312	0.111106	-0.176497	-9.622773	0.002428	-0.001718	-0.041571
54313	0.113509	-0.130757	-9.611298	0.003857	0.000497	-0.036651
54314	0.116345	-0.157151	-9.625856	0.006109	0.002255	-0.035960
54315	0.126689	-0.132183	-9.617254	0.004445	-0.000291	-0.014863
54316	0.116628	-0.159545	-9.625813	0.005713	-0.000422	-0.001760
54317	0.116986	-0.160998	-9.625784	0.006432	0.003292	-0.004216
54318	0.122933	-0.157562	-9.614049	0.007301	0.001989	-0.002907
54319	0.123580	-0.159261	-9.614013	0.006903	0.003309	-0.001866
54320	0.136403	-0.160025	-9.619975	0.006698	0.000050	-0.002025
54321	0.135871	-0.145451	-9.634791	0.005152	0.000573	0.006990
54322	0.114110	-0.118329	-9.628919	0.004973	0.003818	0.052527
54323	0.105298	-0.162013	-9.622598	0.006474	0.002986	0.046839
54324	0.104048	-0.170689	-9.643108	0.004770	0.002850	0.048604
54325	0.108699	-0.189765	-9.604692	0.004690	0.000688	0.002990
54326	0.119020	-0.125758	-9.637681	0.003780	-0.002007	0.034870
54327	0.067553	-0.176692	-9.625062	0.006667	0.008775	0.026011
54328	0.154075	-0.163141	-9.605186	0.006537	0.000986	-0.004819
54329	0.118627	-0.160411	-9.631420	0.006444	0.003275	-0.004219
54330	0.101208	-0.151393	-9.619568	0.005243	0.001432	-0.002942
54331	0.117882	-0.153812	-9.601985	0.006139	0.002305	-0.003777
54332	0.111113	-0.151416	-9.616657	0.007216	0.002371	-0.003474
54333	0.097393	-0.160989	-9.631173	0.005834	0.001336	-0.003334
54334	0.134654	-0.143802	-9.631590	0.006517	0.000837	-0.003159
54335	0.126603	-0.164125	-9.619545	0.005258	0.001576	-0.004598
54336	0.115538	-0.143486	-9.640260	0.007018	0.001144	-0.004120
54337	0.113070	-0.175090	-9.634028	0.005348	0.001172	-0.004029
54338	0.119692	-0.148520	-9.649048	0.006425	0.001239	-0.003726
54339	0.118813	-0.156616	-9.604773	0.006243	0.002044	-0.004863
54340	0.121132	-0.167495	-9.634104	0.006243	0.002044	-0.004862
54341	0.121684	-0.168902	-9.634073	0.005542	0.002397	-0.003381
54342	0.119741	-0.144716	-9.619577	0.004360	0.000701	-0.003761
54343	0.133014	-0.161275	-9.610644	0.007301	0.001965	-0.002901
54344	0.111357	-0.151064	-9.654760	0.006530	0.000978	-0.004811
54345	0.106400	-0.140939	-9.616543	0.005540	0.002396	-0.003379
54346	0.114514	-0.162493	-9.619288	0.005237	0.001428	-0.002937
54347	0.114926	-0.163863	-9.619259	0.006223	0.001897	-0.003203
54348	0.104394	-0.159273	-9.625116	0.006404	0.001092	-0.002065
54349	0.120480	-0.145879	-9.622420	0.006723	0.002202	-0.004163
54350	0.126593	-0.158639	-9.628184	0.006221	0.001895	-0.003202
54351	0.125109	-0.150920	-9.631194	0.004963	0.002632	-0.004642
54352	0.111648	-0.159964	-9.613314	0.006419	0.001234	-0.003720
54353	0.108245	-0.159650	-9.636841	0.005736	0.001731	-0.003896
54354	0.108437	-0.144658	-9.619345	0.005537	0.002392	-0.003377
54355	0.115240	-0.173307	-9.610178	0.007006	0.003025	-0.002946
54356	0.118923	-0.161179	-9.633893	0.006720	0.002199	-0.004160
54357	0.122603	-0.148498	-9.625232	0.005825	0.001328	-0.003325
54358	0.126998	-0.151623	-9.601645	0.005746	0.003760	-0.004387
54359	0.122346	-0.158206	-9.613292	0.006433	0.001373	-0.005373
54360	0.129846	-0.164065	-9.630916	0.006308	0.001491	-0.002628
54361	0.115816	-0.157447	-9.627962	0.007310	0.002101	-0.004550
54362	0.117948	-0.152227	-9.639810	0.006518	0.002858	-0.003639
54363	0.115398	-0.167457	-9.616014	0.005931	0.001065	-0.004410
54364	0.122497	-0.157377	-9.648576	0.006517	0.002858	-0.003638
54365	0.121684	-0.165263	-9.604274	0.005822	0.001325	-0.003322
54366	0.112637	-0.153790	-9.622045	0.006430	0.001369	-0.005369
54367	0.107474	-0.160407	-9.633694	0.005827	-0.000565	-0.004483
54368	0.109521	-0.170804	-9.630606	0.005519	0.000358	-0.002878
54369	0.119659	-0.145560	-9.622197	0.002668	0.000580	-0.002008
54370	0.121888	-0.155566	-9.619113	0.005428	0.000758	-0.003447
54371	0.118516	-0.154810	-9.610265	0.006503	0.000826	-0.003142
54372	0.111675	-0.152550	-9.624975	0.007014	0.003159	-0.004597
54373	0.124597	-0.153302	-9.630916	0.006035	0.000800	-0.005493
54374	0.105590	-0.167378	-9.624698	0.004491	0.000706	-0.008148
54375	0.090461	-0.309873	-9.628284	0.000538	0.000796	-0.056955
54376	0.135797	-0.097999	-9.608179	-0.042037	0.022964	-0.181237
54377	0.142718	0.020069	-9.612859	0.025548	-0.007614	-0.006894
54378	0.130757	-0.368416	-9.598216	-0.025707	0.000312	-0.047602
54379	0.119721	-0.169662	-9.624765	-0.137714	-0.010188	-0.053191
54380	0.091097	-0.055772	-9.622960	-0.154540	0.003085	-0.048387
54381	0.156615	-0.075299	-9.593696	-0.174458	0.001551	-0.026602
54382	0.120167	-0.009141	-9.611500	-0.226186	-0.031042	0.008110
54383	0.108814	0.032594	-9.620388	-0.237851	-0.037847	-0.036825
54384	0.056165	0.094456	-9.616801	-0.268753	-0.028333	-0.047466
54385	0.103315	0.373305	-9.606498	-0.265718	-0.025772	0.022643
54386	0.087808	0.309731	-9.595364	-0.155918	-0.041803	0.065216
54387	0.036475	0.094212	-9.656875	-0.200848	-0.022342	-0.008877
54388	0.017336	0.225984	-9.677012	-0.283759	0.009094	-0.068626
