// General information: 
//  MT Manager version: 2019.2.0 
//  XDA version: 2019.2.0 build 3853 rev 94535 built on 2019-09-09
// Device information: 
//  DeviceId: 00B44058
//  ProductCode: MTW2-3A7G6
//  Firmware Version: 4.3.5
//  Hardware Version: 1.1.0
// Device settings: 
//  Filter Profile: human(46.1)
//  Option Flags: Orientation Smoother Disabled, AHS Disabled, ICC Disabled
// Coordinate system: ENU
PacketCounter	Acc_X	Acc_Y	Acc_Z	Gyr_X	Gyr_Y	Gyr_Z	Mat[1][1]	Mat[2][1]	Mat[3][1]	Mat[1][2]	Mat[2][2]	Mat[3][2]	Mat[1][3]	Mat[2][3]	Mat[3][3]
29131	0.122632	0.069490	9.706261	-0.003414	0.000965	0.008016	1.000000	0.000124	-0.000663	-0.000124	1.000000	0.000029	0.000663	-0.000029	1.000000
29132	0.142010	0.094555	9.718918	-0.003692	0.004624	0.005719	1.000000	0.000113	-0.000677	-0.000113	1.000000	0.000020	0.000677	-0.000020	1.000000
29133	0.146005	0.072742	9.708278	-0.001990	0.003269	0.005440	1.000000	0.000081	-0.000679	-0.000081	1.000000	0.000029	0.000679	-0.000029	1.000000
29134	0.141403	0.104981	9.697054	-0.000432	0.003045	0.006996	1.000000	0.000083	-0.000678	-0.000083	1.000000	0.000052	0.000678	-0.000052	1.000000
29135	0.173816	0.054767	9.699645	-0.003554	0.002794	0.006867	1.000000	0.000095	-0.000676	-0.000095	1.000000	0.000043	0.000676	-0.000043	1.000000
29136	0.140728	0.093654	9.718945	-0.002136	0.004051	0.008767	1.000000	0.000115	-0.000685	-0.000115	1.000000	0.000049	0.000685	-0.000049	1.000000
29137	0.144861	0.071842	9.708301	-0.003415	0.000965	0.008015	1.000000	0.000120	-0.000663	-0.000120	1.000000	0.000040	0.000663	-0.000040	1.000000
29138	0.149116	0.050046	9.697654	-0.001852	0.001439	0.006588	1.000000	0.000118	-0.000646	-0.000118	1.000000	0.000049	0.000646	-0.000049	1.000000
29139	0.139914	0.092816	9.718965	-0.003968	0.008284	0.003422	1.000000	0.000092	-0.000698	-0.000092	1.000000	0.000036	0.000698	-0.000036	1.000000
29140	0.167938	0.085635	9.688458	-0.003416	0.000965	0.008015	1.000000	0.000105	-0.000676	-0.000105	1.000000	0.000029	0.000676	-0.000029	1.000000
29141	0.163088	0.085120	9.742870	-0.003835	0.005756	0.007553	1.000000	0.000099	-0.000700	-0.000099	1.000000	0.000017	0.000700	-0.000017	1.000000
29142	0.147619	0.059581	9.675810	-0.001853	0.001439	0.006588	1.000000	0.000097	-0.000683	-0.000097	1.000000	0.000026	0.000683	-0.000026	1.000000
29143	0.138608	0.091528	9.718996	-0.003554	0.002795	0.006867	1.000000	0.000112	-0.000682	-0.000112	1.000000	0.000017	0.000682	-0.000017	1.000000
29144	0.142874	0.080567	9.686473	-0.001856	0.001089	0.008080	1.000000	0.000125	-0.000661	-0.000125	1.000000	0.000026	0.000661	-0.000026	1.000000
29145	0.162142	0.084009	9.742895	-0.003549	0.003493	0.003883	1.000000	0.000118	-0.000664	-0.000118	1.000000	0.000017	0.000664	-0.000017	1.000000
29146	0.137920	0.101543	9.697141	-0.002134	0.004400	0.007275	1.000000	0.000123	-0.000677	-0.000123	1.000000	0.000023	0.000677	-0.000023	1.000000
29147	0.141804	0.068962	9.708367	-0.001988	0.003618	0.003948	1.000000	0.000089	-0.000684	-0.000089	1.000000	0.000030	0.000684	-0.000030	1.000000
29148	0.161074	0.083158	9.742920	-0.005116	0.002670	0.006801	1.000000	0.000088	-0.000679	-0.000088	1.000000	0.000006	0.000679	-0.000006	1.000000
29149	0.141193	0.068321	9.708381	-0.000580	0.003825	0.010323	1.000000	0.000106	-0.000687	-0.000106	1.000000	0.000027	0.000687	-0.000027	1.000000
29150	0.160474	0.093490	9.721063	-0.003695	0.004275	0.007210	1.000000	0.000110	-0.000698	-0.000110	1.000000	0.000017	0.000698	-0.000017	1.000000
29151	0.164558	0.082595	9.688542	-0.000430	0.003393	0.005505	1.000000	0.000082	-0.000701	-0.000082	1.000000	0.000041	0.000701	-0.000041	1.000000
29152	0.135708	0.078372	9.740929	-0.003558	0.002445	0.008358	1.000000	0.000098	-0.000694	-0.000098	1.000000	0.000032	0.000694	-0.000032	1.000000
29153	0.164099	0.082116	9.688554	-0.001854	0.001439	0.006588	1.000000	0.000103	-0.000675	-0.000103	1.000000	0.000041	0.000675	-0.000041	1.000000
29154	0.139697	0.067212	9.708410	-0.002135	0.004400	0.007275	1.000000	0.000108	-0.000687	-0.000108	1.000000	0.000047	0.000687	-0.000047	1.000000
29155	0.139442	0.066932	9.708416	-0.003419	0.000965	0.008014	1.000000	0.000107	-0.000663	-0.000107	1.000000	0.000041	0.000663	-0.000041	1.000000
29156	0.158935	0.092037	9.721102	-0.001995	0.002919	0.006931	1.000000	0.000108	-0.000661	-0.000108	1.000000	0.000048	0.000661	-0.000048	1.000000
29157	0.134727	0.098760	9.697215	-0.003552	0.003145	0.005375	1.000000	0.000080	-0.000660	-0.000080	1.000000	0.000041	0.000660	-0.000041	1.000000
29158	0.162690	0.069874	9.710458	-0.003552	0.003145	0.005374	1.000000	0.000066	-0.000660	-0.000066	1.000000	0.000034	0.000660	-0.000033	1.000000
29159	0.133923	0.076430	9.740970	-0.001995	0.002919	0.006931	1.000000	0.000079	-0.000658	-0.000079	1.000000	0.000039	0.000658	-0.000039	1.000000
29160	0.162322	0.091093	9.666732	-0.001991	0.003269	0.005440	1.000000	0.000066	-0.000659	-0.000066	1.000000	0.000046	0.000659	-0.000046	1.000000
29161	0.137900	0.076122	9.686581	-0.003556	0.002795	0.006866	1.000000	0.000067	-0.000655	-0.000067	1.000000	0.000040	0.000655	-0.000040	1.000000
29162	0.157111	0.079432	9.743016	-0.003560	0.002446	0.008357	1.000000	0.000083	-0.000648	-0.000083	1.000000	0.000032	0.000648	-0.000031	1.000000
29163	0.132993	0.086249	9.719123	-0.000291	0.001912	0.005162	1.000000	0.000060	-0.000637	-0.000060	1.000000	0.000059	0.000637	-0.000059	1.000000
29164	0.132775	0.085978	9.719128	-0.005117	0.002672	0.006800	1.000000	0.000060	-0.000632	-0.000060	1.000000	0.000035	0.000632	-0.000035	1.000000
29165	0.132333	0.074837	9.741004	-0.000578	0.004173	0.008832	1.000000	0.000106	-0.000643	-0.000106	1.000000	0.000053	0.000643	-0.000053	1.000000
29166	0.132129	0.085554	9.719141	-0.001999	0.002569	0.008423	1.000000	0.000123	-0.000637	-0.000123	1.000000	0.000060	0.000637	-0.000060	1.000000
29167	0.160157	0.067643	9.710516	-0.002135	0.004400	0.007275	1.000000	0.000123	-0.000648	-0.000123	1.000000	0.000067	0.000648	-0.000067	1.000000
29168	0.150905	0.088706	9.775587	-0.003556	0.002796	0.006866	1.000000	0.000124	-0.000644	-0.000124	1.000000	0.000058	0.000644	-0.000058	1.000000
29169	0.155366	0.099471	9.699326	-0.001848	0.002138	0.003605	1.000000	0.000071	-0.000635	-0.000071	1.000000	0.000069	0.000635	-0.000069	1.000000
29170	0.159298	0.066880	9.710536	-0.002143	0.003700	0.010257	1.000000	0.000106	-0.000640	-0.000106	1.000000	0.000075	0.000640	-0.000075	1.000000
29171	0.154653	0.088196	9.721207	-0.001996	0.002919	0.006931	1.000000	0.000115	-0.000638	-0.000115	1.000000	0.000080	0.000638	-0.000080	1.000000
29172	0.130486	0.094875	9.697311	-0.005118	0.002673	0.006800	1.000000	0.000115	-0.000633	-0.000115	1.000000	0.000056	0.000633	-0.000056	1.000000
29173	0.158514	0.066035	9.710554	-0.000295	0.001562	0.006653	1.000000	0.000142	-0.000618	-0.000142	1.000000	0.000078	0.000618	-0.000078	1.000000
29174	0.158430	0.076772	9.688692	-0.001996	0.002919	0.006931	1.000000	0.000144	-0.000615	-0.000144	1.000000	0.000085	0.000615	-0.000085	1.000000
29175	0.153775	0.087170	9.721230	-0.003418	0.001315	0.006522	1.000000	0.000166	-0.000599	-0.000166	1.000000	0.000075	0.000599	-0.000075	1.000000
29176	0.149048	0.097561	9.753770	-0.002135	0.004400	0.007275	1.000000	0.000171	-0.000611	-0.000171	1.000000	0.000081	0.000611	-0.000081	1.000000
29177	0.133533	0.072111	9.686673	-0.003701	0.003927	0.008700	1.000000	0.000214	-0.000620	-0.000214	1.000000	0.000070	0.000620	-0.000070	1.000000
29178	0.148531	0.107843	9.731920	-0.001857	0.001438	0.006587	1.000000	0.000213	-0.000603	-0.000212	1.000000	0.000079	0.000603	-0.000079	1.000000
29179	0.156958	0.075431	9.688727	-0.002275	0.005880	0.007618	1.000000	0.000198	-0.000630	-0.000198	1.000000	0.000085	0.000630	-0.000084	1.000000
29180	0.151997	0.085800	9.721270	-0.003692	0.004627	0.005717	1.000000	0.000188	-0.000645	-0.000188	1.000000	0.000075	0.000645	-0.000075	1.000000
29181	0.127830	0.092652	9.697368	-0.000301	0.001211	0.008144	1.000000	0.000217	-0.000626	-0.000217	1.000000	0.000101	0.000626	-0.000101	1.000000
29182	0.179816	0.067737	9.712657	-0.002140	0.004049	0.008766	1.000000	0.000237	-0.000635	-0.000237	1.000000	0.000106	0.000635	-0.000106	1.000000
29183	0.155471	0.063719	9.710619	-0.002001	0.002569	0.008422	1.000000	0.000282	-0.000628	-0.000282	1.000000	0.000110	0.000628	-0.000110	1.000000
29184	0.151094	0.095916	9.699430	-0.001853	0.001788	0.005096	1.000000	0.000265	-0.000614	-0.000265	1.000000	0.000119	0.000614	-0.000119	1.000000
29185	0.150527	0.073984	9.743163	-0.002140	0.004050	0.008766	1.000000	0.000269	-0.000622	-0.000268	1.000000	0.000127	0.000622	-0.000127	1.000000
29186	0.126529	0.091710	9.697394	-0.001858	0.001438	0.006587	1.000000	0.000267	-0.000605	-0.000267	1.000000	0.000136	0.000605	-0.000136	1.000000
29187	0.173944	0.077361	9.745224	-0.002275	0.005880	0.007618	1.000000	0.000226	-0.000629	-0.000226	1.000000	0.000143	0.000629	-0.000143	1.000000
29188	0.154100	0.073545	9.688787	-0.001997	0.002919	0.006931	1.000000	0.000228	-0.000626	-0.000228	1.000000	0.000150	0.000626	-0.000150	1.000000
29189	0.149128	0.073060	9.743191	-0.003692	0.004628	0.005717	1.000000	0.000234	-0.000643	-0.000234	1.000000	0.000141	0.000643	-0.000140	1.000000
29190	0.153531	0.083841	9.666941	-0.001997	0.002919	0.006930	1.000000	0.000236	-0.000640	-0.000235	1.000000	0.000148	0.000640	-0.000148	1.000000
29191	0.144250	0.104886	9.732017	-0.003692	0.004628	0.005717	1.000000	0.000219	-0.000658	-0.000219	1.000000	0.000140	0.000658	-0.000140	1.000000
29192	0.128475	0.057674	9.708627	-0.003559	0.002797	0.006864	1.000000	0.000220	-0.000655	-0.000219	1.000000	0.000132	0.000655	-0.000132	1.000000
29193	0.167652	0.118884	9.712230	-0.002270	0.006230	0.006127	1.000000	0.000199	-0.000686	-0.000199	1.000000	0.000139	0.000686	-0.000138	1.000000
29194	0.123464	0.078636	9.719313	-0.003287	-0.000514	0.007667	1.000000	0.000208	-0.000649	-0.000207	1.000000	0.000133	0.000649	-0.000133	1.000000
29195	0.171272	0.085919	9.723432	-0.002275	0.005880	0.007618	1.000000	0.000210	-0.000677	-0.000210	1.000000	0.000138	0.000677	-0.000138	1.000000
29196	0.146854	0.081916	9.721383	-0.002008	0.002218	0.009913	1.000000	0.000241	-0.000668	-0.000241	1.000000	0.000145	0.000668	-0.000145	1.000000
29197	0.146698	0.092423	9.699531	-0.005253	0.004506	0.005651	1.000000	0.000218	-0.000683	-0.000218	1.000000	0.000120	0.000683	-0.000120	1.000000
29198	0.146196	0.081189	9.721399	-0.002003	0.002568	0.008421	1.000000	0.000235	-0.000676	-0.000235	1.000000	0.000128	0.000676	-0.000127	1.000000
29199	0.121986	0.088000	9.697487	-0.003692	0.004628	0.005717	1.000000	0.000243	-0.000692	-0.000243	1.000000	0.000116	0.000692	-0.000116	1.000000
29200	0.169619	0.095254	9.701619	-0.002137	0.004399	0.007274	1.000000	0.000249	-0.000704	-0.000248	1.000000	0.000122	0.000704	-0.000122	1.000000
29201	0.121229	0.087424	9.697502	-0.003565	0.002447	0.008355	1.000000	0.000279	-0.000697	-0.000279	1.000000	0.000114	0.000697	-0.000113	1.000000
29202	0.164565	0.105264	9.734171	-0.003554	0.003148	0.005373	1.000000	0.000265	-0.000697	-0.000265	1.000000	0.000106	0.000697	-0.000105	1.000000
29203	0.144846	0.101438	9.677721	-0.001987	0.003619	0.003948	1.000000	0.000268	-0.000701	-0.000268	1.000000	0.000111	0.000701	-0.000110	1.000000
29204	0.148429	0.057872	9.710766	-0.003704	0.003927	0.008699	1.000000	0.000287	-0.000708	-0.000287	1.000000	0.000101	0.000708	-0.000100	1.000000
29205	0.167967	0.093746	9.701662	-0.002143	0.004049	0.008765	1.000000	0.000300	-0.000719	-0.000300	1.000000	0.000107	0.000719	-0.000107	1.000000
29206	0.143425	0.078893	9.721459	-0.001999	0.002919	0.006930	1.000000	0.000302	-0.000716	-0.000302	1.000000	0.000114	0.000716	-0.000114	1.000000
29207	0.143332	0.089490	9.699609	-0.003560	0.002797	0.006863	1.000000	0.000297	-0.000714	-0.000297	1.000000	0.000107	0.000714	-0.000107	1.000000
29208	0.147347	0.067679	9.688935	-0.001999	0.002919	0.006930	1.000000	0.000299	-0.000712	-0.000298	1.000000	0.000114	0.000712	-0.000114	1.000000
29209	0.142590	0.078055	9.721478	-0.003554	0.003148	0.005372	1.000000	0.000255	-0.000715	-0.000254	1.000000	0.000109	0.000715	-0.000109	1.000000
29210	0.142216	0.077921	9.721485	0.000985	0.004641	0.007408	1.000000	0.000262	-0.000730	-0.000262	1.000000	0.000146	0.000730	-0.000146	1.000000
29211	0.145971	0.056167	9.710813	-0.005386	0.006339	0.004503	1.000000	0.000281	-0.000764	-0.000280	1.000000	0.000117	0.000764	-0.000117	1.000000
29212	0.164994	0.070274	9.745433	-0.000570	0.004871	0.005850	1.000000	0.000272	-0.000781	-0.000272	1.000000	0.000139	0.000781	-0.000139	1.000000
29213	0.141056	0.088077	9.699655	-0.003429	0.000966	0.008010	1.000000	0.000293	-0.000759	-0.000293	1.000000	0.000130	0.000759	-0.000129	1.000000
29214	0.136410	0.098379	9.732198	-0.003561	0.002798	0.006863	1.000000	0.000294	-0.000756	-0.000294	1.000000	0.000121	0.000756	-0.000121	1.000000
29215	0.164316	0.080224	9.723601	-0.003837	0.005759	0.007552	1.000000	0.000338	-0.000781	-0.000338	1.000000	0.000109	0.000781	-0.000109	1.000000
29216	0.163900	0.079929	9.723610	-0.002000	0.002918	0.006930	1.000000	0.000340	-0.000779	-0.000339	1.000000	0.000116	0.000779	-0.000116	1.000000
29217	0.139863	0.086718	9.699685	-0.004985	0.001196	0.006452	1.000000	0.000355	-0.000758	-0.000355	1.000000	0.000091	0.000758	-0.000091	1.000000
29218	0.163462	0.079369	9.723622	0.000972	0.003939	0.010390	1.000000	0.000392	-0.000765	-0.000392	1.000000	0.000128	0.000765	-0.000127	1.000000
29219	0.139554	0.097265	9.677842	-0.003417	0.001668	0.005028	1.000000	0.000386	-0.000750	-0.000386	1.000000	0.000121	0.000750	-0.000121	1.000000
29220	0.162929	0.078880	9.723635	-0.003705	0.003928	0.008698	1.000000	0.000406	-0.000758	-0.000406	1.000000	0.000111	0.000758	-0.000111	1.000000
29221	0.142966	0.064201	9.689024	-0.002138	0.004399	0.007274	1.000000	0.000412	-0.000768	-0.000412	1.000000	0.000116	0.000768	-0.000116	1.000000
29222	0.129464	0.117610	9.742945	-0.003837	0.005759	0.007551	1.000000	0.000420	-0.000794	-0.000420	1.000000	0.000105	0.000794	-0.000105	1.000000
29223	0.161698	0.077992	9.723663	-0.001863	0.001438	0.006585	1.000000	0.000424	-0.000777	-0.000424	1.000000	0.000113	0.000777	-0.000113	1.000000
29224	0.137477	0.073986	9.721584	-0.003568	0.002447	0.008353	1.000000	0.000440	-0.000770	-0.000440	1.000000	0.000104	0.000770	-0.000104	1.000000
29225	0.161361	0.077287	9.723674	-0.004992	0.000846	0.007942	1.000000	0.000446	-0.000749	-0.000446	1.000000	0.000081	0.000749	-0.000081	1.000000
29226	0.113168	0.069640	9.719507	0.001260	0.001678	0.006720	1.000000	0.000446	-0.000734	-0.000446	1.000000	0.000121	0.000734	-0.000120	1.000000
29227	0.165366	0.066238	9.691145	-0.005398	0.005639	0.007484	1.000000	0.000480	-0.000761	-0.000479	1.000000	0.000093	0.000761	-0.000093	1.000000
29228	0.136669	0.083762	9.699756	-0.000282	0.002610	0.002180	1.000000	0.000434	-0.000756	-0.000434	1.000000	0.000118	0.000756	-0.000118	1.000000
29229	0.155932	0.098000	9.734389	-0.002152	0.003697	0.010256	1.000000	0.000454	-0.000762	-0.000454	1.000000	0.000124	0.000762	-0.000123	1.000000
29230	0.135841	0.072533	9.721618	-0.002001	0.002918	0.006930	1.000000	0.000456	-0.000760	-0.000456	1.000000	0.000131	0.000760	-0.000131	1.000000
29231	0.140454	0.083394	9.645385	-0.003555	0.003149	0.005371	1.000000	0.000432	-0.000762	-0.000432	1.000000	0.000122	0.000762	-0.000122	1.000000
29232	0.135470	0.082943	9.699780	-0.000440	0.003038	0.006997	1.000000	0.000435	-0.000760	-0.000435	1.000000	0.000145	0.000760	-0.000145	1.000000
29233	0.139522	0.061214	9.689094	-0.003425	0.001318	0.006518	1.000000	0.000440	-0.000744	-0.000440	1.000000	0.000137	0.000744	-0.000137	1.000000
29234	0.154537	0.107769	9.712577	-0.000981	0.009311	0.006884	1.000000	0.000442	-0.000805	-0.000442	1.000000	0.000155	0.000805	-0.000154	1.000000
29235	0.157936	0.075105	9.723747	-0.003707	0.003928	0.008697	1.000000	0.000082	-0.000621	-0.000082	1.000000	0.000045	0.000621	-0.000045	1.000000
29236	0.133841	0.082082	9.699810	-0.000296	0.001908	0.005162	1.000000	0.000067	-0.000608	-0.000067	1.000000	0.000070	0.000608	-0.000070	1.000000
29237	0.153174	0.096311	9.734450	-0.002002	0.002918	0.006929	1.000000	0.000104	-0.000608	-0.000104	1.000000	0.000074	0.000608	-0.000074	1.000000
29238	0.157161	0.074647	9.723763	-0.000447	0.002687	0.008488	1.000000	0.000122	-0.000603	-0.000122	1.000000	0.000097	0.000603	-0.000097	1.000000
29239	0.133015	0.081622	9.699825	-0.003700	0.004280	0.007206	1.000000	0.000133	-0.000615	-0.000133	1.000000	0.000088	0.000615	-0.000087	1.000000
29240	0.160939	0.063584	9.691238	-0.000433	0.003389	0.005506	1.000000	0.000120	-0.000618	-0.000120	1.000000	0.000111	0.000618	-0.000111	1.000000
29241	0.136467	0.048714	9.710991	-0.004995	0.000848	0.007940	1.000000	0.000135	-0.000596	-0.000135	1.000000	0.000088	0.000596	-0.000088	1.000000
29242	0.151715	0.095277	9.734483	0.000999	0.005340	0.004428	1.000000	0.000112	-0.000618	-0.000112	1.000000	0.000125	0.000618	-0.000125	1.000000
29243	0.155433	0.073521	9.723800	-0.005399	0.005641	0.007483	1.000000	0.000108	-0.000643	-0.000108	1.000000	0.000097	0.000643	-0.000097	1.000000
29244	0.127019	0.101966	9.710553	-0.000296	0.001908	0.005162	1.000000	0.000092	-0.000631	-0.000092	1.000000	0.000122	0.000631	-0.000122	1.000000
29245	0.131059	0.080237	9.699863	-0.003571	0.002448	0.008352	1.000000	0.000127	-0.000627	-0.000127	1.000000	0.000112	0.000627	-0.000112	1.000000
29246	0.154621	0.072827	9.723818	-0.000448	0.002686	0.008488	1.000000	0.000145	-0.000622	-0.000145	1.000000	0.000135	0.000622	-0.000134	1.000000
29247	0.130174	0.068915	9.721721	-0.003837	0.005761	0.007551	1.000000	0.000140	-0.000649	-0.000139	1.000000	0.000123	0.000649	-0.000123	1.000000
29248	0.154352	0.094114	9.680142	-0.001866	0.001438	0.006584	1.000000	0.000138	-0.000632	-0.000138	1.000000	0.000132	0.000632	-0.000132	1.000000
29249	0.125340	0.089805	9.732430	-0.005270	0.003810	0.008629	1.000000	0.000136	-0.000638	-0.000136	1.000000	0.000108	0.000638	-0.000108	1.000000
29250	0.157842	0.061119	9.691305	0.001257	0.001675	0.006720	1.000000	0.000136	-0.000623	-0.000136	1.000000	0.000148	0.000623	-0.000148	1.000000
29251	0.129159	0.067954	9.721742	-0.003420	0.001670	0.005026	1.000000	0.000109	-0.000609	-0.000109	1.000000	0.000142	0.000609	-0.000142	1.000000
29252	0.157416	0.060648	9.691314	-0.003709	0.003929	0.008696	1.000000	0.000128	-0.000616	-0.000128	1.000000	0.000132	0.000616	-0.000132	1.000000
29253	0.152854	0.081892	9.702019	-0.002003	0.002918	0.006929	1.000000	0.000158	-0.000614	-0.000158	1.000000	0.000136	0.000614	-0.000136	1.000000
29254	0.123985	0.088558	9.732459	-0.003701	0.004280	0.007206	1.000000	0.000162	-0.000625	-0.000162	1.000000	0.000126	0.000625	-0.000126	1.000000
29255	0.152245	0.081249	9.702034	-0.003428	0.001319	0.006516	1.000000	0.000200	-0.000606	-0.000200	1.000000	0.000115	0.000606	-0.000115	1.000000
29256	0.123453	0.087847	9.732472	-0.003701	0.004280	0.007206	1.000000	0.000205	-0.000617	-0.000205	1.000000	0.000106	0.000617	-0.000105	1.000000
29257	0.151039	0.058793	9.745736	-0.002131	0.004750	0.005783	1.000000	0.000215	-0.000634	-0.000215	1.000000	0.000110	0.000634	-0.000110	1.000000
29258	0.131305	0.055026	9.689246	-0.005263	0.004162	0.007137	1.000000	0.000219	-0.000643	-0.000219	1.000000	0.000085	0.000643	-0.000085	1.000000
29259	0.150733	0.079784	9.702070	-0.003710	0.003929	0.008696	1.000000	0.000259	-0.000654	-0.000259	1.000000	0.000073	0.000654	-0.000072	1.000000
29260	0.145970	0.090206	9.734619	-0.000297	0.001907	0.005162	1.000000	0.000243	-0.000641	-0.000243	1.000000	0.000097	0.000641	-0.000097	1.000000
29261	0.145741	0.090085	9.734623	-0.002004	0.002918	0.006929	1.000000	0.000292	-0.000644	-0.000292	1.000000	0.000101	0.000644	-0.000100	1.000000
29262	0.154434	0.068627	9.669543	-0.002004	0.002918	0.006929	1.000000	0.000294	-0.000641	-0.000294	1.000000	0.000108	0.000641	-0.000108	1.000000
29263	0.145173	0.089601	9.734636	-0.003557	0.003151	0.005370	1.000000	0.000260	-0.000642	-0.000260	1.000000	0.000101	0.000642	-0.000101	1.000000
29264	0.145146	0.100229	9.712803	-0.002004	0.002918	0.006929	1.000000	0.000261	-0.000640	-0.000261	1.000000	0.000108	0.000640	-0.000108	1.000000
29265	0.120730	0.096434	9.710690	-0.000570	0.004868	0.005851	1.000000	0.000254	-0.000656	-0.000254	1.000000	0.000130	0.000656	-0.000130	1.000000
29266	0.148308	0.067209	9.723957	-0.008387	0.003927	0.007000	1.000000	0.000255	-0.000664	-0.000255	1.000000	0.000074	0.000664	-0.000073	1.000000
29267	0.172157	0.070516	9.726084	0.001391	0.000192	0.006376	1.000000	0.000217	-0.000635	-0.000217	1.000000	0.000118	0.000635	-0.000118	1.000000
29268	0.119569	0.084531	9.732550	-0.005399	0.005644	0.007482	1.000000	0.000224	-0.000659	-0.000224	1.000000	0.000091	0.000659	-0.000091	1.000000
29269	0.151910	0.055661	9.691432	-0.002004	0.002918	0.006929	1.000000	0.000214	-0.000657	-0.000214	1.000000	0.000101	0.000657	-0.000101	1.000000
29270	0.151849	0.066359	9.669600	-0.002149	0.004047	0.008764	1.000000	0.000235	-0.000666	-0.000235	1.000000	0.000106	0.000666	-0.000106	1.000000
29271	0.142618	0.087320	9.734695	-0.003430	0.001320	0.006515	1.000000	0.000225	-0.000645	-0.000225	1.000000	0.000098	0.000645	-0.000098	1.000000
29272	0.146900	0.076501	9.702155	-0.000443	0.003035	0.006997	1.000000	0.000228	-0.000644	-0.000228	1.000000	0.000121	0.000644	-0.000120	1.000000
29273	0.142422	0.097677	9.712869	-0.006690	0.002565	0.006723	1.000000	0.000170	-0.000633	-0.000170	1.000000	0.000084	0.000633	-0.000084	1.000000
29274	0.141872	0.086257	9.734715	-0.003557	0.003152	0.005370	1.000000	0.000156	-0.000632	-0.000156	1.000000	0.000076	0.000632	-0.000076	1.000000
29275	0.150512	0.064658	9.669633	-0.003711	0.003929	0.008696	1.000000	0.000222	-0.000643	-0.000222	1.000000	0.000063	0.000643	-0.000063	1.000000
29276	0.141620	0.096685	9.712891	0.001390	0.000191	0.006376	1.000000	0.000219	-0.000613	-0.000219	1.000000	0.000104	0.000613	-0.000104	1.000000
29277	0.173290	0.035308	9.737280	-0.003693	0.004633	0.005715	1.000000	0.000186	-0.000629	-0.000186	1.000000	0.000095	0.000629	-0.000095	1.000000
29278	0.121196	0.071032	9.700063	-0.003567	0.002800	0.006860	1.000000	0.000187	-0.000625	-0.000187	1.000000	0.000087	0.000625	-0.000087	1.000000
29279	0.164819	0.099483	9.715043	-0.003567	0.002800	0.006860	1.000000	0.000210	-0.000622	-0.000210	1.000000	0.000078	0.000622	-0.000077	1.000000
29280	0.124509	0.037867	9.711200	-0.003702	0.004281	0.007205	1.000000	0.000215	-0.000633	-0.000215	1.000000	0.000068	0.000633	-0.000068	1.000000
29281	0.168049	0.066455	9.726184	-0.000443	0.003035	0.006997	1.000000	0.000229	-0.000633	-0.000229	1.000000	0.000090	0.000633	-0.000089	1.000000
29282	0.139970	0.095080	9.712930	-0.003305	-0.000513	0.007660	1.000000	0.000237	-0.000596	-0.000237	1.000000	0.000084	0.000596	-0.000084	1.000000
29283	0.143675	0.062431	9.724058	-0.000570	0.004867	0.005852	1.000000	0.000248	-0.000615	-0.000248	1.000000	0.000104	0.000615	-0.000103	1.000000
29284	0.115296	0.091037	9.710808	-0.003712	0.003930	0.008695	1.000000	0.000267	-0.000623	-0.000267	1.000000	0.000093	0.000623	-0.000093	1.000000
29285	0.166835	0.065460	9.726212	-0.003838	0.005762	0.007550	1.000000	0.000277	-0.000648	-0.000277	1.000000	0.000081	0.000648	-0.000081	1.000000
29286	0.138490	0.093915	9.712963	-0.003577	0.002449	0.008350	1.000000	0.000293	-0.000640	-0.000293	1.000000	0.000072	0.000640	-0.000072	1.000000
29287	0.166464	0.075725	9.704395	-0.001996	0.003269	0.005438	1.000000	0.000294	-0.000641	-0.000293	1.000000	0.000078	0.000641	-0.000078	1.000000
29288	0.137942	0.093431	9.712975	-0.002015	0.002566	0.008419	1.000000	0.000310	-0.000635	-0.000310	1.000000	0.000085	0.000635	-0.000085	1.000000
29289	0.141835	0.071771	9.702267	-0.000425	0.003738	0.004017	1.000000	0.000291	-0.000640	-0.000291	1.000000	0.000108	0.000640	-0.000108	1.000000
29290	0.136997	0.082094	9.734821	-0.005284	0.003461	0.010116	1.000000	0.000324	-0.000642	-0.000324	1.000000	0.000082	0.000642	-0.000082	1.000000
29291	0.141283	0.071048	9.702280	-0.003443	0.000968	0.008004	1.000000	0.000372	-0.000622	-0.000372	1.000000	0.000071	0.000622	-0.000071	1.000000
29292	0.168940	0.042000	9.715544	-0.000569	0.004867	0.005852	1.000000	0.000363	-0.000639	-0.000363	1.000000	0.000093	0.000639	-0.000093	1.000000
29293	0.140560	0.070703	9.702293	-0.002141	0.004398	0.007274	1.000000	0.000378	-0.000653	-0.000378	1.000000	0.000098	0.000653	-0.000098	1.000000
29294	0.164496	0.085019	9.682615	-0.002141	0.004398	0.007274	1.000000	0.000383	-0.000665	-0.000383	1.000000	0.000104	0.000665	-0.000103	1.000000
29295	0.183471	0.088028	9.739146	-0.003433	0.001321	0.006514	1.000000	0.000396	-0.000646	-0.000396	1.000000	0.000095	0.000646	-0.000095	1.000000
29296	0.144089	0.059317	9.669765	-0.002141	0.004398	0.007274	1.000000	0.000401	-0.000659	-0.000401	1.000000	0.000101	0.000659	-0.000101	1.000000
29297	0.134909	0.080332	9.734865	-0.001747	-0.000396	0.007728	1.000000	0.000429	-0.000624	-0.000429	1.000000	0.000111	0.000624	-0.000110	1.000000
29298	0.135044	0.090908	9.713040	-0.005265	0.004166	0.007135	1.000000	0.000432	-0.000633	-0.000432	1.000000	0.000085	0.000634	-0.000085	1.000000
29299	0.134248	0.079604	9.734880	-0.002276	0.005879	0.007619	1.000000	0.000449	-0.000659	-0.000449	1.000000	0.000089	0.000659	-0.000089	1.000000
29300	0.162822	0.083473	9.682656	0.001386	0.000188	0.006376	1.000000	0.000446	-0.000629	-0.000446	1.000000	0.000131	0.000629	-0.000130	1.000000
29301	0.138207	0.068827	9.702340	-0.003683	0.004987	0.004224	1.000000	0.000427	-0.000648	-0.000427	1.000000	0.000121	0.000648	-0.000120	1.000000
29302	0.133330	0.079148	9.734896	-0.002007	0.002917	0.006928	1.000000	0.000429	-0.000645	-0.000429	1.000000	0.000128	0.000645	-0.000128	1.000000
29303	0.157424	0.093467	9.715225	-0.002007	0.002918	0.006928	1.000000	0.000443	-0.000645	-0.000443	1.000000	0.000133	0.000645	-0.000132	1.000000
29304	0.161257	0.071645	9.704513	-0.003704	0.004282	0.007204	1.000000	0.000447	-0.000656	-0.000447	1.000000	0.000123	0.000656	-0.000123	1.000000
29305	0.132530	0.089211	9.713091	-0.003828	0.006115	0.006059	1.000000	0.000478	-0.000686	-0.000478	1.000000	0.000108	0.000686	-0.000107	1.000000
29306	0.156185	0.092519	9.715254	-0.001852	0.002141	0.003602	1.000000	0.000446	-0.000676	-0.000446	1.000000	0.000117	0.000676	-0.000117	1.000000
29307	0.136161	0.067131	9.702381	-0.003445	0.000969	0.008003	1.000000	0.000438	-0.000652	-0.000438	1.000000	0.000111	0.000652	-0.000111	1.000000
29308	0.131394	0.077376	9.734937	-0.003693	0.004635	0.005714	1.000000	0.000427	-0.000667	-0.000427	1.000000	0.000102	0.000667	-0.000102	1.000000
29309	0.155443	0.091681	9.715274	-0.000467	0.002328	0.009978	1.000000	0.000461	-0.000659	-0.000461	1.000000	0.000124	0.000659	-0.000124	1.000000
29310	0.135318	0.066356	9.702398	-0.003570	0.002802	0.006858	1.000000	0.000462	-0.000655	-0.000462	1.000000	0.000116	0.000655	-0.000115	1.000000
29311	0.154199	0.069239	9.758941	-0.003704	0.004283	0.007204	1.000000	0.000495	-0.000667	-0.000495	1.000000	0.000102	0.000667	-0.000102	1.000000
29312	0.154538	0.090817	9.715297	-0.002019	0.002565	0.008418	1.000000	0.000512	-0.000660	-0.000512	1.000000	0.000109	0.000661	-0.000109	1.000000
29313	0.158767	0.079938	9.682754	-0.003559	0.003154	0.005368	1.000000	0.000474	-0.000661	-0.000474	1.000000	0.000103	0.000661	-0.000103	1.000000
29314	0.129887	0.086670	9.713149	-0.002164	0.003693	0.010254	1.000000	0.000509	-0.000666	-0.000509	1.000000	0.000108	0.000666	-0.000108	1.000000
29315	0.153349	0.079026	9.737143	-0.003425	0.001674	0.005022	1.000000	0.000500	-0.000652	-0.000500	1.000000	0.000101	0.000652	-0.000101	1.000000
29316	0.157292	0.057219	9.726423	-0.002008	0.002917	0.006928	1.000000	0.000502	-0.000649	-0.000502	1.000000	0.000108	0.000650	-0.000108	1.000000
29317	0.181611	0.082369	9.684948	-0.003838	0.005764	0.007549	1.000000	0.000518	-0.000675	-0.000518	1.000000	0.000096	0.000675	-0.000096	1.000000
29318	0.128567	0.085532	9.713177	-0.001997	0.003270	0.005438	1.000000	0.000505	-0.000676	-0.000505	1.000000	0.000104	0.000676	-0.000104	1.000000
29319	0.152747	0.099766	9.693525	-0.003436	0.001321	0.006512	1.000000	0.000488	-0.000657	-0.000488	1.000000	0.000099	0.000657	-0.000099	1.000000
29320	0.151792	0.077531	9.737180	-0.003705	0.004283	0.007204	1.000000	0.000493	-0.000668	-0.000492	1.000000	0.000089	0.000668	-0.000089	1.000000
29321	0.127834	0.084548	9.713195	-0.003448	0.000969	0.008002	1.000000	0.000513	-0.000648	-0.000513	1.000000	0.000081	0.000648	-0.000080	1.000000
29322	0.156103	0.077240	9.682819	-0.002120	0.005103	0.004293	1.000000	0.000489	-0.000667	-0.000489	1.000000	0.000087	0.000667	-0.000087	1.000000
29323	0.126761	0.073037	9.735032	-0.003716	0.003930	0.008694	1.000000	0.000533	-0.000675	-0.000533	1.000000	0.000075	0.000675	-0.000074	1.000000
29324	0.154826	0.065554	9.704661	-0.005378	0.006354	0.004499	1.000000	0.000510	-0.000707	-0.000510	1.000000	0.000049	0.000707	-0.000048	1.000000
29325	0.149976	0.075855	9.737221	-0.000336	0.000845	0.009632	1.000000	0.000565	-0.000683	-0.000565	1.000000	0.000069	0.000683	-0.000069	1.000000
29326	0.154676	0.076081	9.682851	-0.002020	0.002564	0.008418	1.000000	0.000581	-0.000676	-0.000581	1.000000	0.000076	0.000676	-0.000075	1.000000
29327	0.149894	0.086465	9.715409	-0.001998	0.003270	0.005438	1.000000	0.000553	-0.000678	-0.000553	1.000000	0.000083	0.000678	-0.000083	1.000000
29328	0.153753	0.064652	9.704684	-0.003571	0.002803	0.006857	1.000000	0.000554	-0.000674	-0.000554	1.000000	0.000075	0.000674	-0.000075	1.000000
29329	0.149296	0.085907	9.715423	-0.001986	0.003622	0.003948	1.000000	0.000545	-0.000680	-0.000545	1.000000	0.000082	0.000680	-0.000081	1.000000
29330	0.148647	0.074682	9.737250	-0.003583	0.002450	0.008347	1.000000	0.000561	-0.000673	-0.000561	1.000000	0.000073	0.000673	-0.000072	1.000000
29331	0.129203	0.071211	9.680706	-0.002009	0.002917	0.006928	1.000000	0.000554	-0.000669	-0.000554	1.000000	0.000080	0.000669	-0.000079	1.000000
29332	0.148475	0.085139	9.715443	-0.002010	0.002917	0.006927	1.000000	0.000555	-0.000666	-0.000555	1.000000	0.000087	0.000666	-0.000086	1.000000
29333	0.176368	0.066871	9.706895	-0.003548	0.003508	0.003877	1.000000	0.000532	-0.000670	-0.000532	1.000000	0.000078	0.000670	-0.000078	1.000000
29334	0.123455	0.070092	9.735096	-0.002021	0.002564	0.008417	1.000000	0.000549	-0.000663	-0.000549	1.000000	0.000085	0.000663	-0.000085	1.000000
29335	0.152203	0.073720	9.682908	-0.003438	0.001322	0.006511	1.000000	0.000556	-0.000646	-0.000556	1.000000	0.000078	0.000646	-0.000077	1.000000
29336	0.123817	0.091515	9.691467	-0.000459	0.002678	0.008488	1.000000	0.000574	-0.000640	-0.000573	1.000000	0.000100	0.000640	-0.000100	1.000000
29337	0.175254	0.054961	9.728733	-0.003329	-0.000864	0.009145	1.000000	0.000612	-0.000600	-0.000612	1.000000	0.000091	0.000600	-0.000090	1.000000
29338	0.147632	0.094579	9.693657	-0.002143	0.004398	0.007273	1.000000	0.000617	-0.000612	-0.000617	1.000000	0.000096	0.000612	-0.000096	1.000000
29339	0.142741	0.104953	9.726219	-0.001986	0.003623	0.003948	1.000000	0.000591	-0.000618	-0.000591	1.000000	0.000103	0.000619	-0.000102	1.000000
29340	0.150999	0.072404	9.682937	-0.006818	0.004409	0.005572	1.000000	0.000578	-0.000631	-0.000578	1.000000	0.000062	0.000631	-0.000062	1.000000
29341	0.150346	0.061022	9.704761	-0.001877	0.001436	0.006581	1.000000	0.000573	-0.000614	-0.000573	1.000000	0.000072	0.000614	-0.000071	1.000000
29342	0.121863	0.078747	9.713321	-0.003693	0.004637	0.005713	1.000000	0.000562	-0.000629	-0.000562	1.000000	0.000062	0.000629	-0.000062	1.000000
29343	0.145177	0.071112	9.737329	-0.000448	0.003030	0.006998	1.000000	0.000553	-0.000628	-0.000553	1.000000	0.000085	0.000628	-0.000085	1.000000
29344	0.145187	0.081854	9.715521	-0.003694	0.004637	0.005713	1.000000	0.000542	-0.000642	-0.000542	1.000000	0.000076	0.000642	-0.000075	1.000000
29345	0.120856	0.078050	9.713339	-0.001890	0.001083	0.008071	1.000000	0.000571	-0.000622	-0.000571	1.000000	0.000082	0.000622	-0.000082	1.000000
29346	0.144536	0.081288	9.715535	-0.003802	0.006824	0.003079	1.000000	0.000534	-0.000659	-0.000534	1.000000	0.000072	0.000659	-0.000072	1.000000
29347	0.124662	0.066914	9.680797	-0.001745	-0.000045	0.006235	1.000000	0.000552	-0.000627	-0.000552	1.000000	0.000080	0.000627	-0.000080	1.000000
29348	0.163875	0.105706	9.728482	-0.005401	0.005651	0.007478	1.000000	0.000559	-0.000652	-0.000559	1.000000	0.000053	0.000652	-0.000053	1.000000
29349	0.171803	0.062351	9.707007	-0.000328	0.001196	0.008142	1.000000	0.000569	-0.000631	-0.000569	1.000000	0.000077	0.000631	-0.000076	1.000000
29350	0.143441	0.080240	9.715560	-0.002023	0.002563	0.008417	1.000000	0.000585	-0.000625	-0.000585	1.000000	0.000083	0.000625	-0.000083	1.000000
29351	0.147675	0.069459	9.683010	-0.001998	0.003270	0.005437	1.000000	0.000553	-0.000625	-0.000553	1.000000	0.000093	0.000625	-0.000092	1.000000
29352	0.142855	0.079757	9.715573	-0.003561	0.003156	0.005367	1.000000	0.000538	-0.000624	-0.000538	1.000000	0.000084	0.000625	-0.000084	1.000000
29353	0.138691	0.111954	9.704512	-0.002277	0.005878	0.007620	1.000000	0.000554	-0.000654	-0.000554	1.000000	0.000089	0.000654	-0.000089	1.000000
29354	0.122097	0.054214	9.702649	-0.001853	0.002142	0.003601	1.000000	0.000522	-0.000644	-0.000522	1.000000	0.000098	0.000644	-0.000098	1.000000
29355	0.142141	0.089935	9.693783	-0.003719	0.003931	0.008692	1.000000	0.000534	-0.000653	-0.000534	1.000000	0.000090	0.000653	-0.000090	1.000000
29356	0.165253	0.071394	9.739609	0.001353	-0.000525	0.009356	1.000000	0.000561	-0.000616	-0.000561	1.000000	0.000131	0.000616	-0.000130	1.000000
29357	0.165768	0.093106	9.695991	-0.005376	0.006359	0.004498	1.000000	0.000543	-0.000650	-0.000543	1.000000	0.000103	0.000650	-0.000103	1.000000
29358	0.140870	0.078200	9.715614	-0.003574	0.002804	0.006856	1.000000	0.000544	-0.000646	-0.000544	1.000000	0.000095	0.000646	-0.000094	1.000000
29359	0.140202	0.066882	9.737432	-0.003574	0.002804	0.006856	1.000000	0.000545	-0.000645	-0.000545	1.000000	0.000086	0.000645	-0.000086	1.000000
29360	0.164374	0.081062	9.717829	-0.001999	0.003270	0.005437	1.000000	0.000532	-0.000645	-0.000532	1.000000	0.000094	0.000646	-0.000093	1.000000
29361	0.144135	0.055752	9.704887	-0.003574	0.002804	0.006856	1.000000	0.000519	-0.000641	-0.000519	1.000000	0.000086	0.000641	-0.000085	1.000000
29362	0.139678	0.076997	9.715641	-0.002144	0.004397	0.007273	1.000000	0.000525	-0.000653	-0.000524	1.000000	0.000091	0.000654	-0.000091	1.000000
29363	0.138873	0.065737	9.737459	-0.003720	0.003931	0.008692	1.000000	0.000543	-0.000663	-0.000543	1.000000	0.000081	0.000663	-0.000080	1.000000
29364	0.143170	0.054896	9.704906	-0.001721	0.000661	0.003255	1.000000	0.000507	-0.000638	-0.000507	1.000000	0.000091	0.000638	-0.000091	1.000000
29365	0.138842	0.076155	9.715660	-0.003720	0.003931	0.008692	1.000000	0.000519	-0.000645	-0.000519	1.000000	0.000082	0.000645	-0.000082	1.000000
29366	0.162096	0.068382	9.739683	-0.002145	0.004397	0.007273	1.000000	0.000524	-0.000658	-0.000524	1.000000	0.000088	0.000658	-0.000087	1.000000
29367	0.138076	0.075649	9.715675	-0.001999	0.003270	0.005437	1.000000	0.000520	-0.000658	-0.000520	1.000000	0.000093	0.000658	-0.000093	1.000000
29368	0.161902	0.078864	9.717888	-0.003429	0.001677	0.005020	1.000000	0.000503	-0.000643	-0.000503	1.000000	0.000087	0.000643	-0.000086	1.000000
29369	0.137141	0.064056	9.737495	-0.003707	0.004285	0.007202	1.000000	0.000486	-0.000655	-0.000486	1.000000	0.000079	0.000655	-0.000079	1.000000
29370	0.160989	0.067189	9.739710	-0.003297	0.000196	0.004673	1.000000	0.000465	-0.000625	-0.000465	1.000000	0.000074	0.000625	-0.000073	1.000000
29371	0.113499	0.081813	9.691680	-0.003721	0.003931	0.008692	1.000000	0.000475	-0.000631	-0.000475	1.000000	0.000065	0.000631	-0.000064	1.000000
29372	0.136903	0.074116	9.715703	-0.000332	0.001194	0.008141	1.000000	0.000489	-0.000611	-0.000489	1.000000	0.000088	0.000611	-0.000088	1.000000
29373	0.141144	0.063349	9.683149	-0.003694	0.004638	0.005712	1.000000	0.000483	-0.000625	-0.000483	1.000000	0.000078	0.000625	-0.000078	1.000000
29374	0.156251	0.098555	9.728682	-0.003589	0.002450	0.008345	1.000000	0.000498	-0.000617	-0.000498	1.000000	0.000069	0.000617	-0.000069	1.000000
29375	0.160023	0.076732	9.717937	-0.002145	0.004397	0.007273	1.000000	0.000492	-0.000629	-0.000492	1.000000	0.000077	0.000629	-0.000077	1.000000
29376	0.135519	0.073042	9.715731	-0.002131	0.004750	0.005784	1.000000	0.000482	-0.000645	-0.000482	1.000000	0.000083	0.000645	-0.000083	1.000000
29377	0.131134	0.094295	9.726491	-0.003444	0.001323	0.006509	1.000000	0.000472	-0.000630	-0.000472	1.000000	0.000078	0.000630	-0.000078	1.000000
29378	0.158985	0.075955	9.717960	-0.002118	0.005104	0.004294	1.000000	0.000448	-0.000649	-0.000448	1.000000	0.000084	0.000649	-0.000084	1.000000
29379	0.130477	0.093806	9.726505	-0.002041	0.002209	0.009906	1.000000	0.000481	-0.000642	-0.000481	1.000000	0.000092	0.000642	-0.000092	1.000000
29380	0.154598	0.107871	9.706927	-0.005402	0.005654	0.007477	1.000000	0.000488	-0.000666	-0.000488	1.000000	0.000065	0.000666	-0.000065	1.000000
29381	0.157969	0.075085	9.717983	-0.000174	0.000420	0.004815	1.000000	0.000466	-0.000637	-0.000466	1.000000	0.000092	0.000637	-0.000091	1.000000
29382	0.161901	0.053438	9.707230	-0.002014	0.002916	0.006927	1.000000	0.000468	-0.000634	-0.000468	1.000000	0.000099	0.000634	-0.000098	1.000000
29383	0.133902	0.082278	9.693968	-0.002014	0.002916	0.006927	1.000000	0.000473	-0.000631	-0.000473	1.000000	0.000107	0.000631	-0.000106	1.000000
29384	0.157273	0.074555	9.717998	-0.002028	0.002562	0.008416	1.000000	0.000490	-0.000625	-0.000489	1.000000	0.000113	0.000625	-0.000113	1.000000
29385	0.132538	0.059760	9.737586	-0.005153	0.002339	0.008273	1.000000	0.000518	-0.000617	-0.000518	1.000000	0.000089	0.000618	-0.000088	1.000000
29386	0.181213	0.088408	9.698432	0.000979	0.004619	0.007417	1.000000	0.000526	-0.000632	-0.000525	1.000000	0.000126	0.000632	-0.000125	1.000000
29387	0.124126	0.113376	9.737312	-0.005139	0.002693	0.006783	1.000000	0.000520	-0.000624	-0.000520	1.000000	0.000101	0.000624	-0.000101	1.000000
29388	0.156234	0.073419	9.718024	-0.001751	-0.000046	0.006233	1.000000	0.000514	-0.000592	-0.000514	1.000000	0.000111	0.000592	-0.000111	1.000000
29389	0.155938	0.073215	9.718030	-0.002263	0.006231	0.006131	1.000000	0.000489	-0.000626	-0.000489	1.000000	0.000118	0.000626	-0.000118	1.000000
29390	0.155943	0.083975	9.696237	-0.002014	0.002916	0.006926	1.000000	0.000491	-0.000623	-0.000491	1.000000	0.000125	0.000623	-0.000125	1.000000
29391	0.151147	0.094246	9.728805	-0.003577	0.002805	0.006855	1.000000	0.000484	-0.000616	-0.000484	1.000000	0.000118	0.000617	-0.000118	1.000000
29392	0.130819	0.068905	9.715825	-0.003708	0.004286	0.007201	1.000000	0.000488	-0.000627	-0.000488	1.000000	0.000108	0.000627	-0.000108	1.000000
29393	0.130492	0.068616	9.715832	-0.002029	0.002562	0.008416	1.000000	0.000525	-0.000619	-0.000525	1.000000	0.000113	0.000619	-0.000113	1.000000
29394	0.150321	0.093537	9.728825	0.001213	0.000949	0.009702	1.000000	0.000554	-0.000596	-0.000554	1.000000	0.000152	0.000596	-0.000152	1.000000
29395	0.154273	0.071886	9.718067	-0.003431	0.001678	0.005018	1.000000	0.000526	-0.000580	-0.000526	1.000000	0.000146	0.000580	-0.000146	1.000000
29396	0.153885	0.071451	9.718076	-0.005373	0.006364	0.004497	1.000000	0.000503	-0.000612	-0.000503	1.000000	0.000120	0.000612	-0.000120	1.000000
29397	0.148913	0.081632	9.750648	-0.002015	0.002916	0.006926	1.000000	0.000505	-0.000609	-0.000505	1.000000	0.000126	0.000609	-0.000125	1.000000
29398	0.125045	0.088897	9.726622	-0.003592	0.002451	0.008344	1.000000	0.000520	-0.000601	-0.000520	1.000000	0.000117	0.000601	-0.000116	1.000000
29399	0.177471	0.084928	9.698532	-0.002030	0.002562	0.008416	1.000000	0.000543	-0.000595	-0.000543	1.000000	0.000123	0.000595	-0.000122	1.000000
29400	0.153126	0.081290	9.696305	-0.002000	0.003270	0.005437	1.000000	0.000530	-0.000596	-0.000530	1.000000	0.000130	0.000596	-0.000130	1.000000
29401	0.123966	0.077079	9.748436	-0.004908	-0.000975	0.009067	1.000000	0.000585	-0.000557	-0.000585	1.000000	0.000105	0.000557	-0.000105	1.000000
29402	0.152815	0.080745	9.696314	0.001009	0.005326	0.004439	1.000000	0.000563	-0.000578	-0.000563	1.000000	0.000143	0.000578	-0.000142	1.000000
29403	0.148223	0.102055	9.707090	-0.005402	0.005657	0.007476	1.000000	0.000597	-0.000604	-0.000597	1.000000	0.000113	0.000604	-0.000112	1.000000
29404	0.151782	0.080223	9.696335	-0.000569	0.004861	0.005856	1.000000	0.000588	-0.000621	-0.000588	1.000000	0.000134	0.000621	-0.000134	1.000000
29405	0.146887	0.090558	9.728906	-0.003578	0.002805	0.006854	1.000000	0.000589	-0.000616	-0.000589	1.000000	0.000126	0.000616	-0.000126	1.000000
29406	0.122061	0.075870	9.748470	-0.002000	0.003270	0.005437	1.000000	0.000576	-0.000617	-0.000576	1.000000	0.000134	0.000617	-0.000133	1.000000
29407	0.146230	0.090067	9.728920	-0.002147	0.004397	0.007273	1.000000	0.000615	-0.000631	-0.000615	1.000000	0.000135	0.000631	-0.000135	1.000000
29408	0.169938	0.093197	9.731170	-0.003563	0.003160	0.005365	1.000000	0.000601	-0.000631	-0.000601	1.000000	0.000127	0.000631	-0.000127	1.000000
29409	0.145058	0.078426	9.750733	-0.003724	0.003932	0.008690	1.000000	0.000632	-0.000640	-0.000632	1.000000	0.000116	0.000641	-0.000116	1.000000
29410	0.149248	0.067518	9.718176	-0.003563	0.003160	0.005364	1.000000	0.000618	-0.000640	-0.000618	1.000000	0.000108	0.000640	-0.000108	1.000000
29411	0.125020	0.063991	9.715935	0.001371	0.000174	0.006377	1.000000	0.000614	-0.000611	-0.000614	1.000000	0.000151	0.000611	-0.000150	1.000000
29412	0.152951	0.045745	9.707414	-0.003725	0.003932	0.008690	1.000000	0.000633	-0.000618	-0.000633	1.000000	0.000140	0.000618	-0.000140	1.000000
29413	0.144902	0.099505	9.707166	-0.002131	0.004751	0.005784	1.000000	0.000619	-0.000634	-0.000619	1.000000	0.000148	0.000634	-0.000147	1.000000
29414	0.144058	0.088303	9.728969	-0.002016	0.002916	0.006926	1.000000	0.000621	-0.000631	-0.000621	1.000000	0.000155	0.000631	-0.000154	1.000000
29415	0.143798	0.088095	9.728974	-0.002032	0.002561	0.008415	1.000000	0.000643	-0.000625	-0.000643	1.000000	0.000161	0.000625	-0.000160	1.000000
29416	0.156082	0.034278	9.674876	-0.002131	0.004751	0.005784	1.000000	0.000633	-0.000640	-0.000633	1.000000	0.000167	0.000641	-0.000166	1.000000
29417	0.138988	0.109044	9.739762	-0.005288	0.003823	0.008617	1.000000	0.000661	-0.000646	-0.000661	1.000000	0.000141	0.000646	-0.000140	1.000000
29418	0.170268	0.058164	9.742272	0.000978	0.004616	0.007418	1.000000	0.000668	-0.000660	-0.000668	1.000000	0.000178	0.000660	-0.000177	1.000000
29419	0.121773	0.051154	9.737776	-0.005142	0.002697	0.006781	1.000000	0.000677	-0.000657	-0.000677	1.000000	0.000151	0.000657	-0.000151	1.000000
29420	0.142650	0.097727	9.707218	-0.001756	-0.000046	0.006231	1.000000	0.000672	-0.000625	-0.000672	1.000000	0.000161	0.000625	-0.000161	1.000000
29421	0.146418	0.075989	9.696451	-0.002278	0.005877	0.007620	1.000000	0.000685	-0.000653	-0.000685	1.000000	0.000164	0.000653	-0.000164	1.000000
29422	0.165462	0.089693	9.731280	-0.002147	0.004396	0.007273	1.000000	0.000691	-0.000665	-0.000690	1.000000	0.000170	0.000665	-0.000169	1.000000
29423	0.141588	0.097092	9.707240	-0.001871	0.001789	0.005089	1.000000	0.000672	-0.000652	-0.000672	1.000000	0.000179	0.000652	-0.000178	1.000000
29424	0.145347	0.075430	9.696472	-0.000601	0.004151	0.008835	1.000000	0.000693	-0.000661	-0.000693	1.000000	0.000199	0.000661	-0.000199	1.000000
29425	0.164989	0.100203	9.709509	-0.002163	0.004042	0.008762	1.000000	0.000732	-0.000672	-0.000732	1.000000	0.000200	0.000672	-0.000200	1.000000
29426	0.168744	0.078314	9.698744	-0.004980	0.001925	0.003455	1.000000	0.000699	-0.000660	-0.000699	1.000000	0.000178	0.000660	-0.000178	1.000000
29427	0.163929	0.088416	9.731318	-0.003726	0.003933	0.008689	1.000000	0.000718	-0.000668	-0.000718	1.000000	0.000170	0.000669	-0.000169	1.000000
29428	0.140078	0.095824	9.707274	-0.000309	0.001898	0.005162	1.000000	0.000703	-0.000656	-0.000702	1.000000	0.000194	0.000656	-0.000194	1.000000
29429	0.143837	0.074086	9.696505	-0.003726	0.003933	0.008689	1.000000	0.000712	-0.000663	-0.000712	1.000000	0.000186	0.000663	-0.000185	1.000000
29430	0.167589	0.077099	9.698773	-0.003580	0.002807	0.006853	1.000000	0.000713	-0.000659	-0.000713	1.000000	0.000177	0.000659	-0.000177	1.000000
29431	0.138724	0.083970	9.729085	-0.002034	0.002561	0.008415	1.000000	0.000721	-0.000653	-0.000721	1.000000	0.000186	0.000654	-0.000186	1.000000
29432	0.143002	0.073230	9.696524	-0.002018	0.002916	0.006926	1.000000	0.000723	-0.000651	-0.000723	1.000000	0.000193	0.000651	-0.000193	1.000000
29433	0.138648	0.094712	9.707306	0.001140	0.003842	0.004093	1.000000	0.000698	-0.000657	-0.000698	1.000000	0.000234	0.000657	-0.000233	1.000000
29434	0.165858	0.065342	9.720590	-0.005273	0.004179	0.007127	1.000000	0.000701	-0.000667	-0.000701	1.000000	0.000208	0.000667	-0.000208	1.000000
29435	0.142123	0.072769	9.696540	0.001334	-0.000538	0.009355	1.000000	-0.000228	-0.000635	0.000228	1.000000	0.000064	0.000635	-0.000064	1.000000
29436	0.136915	0.072170	9.750899	-0.003727	0.003933	0.008689	1.000000	-0.000209	-0.000642	0.000209	1.000000	0.000053	0.000642	-0.000054	1.000000
29437	0.113973	0.101363	9.683276	-0.005257	0.004534	0.005638	1.000000	-0.000221	-0.000657	0.000221	1.000000	0.000030	0.000657	-0.000030	1.000000
29438	0.136736	0.082369	9.729126	-0.001889	0.001435	0.006578	1.000000	-0.000223	-0.000639	0.000223	1.000000	0.000038	0.000639	-0.000038	1.000000
29439	0.165138	0.075078	9.698831	-0.000455	0.003024	0.006999	1.000000	-0.000172	-0.000639	0.000172	1.000000	0.000056	0.000639	-0.000056	1.000000
29440	0.164433	0.063872	9.720624	-0.003468	0.000972	0.007994	1.000000	-0.000160	-0.000617	0.000160	1.000000	0.000048	0.000617	-0.000048	1.000000
29441	0.160544	0.096185	9.709624	-0.000861	0.007112	0.009530	1.000000	-0.000160	-0.000658	0.000160	1.000000	0.000070	0.000658	-0.000070	1.000000
29442	0.135551	0.081525	9.729150	-0.005015	0.001218	0.006432	1.000000	-0.000164	-0.000639	0.000164	1.000000	0.000047	0.000639	-0.000047	1.000000
29443	0.139324	0.059557	9.718376	-0.003728	0.003934	0.008689	1.000000	-0.000142	-0.000645	0.000142	1.000000	0.000036	0.000645	-0.000036	1.000000
29444	0.143013	0.037734	9.707600	-0.002019	0.002916	0.006925	1.000000	-0.000141	-0.000643	0.000141	1.000000	0.000042	0.000643	-0.000042	1.000000
29445	0.158693	0.083864	9.731445	-0.003694	0.004643	0.005711	1.000000	-0.000103	-0.000659	0.000103	1.000000	0.000030	0.000659	-0.000030	1.000000
29446	0.162399	0.062052	9.720670	-0.001873	0.001789	0.005089	1.000000	-0.000120	-0.000645	0.000120	1.000000	0.000039	0.000645	-0.000039	1.000000
29447	0.110541	0.087621	9.705123	-0.003582	0.002808	0.006852	1.000000	-0.000137	-0.000640	0.000137	1.000000	0.000031	0.000640	-0.000031	1.000000
29448	0.162489	0.072511	9.698896	-0.001873	0.001789	0.005089	1.000000	-0.000154	-0.000627	0.000154	1.000000	0.000039	0.000627	-0.000039	1.000000
29449	0.158176	0.093915	9.709686	-0.000586	0.004504	0.007346	1.000000	-0.000186	-0.000638	0.000186	1.000000	0.000063	0.000638	-0.000063	1.000000
29450	0.157905	0.093632	9.709693	-0.005016	0.001219	0.006431	1.000000	-0.000190	-0.000619	0.000190	1.000000	0.000040	0.000619	-0.000040	1.000000
29451	0.133052	0.078843	9.729207	-0.003728	0.003934	0.008688	1.000000	-0.000155	-0.000626	0.000155	1.000000	0.000028	0.000626	-0.000028	1.000000
29452	0.136877	0.057034	9.718426	-0.001761	-0.000046	0.006230	1.000000	-0.000161	-0.000594	0.000161	1.000000	0.000037	0.000594	-0.000037	1.000000
29453	0.132663	0.078367	9.729216	-0.002148	0.004396	0.007273	1.000000	-0.000123	-0.000607	0.000123	1.000000	0.000039	0.000607	-0.000039	1.000000
29454	0.160950	0.070968	9.698933	-0.002037	0.002561	0.008414	1.000000	-0.000107	-0.000600	0.000107	1.000000	0.000046	0.000600	-0.000046	1.000000
29455	0.131985	0.077865	9.729229	-0.003694	0.004644	0.005710	1.000000	-0.000145	-0.000615	0.000145	1.000000	0.000039	0.000615	-0.000039	1.000000
29456	0.136688	0.078074	9.674884	-0.002002	0.003270	0.005436	1.000000	-0.000159	-0.000616	0.000159	1.000000	0.000046	0.000616	-0.000046	1.000000
29457	0.151335	0.102156	9.742314	-0.003729	0.003934	0.008688	1.000000	-0.000145	-0.000625	0.000145	1.000000	0.000036	0.000625	-0.000037	1.000000
29458	0.159472	0.069958	9.698964	0.000977	0.004611	0.007420	1.000000	-0.000138	-0.000639	0.000138	1.000000	0.000073	0.000639	-0.000073	1.000000
29459	0.155716	0.102376	9.687977	-0.003436	0.001682	0.005015	1.000000	-0.000176	-0.000623	0.000176	1.000000	0.000067	0.000623	-0.000067	1.000000
29460	0.155049	0.091017	9.709764	-0.003472	0.000972	0.007993	1.000000	-0.000164	-0.000601	0.000164	1.000000	0.000059	0.000601	-0.000059	1.000000
29461	0.157608	0.047164	9.742545	-0.002260	0.006232	0.006132	1.000000	-0.000174	-0.000633	0.000174	1.000000	0.000065	0.000633	-0.000065	1.000000
29462	0.130140	0.087103	9.707495	-0.003730	0.003934	0.008688	1.000000	-0.000155	-0.000640	0.000155	1.000000	0.000054	0.000640	-0.000054	1.000000
29463	0.157965	0.068532	9.698999	-0.003454	0.001327	0.006503	1.000000	-0.000177	-0.000623	0.000177	1.000000	0.000048	0.000623	-0.000048	1.000000
29464	0.157128	0.057158	9.720786	-0.003694	0.004644	0.005710	1.000000	-0.000188	-0.000638	0.000188	1.000000	0.000039	0.000638	-0.000039	1.000000
29465	0.148706	0.099929	9.742378	-0.002149	0.004396	0.007273	1.000000	-0.000213	-0.000650	0.000213	1.000000	0.000045	0.000650	-0.000045	1.000000
29466	0.132344	0.053189	9.718510	-0.005018	0.001221	0.006429	1.000000	-0.000217	-0.000630	0.000217	1.000000	0.000022	0.000630	-0.000022	1.000000
29467	0.157146	0.078094	9.677253	-0.003987	0.006896	0.009384	1.000000	-0.000175	-0.000669	0.000175	1.000000	0.000008	0.000669	-0.000008	1.000000
29468	0.156168	0.066855	9.699040	-0.000311	0.001896	0.005162	1.000000	-0.000191	-0.000656	0.000191	1.000000	0.000032	0.000656	-0.000033	1.000000
29469	0.151896	0.088256	9.709839	-0.002167	0.004041	0.008762	1.000000	-0.000185	-0.000663	0.000185	1.000000	0.000037	0.000663	-0.000038	1.000000
29470	0.151471	0.088112	9.709847	-0.000568	0.004858	0.005858	1.000000	-0.000194	-0.000680	0.000194	1.000000	0.000059	0.000680	-0.000059	1.000000
29471	0.155090	0.066369	9.699061	-0.003584	0.002809	0.006851	1.000000	-0.000160	-0.000675	0.000160	1.000000	0.000047	0.000675	-0.000047	1.000000
29472	0.122749	0.105848	9.718359	-0.002003	0.003270	0.005436	1.000000	-0.000173	-0.000676	0.000173	1.000000	0.000055	0.000676	-0.000055	1.000000
29473	0.178023	0.058089	9.723149	-0.003584	0.002809	0.006851	1.000000	-0.000200	-0.000674	0.000200	1.000000	0.000050	0.000674	-0.000050	1.000000
29474	0.149603	0.076180	9.731652	0.000976	0.004609	0.007421	1.000000	-0.000193	-0.000688	0.000193	1.000000	0.000087	0.000688	-0.000087	1.000000
29475	0.122292	0.116248	9.696602	-0.005111	0.003413	0.003799	1.000000	-0.000188	-0.000689	0.000188	1.000000	0.000062	0.000689	-0.000062	1.000000
29476	0.130525	0.083855	9.653242	-0.002022	0.002915	0.006925	1.000000	-0.000187	-0.000687	0.000187	1.000000	0.000069	0.000687	-0.000069	1.000000
29477	0.148635	0.075409	9.731673	-0.002022	0.002915	0.006925	1.000000	-0.000208	-0.000681	0.000208	1.000000	0.000075	0.000681	-0.000075	1.000000
29478	0.177496	0.078932	9.679635	-0.003713	0.004290	0.007198	1.000000	-0.000204	-0.000692	0.000204	1.000000	0.000065	0.000692	-0.000065	1.000000
29479	0.147944	0.074830	9.731688	-0.002022	0.002915	0.006925	1.000000	-0.000179	-0.000692	0.000179	1.000000	0.000072	0.000692	-0.000072	1.000000
29480	0.144260	0.107257	9.720715	-0.000459	0.003021	0.006999	1.000000	-0.000177	-0.000690	0.000177	1.000000	0.000094	0.000690	-0.000094	1.000000
29481	0.147377	0.074568	9.731699	-0.002022	0.002915	0.006925	1.000000	-0.000187	-0.000686	0.000187	1.000000	0.000103	0.000686	-0.000103	1.000000
29482	0.147785	0.085389	9.709928	-0.001931	0.000724	0.009554	1.000000	-0.000159	-0.000661	0.000159	1.000000	0.000110	0.000661	-0.000110	1.000000
29483	0.151067	0.052559	9.720908	-0.003438	0.001684	0.005014	1.000000	-0.000165	-0.000646	0.000165	1.000000	0.000102	0.000646	-0.000102	1.000000
29484	0.118726	0.092136	9.740205	-0.000568	0.004857	0.005858	1.000000	-0.000174	-0.000663	0.000174	1.000000	0.000123	0.000663	-0.000123	1.000000
29485	0.150378	0.052220	9.720921	-0.002022	0.002915	0.006925	1.000000	-0.000141	-0.000659	0.000141	1.000000	0.000128	0.000659	-0.000129	1.000000
29486	0.142742	0.106106	9.720750	-0.002022	0.002915	0.006924	1.000000	-0.000139	-0.000657	0.000139	1.000000	0.000135	0.000657	-0.000135	1.000000
29487	0.146422	0.084293	9.709958	-0.003567	0.003165	0.005361	1.000000	-0.000157	-0.000654	0.000157	1.000000	0.000126	0.000654	-0.000126	1.000000
29488	0.146132	0.084013	9.709965	-0.002022	0.002915	0.006924	1.000000	-0.000156	-0.000652	0.000156	1.000000	0.000133	0.000652	-0.000133	1.000000
29489	0.169937	0.087084	9.712282	-0.002022	0.002915	0.006924	1.000000	-0.000169	-0.000650	0.000169	1.000000	0.000142	0.000650	-0.000142	1.000000
29490	0.148882	0.051031	9.720950	-0.002150	0.004396	0.007273	1.000000	-0.000164	-0.000662	0.000164	1.000000	0.000147	0.000662	-0.000147	1.000000
29491	0.145713	0.094414	9.688213	-0.001985	0.003626	0.003947	1.000000	-0.000223	-0.000667	0.000223	1.000000	0.000157	0.000667	-0.000157	1.000000
29492	0.168308	0.075273	9.734079	-0.005149	0.002704	0.006775	1.000000	-0.000224	-0.000662	0.000224	1.000000	0.000132	0.000662	-0.000133	1.000000
29493	0.121062	0.090433	9.685914	-0.002023	0.002915	0.006924	1.000000	-0.000234	-0.000661	0.000234	1.000000	0.000141	0.000661	-0.000141	1.000000
29494	0.148258	0.060855	9.699204	-0.003605	0.002454	0.008338	1.000000	-0.000219	-0.000654	0.000219	1.000000	0.000132	0.000654	-0.000132	1.000000
29495	0.115981	0.100371	9.718500	-0.002004	0.003271	0.005436	1.000000	-0.000240	-0.000655	0.000240	1.000000	0.000139	0.000654	-0.000139	1.000000
29496	0.167818	0.085091	9.712336	-0.003586	0.002810	0.006850	1.000000	-0.000240	-0.000651	0.000240	1.000000	0.000130	0.000651	-0.000130	1.000000
29497	0.143954	0.092575	9.688257	-0.002112	0.005107	0.004295	1.000000	-0.000283	-0.000670	0.000283	1.000000	0.000138	0.000670	-0.000138	1.000000
29498	0.147093	0.059735	9.699228	-0.003351	-0.000508	0.007642	1.000000	-0.000275	-0.000633	0.000275	1.000000	0.000132	0.000633	-0.000132	1.000000
29499	0.138974	0.102600	9.720843	-0.000568	0.004857	0.005859	1.000000	-0.000318	-0.000649	0.000318	1.000000	0.000156	0.000649	-0.000156	1.000000
29500	0.143103	0.092034	9.688275	-0.000607	0.004145	0.008836	1.000000	-0.000297	-0.000659	0.000297	1.000000	0.000176	0.000659	-0.000176	1.000000
29501	0.166150	0.083964	9.712375	-0.005238	0.004897	0.004146	1.000000	-0.000302	-0.000676	0.000302	1.000000	0.000149	0.000676	-0.000149	1.000000
29502	0.114193	0.109576	9.696778	-0.003714	0.004291	0.007198	1.000000	-0.000298	-0.000687	0.000298	1.000000	0.000139	0.000687	-0.000139	1.000000
29503	0.169393	0.061628	9.701587	-0.003460	0.001329	0.006501	1.000000	-0.000293	-0.000668	0.000293	1.000000	0.000130	0.000668	-0.000130	1.000000
29504	0.137730	0.112120	9.699117	-0.003695	0.004647	0.005709	1.000000	-0.000304	-0.000683	0.000304	1.000000	0.000121	0.000683	-0.000121	1.000000
29505	0.165500	0.093482	9.690642	-0.003480	0.000973	0.007989	1.000000	-0.000263	-0.000664	0.000263	1.000000	0.000111	0.000664	-0.000111	1.000000
29506	0.164021	0.071118	9.734183	-0.002151	0.004396	0.007273	1.000000	-0.000258	-0.000676	0.000258	1.000000	0.000117	0.000676	-0.000117	1.000000
29507	0.140056	0.078682	9.710099	-0.002279	0.005877	0.007621	1.000000	-0.000253	-0.000703	0.000253	1.000000	0.000121	0.000703	-0.000121	1.000000
29508	0.136448	0.111048	9.699147	-0.001770	-0.000047	0.006227	1.000000	-0.000259	-0.000671	0.000259	1.000000	0.000130	0.000671	-0.000130	1.000000
29509	0.140177	0.089243	9.688344	-0.003695	0.004647	0.005709	1.000000	-0.000270	-0.000685	0.000270	1.000000	0.000121	0.000685	-0.000121	1.000000
29510	0.119479	0.064161	9.675215	-0.002426	0.007002	0.009458	1.000000	-0.000243	-0.000723	0.000243	1.000000	0.000123	0.000723	-0.000123	1.000000
29511	0.157430	0.080266	9.766803	-0.003795	0.002868	0.013151	1.000000	-0.000199	-0.000717	0.000199	1.000000	0.000111	0.000717	-0.000111	1.000000
29512	0.142198	0.055748	9.699325	-0.002025	0.002915	0.006924	1.000000	-0.000198	-0.000714	0.000198	1.000000	0.000118	0.000714	-0.000118	1.000000
29513	0.137404	0.066116	9.731906	-0.000314	0.001894	0.005162	1.000000	-0.000233	-0.000701	0.000233	1.000000	0.000143	0.000701	-0.000144	1.000000
29514	0.186718	0.094639	9.693043	-0.000187	0.000413	0.004814	1.000000	-0.000252	-0.000674	0.000253	1.000000	0.000169	0.000674	-0.000169	1.000000
29515	0.157934	0.101715	9.723291	-0.003401	0.002397	0.002035	1.000000	-0.000299	-0.000666	0.000299	1.000000	0.000163	0.000666	-0.000164	1.000000
29516	0.133535	0.098279	9.720964	-0.000609	0.004144	0.008836	1.000000	-0.000278	-0.000675	0.000278	1.000000	0.000184	0.000675	-0.000184	1.000000
29517	0.137709	0.087418	9.688396	-0.006842	0.004083	0.007047	1.000000	-0.000318	-0.000682	0.000318	1.000000	0.000145	0.000682	-0.000145	1.000000
29518	0.160206	0.068041	9.734269	-0.003588	0.002811	0.006849	1.000000	-0.000318	-0.000678	0.000318	1.000000	0.000136	0.000678	-0.000136	1.000000
29519	0.161130	0.089766	9.690751	-0.003715	0.004292	0.007197	1.000000	-0.000317	-0.000690	0.000317	1.000000	0.000126	0.000690	-0.000126	1.000000
29520	0.159501	0.067386	9.734285	-0.002005	0.003271	0.005436	1.000000	-0.000330	-0.000691	0.000330	1.000000	0.000133	0.000691	-0.000133	1.000000
29521	0.116327	0.061223	9.675272	-0.003482	0.000974	0.007988	1.000000	-0.000276	-0.000672	0.000276	1.000000	0.000124	0.000672	-0.000124	1.000000
29522	0.155749	0.099401	9.723350	-0.002152	0.004396	0.007272	1.000000	-0.000271	-0.000684	0.000271	1.000000	0.000130	0.000684	-0.000130	1.000000
29523	0.159294	0.077660	9.712542	-0.001984	0.003627	0.003947	1.000000	-0.000276	-0.000690	0.000276	1.000000	0.000136	0.000689	-0.000136	1.000000
29524	0.134809	0.074157	9.710209	-0.003695	0.004648	0.005709	1.000000	-0.000286	-0.000704	0.000287	1.000000	0.000127	0.000704	-0.000127	1.000000
29525	0.134441	0.073947	9.710216	-0.000462	0.003018	0.006999	1.000000	-0.000270	-0.000704	0.000270	1.000000	0.000148	0.000704	-0.000148	1.000000
29526	0.130892	0.106396	9.699276	-0.002047	0.002558	0.008412	1.000000	-0.000254	-0.000698	0.000254	1.000000	0.000154	0.000698	-0.000154	1.000000
29527	0.162560	0.066249	9.679993	-0.003778	0.003224	0.011662	1.000000	-0.000187	-0.000699	0.000187	1.000000	0.000141	0.000699	-0.000141	1.000000
29528	0.177402	0.089723	9.747502	-0.009516	-0.000423	0.051525	1.000000	0.000259	-0.000659	-0.000259	1.000000	0.000066	0.000659	-0.000066	1.000000
29529	0.081545	0.087360	9.716369	-0.002173	0.004040	0.008761	1.000000	0.000272	-0.000666	-0.000272	1.000000	0.000071	0.000666	-0.000071	1.000000
29530	0.153604	0.096828	9.723410	-0.000189	0.000412	0.004814	1.000000	0.000253	-0.000638	-0.000253	1.000000	0.000097	0.000638	-0.000097	1.000000
29531	0.137069	0.050434	9.699428	-0.002320	0.005164	0.010598	1.000000	0.000304	-0.000660	-0.000304	1.000000	0.000099	0.000660	-0.000099	1.000000
29532	0.157520	0.085989	9.690844	-0.002026	0.002915	0.006924	1.000000	0.000306	-0.000657	-0.000306	1.000000	0.000106	0.000657	-0.000106	1.000000
29533	0.129341	0.104054	9.699322	-0.003485	0.000975	0.007987	1.000000	0.000363	-0.000638	-0.000363	1.000000	0.000095	0.000638	-0.000095	1.000000
29534	0.156502	0.074302	9.712614	-0.003589	0.002812	0.006848	1.000000	0.000363	-0.000634	-0.000363	1.000000	0.000086	0.000634	-0.000086	1.000000
29535	0.152366	0.095487	9.723443	-0.003421	0.002044	0.003523	1.000000	0.000329	-0.000624	-0.000329	1.000000	0.000079	0.000624	-0.000079	1.000000
29536	0.131346	0.059296	9.732033	-0.005006	0.001585	0.004935	1.000000	0.000310	-0.000608	-0.000310	1.000000	0.000057	0.000608	-0.000057	1.000000
29537	0.180628	0.087295	9.693228	-0.004921	0.003010	-0.001018	1.000000	0.000225	-0.000610	-0.000225	1.000000	0.000036	0.000610	-0.000036	1.000000
29538	0.090493	0.008797	9.705692	-0.007225	0.002227	-0.024888	1.000000	-0.000093	-0.000603	0.000093	1.000000	-0.000004	0.000603	0.000004	1.000000
29539	0.171078	0.106988	9.758411	-0.008052	0.000122	-0.042730	1.000000	-0.000582	-0.000578	0.000582	1.000000	-0.000049	0.000578	0.000048	1.000000
29540	0.097374	-0.046459	9.705794	-0.002082	0.004081	-0.090384	0.999999	-0.001554	-0.000595	0.001554	0.999999	-0.000027	0.000595	0.000026	1.000000
29541	0.240974	-0.038217	9.741674	-0.004582	0.002689	-0.204134	0.999993	-0.003639	-0.000609	0.003639	0.999993	-0.000013	0.000609	0.000011	1.000000
29542	0.201523	0.286920	9.686777	-0.004213	0.007226	-0.130642	0.999987	-0.005013	-0.000661	0.005013	0.999987	-0.000006	0.000661	0.000003	1.000000
29543	0.149353	0.092234	9.723521	-0.007117	0.008333	-0.043894	0.999985	-0.005508	-0.000717	0.005508	0.999985	-0.000042	0.000718	0.000038	1.000000
29544	0.144998	0.124104	9.712621	-0.008269	0.010437	-0.013519	0.999983	-0.005712	-0.000792	0.005711	0.999984	-0.000095	0.000792	0.000090	1.000000
29545	0.147501	0.090626	9.723564	-0.010367	0.008294	0.007942	0.999983	-0.005701	-0.000841	0.005701	0.999984	-0.000173	0.000842	0.000168	1.000000
29546	0.146048	0.078599	9.745336	-0.008973	0.009168	0.011344	0.999984	-0.005656	-0.000901	0.005656	0.999984	-0.000236	0.000902	0.000231	1.000000
29547	0.122517	0.096870	9.699485	-0.002331	0.005153	0.010601	0.999984	-0.005599	-0.000920	0.005599	0.999984	-0.000232	0.000922	0.000227	1.000000
29548	0.144829	0.077794	9.745360	-0.002291	0.005868	0.007624	0.999984	-0.005591	-0.000947	0.005591	0.999984	-0.000228	0.000948	0.000223	1.000000
29549	0.125762	0.075086	9.688662	0.001523	-0.000608	0.003053	0.999984	-0.005641	-0.000909	0.005641	0.999984	-0.000186	0.000910	0.000181	1.000000
29550	0.104784	0.028299	9.718951	0.002082	-0.005815	-0.001321	0.999983	-0.005722	-0.000819	0.005722	0.999984	-0.000137	0.000820	0.000132	1.000000
29551	0.106068	0.039457	9.697194	-0.000517	-0.007971	-0.012941	0.999982	-0.005927	-0.000711	0.005927	0.999982	-0.000111	0.000711	0.000107	1.000000
29552	0.145119	-0.076427	9.721454	0.000605	-0.006804	-0.050409	0.999979	-0.006499	-0.000616	0.006499	0.999979	-0.000069	0.000616	0.000065	1.000000
29553	0.184025	0.039154	9.671686	-0.000273	-0.002016	-0.083931	0.999973	-0.007370	-0.000572	0.007370	0.999973	-0.000034	0.000573	0.000030	1.000000
29554	0.166981	0.114195	9.736784	0.000027	0.006008	-0.064689	0.999967	-0.008084	-0.000607	0.008084	0.999967	0.000005	0.000607	-0.000010	1.000000
29555	0.194444	0.095861	9.728327	-0.006400	0.006342	-0.061669	0.999961	-0.008776	-0.000644	0.008776	0.999961	-0.000021	0.000644	0.000015	1.000000
29556	0.141514	0.110457	9.734445	0.001223	0.007295	-0.056474	0.999956	-0.009407	-0.000691	0.009407	0.999956	0.000028	0.000690	-0.000035	1.000000
29557	0.190203	0.139617	9.695691	0.002183	0.003935	-0.028906	0.999952	-0.009750	-0.000703	0.009751	0.999952	0.000081	0.000702	-0.000088	1.000000
29558	0.141024	0.121825	9.712709	-0.001490	0.005300	-0.016102	0.999950	-0.009979	-0.000726	0.009979	0.999950	0.000097	0.000725	-0.000104	1.000000
29559	0.172913	0.082165	9.693413	-0.000302	0.002246	0.003676	0.999950	-0.010015	-0.000716	0.010015	0.999950	0.000121	0.000715	-0.000128	1.000000
29560	0.119892	0.085825	9.721259	0.001261	0.002356	0.003753	0.999949	-0.010044	-0.000708	0.010044	0.999950	0.000161	0.000707	-0.000168	1.000000
29561	0.151958	0.046445	9.701960	0.002994	0.001699	0.000502	0.999949	-0.010105	-0.000694	0.010106	0.999949	0.000217	0.000691	-0.000224	1.000000
29562	0.151811	0.046522	9.701962	-0.001488	0.001319	-0.006031	0.999947	-0.010234	-0.000676	0.010234	0.999948	0.000231	0.000674	-0.000238	1.000000
29563	0.171614	0.071352	9.715173	0.000094	0.001786	-0.007443	0.999946	-0.010414	-0.000662	0.010414	0.999946	0.000266	0.000660	-0.000273	1.000000
29564	0.144394	0.111622	9.680141	0.000131	0.002500	-0.010420	0.999944	-0.010586	-0.000657	0.010586	0.999944	0.000297	0.000654	-0.000304	1.000000
29565	0.147763	0.078998	9.691057	-0.001526	0.000605	-0.003054	0.999943	-0.010694	-0.000631	0.010694	0.999943	0.000309	0.000628	-0.000316	1.000000
29566	0.119113	0.085937	9.721268	0.000076	-0.002552	0.004116	0.999942	-0.010721	-0.000574	0.010721	0.999942	0.000337	0.000570	-0.000343	1.000000
29567	0.143293	0.089401	9.723638	0.001356	0.000161	0.006380	0.999943	-0.010693	-0.000544	0.010693	0.999943	0.000374	0.000540	-0.000379	1.000000
29568	0.147978	0.078944	9.691055	-0.001978	-0.000007	0.012531	0.999943	-0.010636	-0.000512	0.010636	0.999943	0.000380	0.000508	-0.000385	1.000000
29569	0.167341	0.092378	9.726015	-0.005274	0.000540	0.015705	0.999944	-0.010540	-0.000487	0.010540	0.999944	0.000354	0.000483	-0.000359	1.000000
29570	0.171011	0.059595	9.736926	0.001375	-0.003463	0.014962	0.999945	-0.010458	-0.000420	0.010458	0.999945	0.000393	0.000415	-0.000397	1.000000
29571	0.168275	0.103022	9.704265	-0.005312	-0.000174	0.018682	0.999946	-0.010340	-0.000384	0.010340	0.999946	0.000365	0.000381	-0.000369	1.000000
29572	0.124027	0.074429	9.688689	-0.001000	0.004952	0.018471	0.999948	-0.010222	-0.000401	0.010222	0.999948	0.000380	0.000397	-0.000384	1.000000
29573	0.143056	0.088088	9.723654	-0.001114	0.002808	0.027402	0.999950	-0.010027	-0.000397	0.010028	0.999950	0.000395	0.000393	-0.000399	1.000000
29574	0.142540	0.088123	9.723661	0.002801	0.008393	0.038310	0.999953	-0.009711	-0.000446	0.009711	0.999953	0.000445	0.000442	-0.000449	1.000000
29575	0.141348	0.077244	9.745416	0.003103	0.004830	0.086275	0.999960	-0.008890	-0.000455	0.008890	0.999960	0.000487	0.000451	-0.000491	1.000000
29576	0.138715	0.132056	9.691013	0.001663	0.005908	0.127416	0.999970	-0.007683	-0.000472	0.007683	0.999970	0.000511	0.000468	-0.000515	1.000000
29577	0.108994	0.128080	9.742971	0.001391	0.005249	0.136689	0.999980	-0.006380	-0.000482	0.006380	0.999980	0.000529	0.000479	-0.000532	1.000000
29578	0.137119	0.109819	9.734515	0.002045	-0.002392	0.182103	0.999989	-0.004627	-0.000411	0.004627	0.999989	0.000548	0.000408	-0.000550	1.000000
29579	0.156365	-0.008566	9.702090	0.009203	0.002274	0.191311	0.999996	-0.002783	-0.000386	0.002783	0.999996	0.000637	0.000384	-0.000639	1.000000
29580	0.124165	0.035301	9.721367	0.078633	0.003736	0.181369	0.999999	-0.001024	-0.000375	0.001024	0.999998	0.001422	0.000373	-0.001423	0.999999
29581	-0.031610	0.006055	9.859271	0.185191	-0.018554	0.196926	1.000000	0.000910	-0.000136	-0.000909	0.999994	0.003269	0.000139	-0.003268	0.999995
29582	0.058225	-0.125082	9.975862	0.276612	-0.129780	0.250668	0.999994	0.003377	0.001226	-0.003385	0.999976	0.006019	-0.001205	-0.006024	0.999981
29583	0.162767	0.113848	9.809746	0.353891	-0.193260	0.330972	0.999972	0.006670	0.003241	-0.006701	0.999932	0.009520	-0.003178	-0.009541	0.999949
29584	0.148340	-0.160429	9.520672	0.271426	-0.213982	0.246359	0.999944	0.009069	0.005459	-0.009135	0.999884	0.012210	-0.005348	-0.012259	0.999911
29585	0.655545	0.746194	9.727891	0.166251	-0.117879	0.172641	0.999920	0.010733	0.006707	-0.010825	0.999845	0.013861	-0.006557	-0.013933	0.999881
29586	0.203660	0.382192	9.980625	0.431803	-0.222130	0.194393	0.999880	0.012626	0.009006	-0.012788	0.999753	0.018159	-0.008774	-0.018272	0.999795
29587	0.548910	0.579510	9.817777	0.442742	-0.338891	0.241617	0.999810	0.014973	0.012490	-0.015252	0.999629	0.022546	-0.012148	-0.022732	0.999668
29588	0.614403	0.633292	9.738709	0.432938	-0.362597	0.350332	0.999699	0.018356	0.016261	-0.018788	0.999464	0.026793	-0.015760	-0.027091	0.999509
29589	0.482950	0.432899	9.724758	0.396680	-0.379382	0.379930	0.999553	0.022000	0.020227	-0.022614	0.999274	0.030654	-0.019538	-0.031098	0.999325
29590	0.254574	0.342411	9.846373	0.310520	-0.375350	0.351894	0.999387	0.025344	0.024150	-0.026149	0.999092	0.033650	-0.023275	-0.034261	0.999142
29591	0.321053	0.479320	10.029279	0.301678	-0.438688	0.274938	0.999200	0.027867	0.028683	-0.028908	0.998913	0.036576	-0.027632	-0.037376	0.998919
29592	0.197864	0.773051	10.281221	0.246398	-0.407855	0.127039	0.999042	0.028915	0.032844	-0.030190	0.998783	0.039007	-0.031676	-0.039961	0.998699
29593	0.453751	1.023315	10.307762	0.110483	-0.287630	-0.165481	0.998997	0.027054	0.035670	-0.028485	0.998784	0.040230	-0.034538	-0.041206	0.998554
29594	0.803079	1.009856	10.162647	0.120904	-0.115710	-0.262406	0.999029	0.024328	0.036725	-0.025852	0.998800	0.041606	-0.035668	-0.042515	0.998459
29595	0.790558	0.582864	10.194639	0.346008	-0.209802	-0.027182	0.998959	0.023945	0.038833	-0.025691	0.998652	0.045107	-0.037701	-0.046058	0.998227
29596	0.819872	0.540884	10.368101	0.421124	-0.370633	0.253572	0.998742	0.026267	0.042703	-0.028361	0.998387	0.049194	-0.041342	-0.050343	0.997876
29597	0.793033	0.583186	10.336404	0.405005	-0.475970	0.457335	0.998393	0.030512	0.047756	-0.033036	0.998049	0.052987	-0.046046	-0.054479	0.997453
29598	0.744225	0.649046	10.291345	0.315662	-0.455030	0.468327	0.998006	0.034872	0.052616	-0.037807	0.997723	0.055853	-0.050548	-0.057730	0.997052
29599	0.916726	0.678524	10.127685	0.262568	-0.339878	0.449668	0.997646	0.039114	0.056328	-0.042389	0.997405	0.058185	-0.053906	-0.060436	0.996715
29600	0.982741	0.834869	10.128966	0.237034	-0.175554	0.441478	0.997351	0.043360	0.058405	-0.046877	0.997082	0.060251	-0.055622	-0.062829	0.996473
29601	0.920707	0.889285	10.088358	0.214640	-0.019201	0.351957	0.997166	0.046843	0.058870	-0.050495	0.996788	0.062163	-0.055769	-0.064959	0.996328
29602	0.843805	0.905235	10.138737	0.218315	0.112760	0.302733	0.997069	0.049909	0.057993	-0.053611	0.996500	0.064139	-0.054589	-0.067060	0.996254
29603	0.575006	0.719885	10.183472	0.179179	0.203567	0.216477	0.997056	0.052219	0.056147	-0.055883	0.996267	0.065800	-0.052502	-0.068744	0.996252
29604	0.486754	0.677493	10.183958	0.184943	0.200579	0.117707	0.997092	0.053508	0.054267	-0.057132	0.996076	0.067587	-0.050438	-0.070490	0.996236
29605	0.523255	0.587755	10.192985	0.125055	0.211736	0.127034	0.997121	0.054919	0.052281	-0.058459	0.995917	0.068785	-0.048290	-0.071644	0.996261
29606	0.589398	0.469617	10.139840	0.103904	0.183916	0.160073	0.997113	0.056608	0.050602	-0.060070	0.995755	0.069741	-0.046439	-0.072579	0.996281
29607	0.656447	0.381199	10.074056	0.092182	0.157699	0.179537	0.997076	0.058469	0.049199	-0.061864	0.995587	0.070570	-0.044856	-0.073407	0.996293
29608	0.544655	0.399304	10.025350	0.050927	0.155367	0.128586	0.997065	0.059814	0.047781	-0.063122	0.995475	0.071023	-0.043317	-0.073831	0.996330
29609	0.573495	0.470412	10.132952	0.086711	0.067367	0.155098	0.996996	0.061358	0.047261	-0.064659	0.995320	0.071818	-0.042633	-0.074658	0.996297
29610	0.818958	0.652829	9.837770	0.167851	-0.016987	0.250108	0.996825	0.063789	0.047661	-0.067182	0.995040	0.073360	-0.042745	-0.076329	0.996166
29611	0.798555	0.628041	9.870997	0.249297	-0.000692	0.363681	0.996572	0.067376	0.047998	-0.070887	0.994613	0.075638	-0.042643	-0.078781	0.995979
29612	0.768711	0.771228	9.891727	0.275056	-0.011729	0.416374	0.996262	0.071478	0.048499	-0.075127	0.994108	0.078136	-0.042628	-0.081487	0.995762
29613	0.784199	0.909637	10.067572	0.301453	-0.034461	0.449660	0.995898	0.075893	0.049267	-0.079713	0.993532	0.080871	-0.042810	-0.084467	0.995506
29614	0.840564	0.946954	10.120515	0.379156	-0.081644	0.521089	0.995431	0.080979	0.050583	-0.085050	0.992802	0.084326	-0.043391	-0.088243	0.995153
29615	0.514687	0.809804	10.300381	0.451261	-0.139718	0.559270	0.994875	0.086391	0.052534	-0.090807	0.991932	0.088463	-0.044467	-0.092780	0.994693
29616	0.530078	0.934926	10.354109	0.441374	-0.191654	0.463664	0.994354	0.090789	0.054928	-0.095605	0.991107	0.092554	-0.046037	-0.097283	0.994191
29617	0.825728	0.981310	10.305302	0.397775	-0.215789	0.388452	0.993873	0.094398	0.057501	-0.099633	0.990358	0.096254	-0.047860	-0.101393	0.993695
29618	0.956593	0.977812	10.208668	0.346073	-0.261928	0.363482	0.993375	0.097688	0.060517	-0.103380	0.989658	0.099447	-0.050176	-0.105044	0.993201
29619	0.814204	1.050666	10.214041	0.360092	-0.264075	0.343086	0.992879	0.100764	0.063542	-0.106942	0.988938	0.102783	-0.052482	-0.108846	0.992672
29620	0.798402	1.017407	10.257172	0.470504	-0.301856	0.348535	0.992336	0.103851	0.066962	-0.110638	0.988063	0.107195	-0.055030	-0.113782	0.991981
29621	0.986752	0.997415	10.020116	0.480897	-0.284923	0.333071	0.991800	0.106792	0.070209	-0.114200	0.987157	0.111709	-0.057377	-0.118810	0.991258
29622	1.090308	0.967404	9.858950	0.403326	-0.145974	0.277790	0.991392	0.109337	0.072023	-0.117174	0.986373	0.115490	-0.058415	-0.122936	0.990694
29623	1.116469	1.157817	9.990596	0.280992	0.025537	0.201191	0.991168	0.111329	0.072051	-0.119313	0.985805	0.118124	-0.057877	-0.125678	0.990381
29624	1.102427	1.352804	10.231464	0.219416	0.115770	0.203810	0.990989	0.113456	0.071192	-0.121437	0.985301	0.120147	-0.056514	-0.127709	0.990200
29625	1.162813	1.338842	10.400999	0.206061	0.119007	0.273897	0.990719	0.116278	0.070396	-0.124242	0.984726	0.121977	-0.055138	-0.129591	0.990033
29626	1.174065	1.431397	10.555912	0.196837	0.102149	0.272427	0.990433	0.119060	0.069770	-0.127020	0.984154	0.123719	-0.053935	-0.131397	0.989862
29627	1.368545	1.502490	10.421014	0.267082	0.065095	0.356827	0.990007	0.122631	0.069630	-0.130677	0.983375	0.126083	-0.053010	-0.133922	0.989573
29628	1.230785	1.407772	10.241103	0.372301	-0.000275	0.481879	0.989362	0.127351	0.070318	-0.135634	0.982275	0.129377	-0.052595	-0.137538	0.989099
29629	1.017857	1.502127	10.275897	0.390683	-0.024553	0.479620	0.988684	0.132010	0.071260	-0.140575	0.981117	0.132849	-0.052377	-0.141363	0.988571
29630	1.104206	1.531943	10.063459	0.420435	0.021045	0.428815	0.988078	0.136239	0.071697	-0.145033	0.979944	0.136654	-0.051641	-0.145424	0.988021
29631	0.906365	1.280278	10.082418	0.467330	0.092762	0.377830	0.987564	0.140084	0.071369	-0.149019	0.978735	0.140964	-0.050105	-0.149846	0.987439
29632	0.903564	1.256233	10.053998	0.500186	0.052708	0.328640	0.987089	0.143389	0.071381	-0.152529	0.977509	0.145638	-0.048893	-0.154645	0.986760
29633	1.049718	1.293157	10.075794	0.488210	0.025349	0.375111	0.986516	0.147099	0.071750	-0.156481	0.976201	0.150149	-0.047956	-0.159352	0.986056
29634	1.121471	1.267490	10.127214	0.470755	0.044519	0.391711	0.985911	0.150995	0.071973	-0.160579	0.974861	0.154470	-0.046840	-0.163851	0.985373
29635	1.050363	1.286969	10.035026	0.467903	0.065277	0.458159	0.985189	0.155570	0.072118	-0.165324	0.973387	0.158699	-0.045510	-0.168271	0.984690
29636	1.026469	1.221859	10.046433	0.476677	-0.007938	0.595476	0.984177	0.161344	0.073236	-0.171409	0.971641	0.162887	-0.044878	-0.172863	0.983923
29637	0.922312	1.304556	9.996177	0.475945	-0.137221	0.687428	0.982909	0.167759	0.075807	-0.178381	0.969691	0.166969	-0.045498	-0.177638	0.983044
29638	1.077259	1.308883	9.753629	0.477426	-0.212731	0.761349	0.981420	0.174727	0.079276	-0.186067	0.967547	0.170973	-0.046829	-0.182547	0.982081
29639	0.963830	1.375906	9.670394	0.510622	-0.187293	0.794973	0.979816	0.182045	0.082586	-0.194100	0.965203	0.175238	-0.047811	-0.187731	0.981056
29640	1.024317	1.650850	9.729355	0.502931	-0.114530	0.684923	0.978402	0.188419	0.085013	-0.201049	0.962993	0.179510	-0.048043	-0.192725	0.980076
29641	0.946816	1.804642	9.797416	0.516471	-0.004589	0.500062	0.977375	0.193223	0.086042	-0.206199	0.961038	0.184085	-0.047120	-0.197662	0.979137
29642	0.929771	1.945891	9.913743	0.539413	0.065720	0.351360	0.976666	0.196742	0.086118	-0.209906	0.959274	0.189029	-0.045421	-0.202695	0.978188
29643	1.016759	1.887052	9.905600	0.494700	0.133791	0.290301	0.976103	0.199812	0.085425	-0.212984	0.957684	0.193594	-0.043128	-0.207162	0.977356
29644	0.741155	1.640622	9.910511	0.442304	0.168548	0.261515	0.975607	0.202675	0.084346	-0.215740	0.956233	0.197675	-0.040590	-0.211050	0.976632
29645	0.892263	1.476680	9.783710	0.457262	0.096709	0.229601	0.975141	0.205080	0.083913	-0.218176	0.954789	0.201934	-0.038707	-0.215222	0.975798
29646	1.210989	1.529811	9.746761	0.444988	0.019495	0.308974	0.974466	0.208065	0.084411	-0.221365	0.953187	0.205990	-0.037600	-0.219415	0.974907
29647	1.292076	1.529670	9.682376	0.517138	-0.060024	0.596272	0.973100	0.213602	0.086319	-0.227374	0.950796	0.210448	-0.037120	-0.224413	0.973787
29648	1.302744	1.777133	9.771010	0.576569	-0.142594	0.803166	0.971181	0.220894	0.089515	-0.235407	0.947762	0.215247	-0.037292	-0.230117	0.972448
29649	1.179225	2.036017	9.774007	0.628564	-0.132184	0.879585	0.969013	0.228906	0.092824	-0.244193	0.944340	0.220434	-0.037198	-0.236271	0.970975
29650	1.128357	2.083309	9.928810	0.679435	-0.091035	0.862602	0.966823	0.236828	0.095742	-0.252824	0.940723	0.226096	-0.036520	-0.242801	0.969389
29651	1.027770	2.107997	9.898968	0.698697	-0.055346	0.879596	0.964526	0.244963	0.098404	-0.261606	0.936904	0.231889	-0.035390	-0.249406	0.967752
29652	1.075592	2.136290	9.677859	0.746946	0.013431	0.859178	0.962227	0.253057	0.100406	-0.270191	0.932892	0.238139	-0.033406	-0.256273	0.966027
29653	1.007802	1.975134	9.688522	0.684744	0.116242	0.734971	0.960233	0.260228	0.101159	-0.277524	0.929241	0.243909	-0.030529	-0.262284	0.964508
29654	0.671640	1.922733	9.808629	0.617077	0.089568	0.646438	0.958431	0.266478	0.101982	-0.283944	0.925913	0.249118	-0.028042	-0.267720	0.963089
29655	0.764656	2.056838	9.842553	0.572282	-0.020033	0.651905	0.956544	0.272449	0.103903	-0.290364	0.922625	0.253873	-0.026697	-0.273010	0.961641
29656	0.801310	2.233337	9.805551	0.516240	-0.074164	0.518082	0.955001	0.277007	0.106017	-0.295461	0.919793	0.258232	-0.025982	-0.277936	0.960248
29657	0.777001	2.385764	10.035426	0.376664	-0.100534	0.244866	0.954252	0.278949	0.107665	-0.297883	0.918066	0.261573	-0.025878	-0.281678	0.959160
29658	1.454947	2.666202	9.913111	0.279486	-0.136419	0.211624	0.953592	0.280460	0.109567	-0.299943	0.916694	0.264019	-0.026393	-0.284630	0.958274
29659	1.358192	2.783105	10.037095	0.265469	-0.073966	0.282863	0.952728	0.282796	0.111070	-0.302680	0.915153	0.266234	-0.026356	-0.287267	0.957488
29660	1.227126	2.830311	10.023306	0.291297	-0.042244	0.266315	0.951913	0.285072	0.112232	-0.305270	0.913567	0.268711	-0.025929	-0.290050	0.956660
29661	1.317098	2.836983	9.916187	0.303954	-0.108106	0.288783	0.951006	0.287352	0.114091	-0.308071	0.911868	0.271273	-0.026085	-0.293130	0.955717
29662	1.198297	2.748528	9.977021	0.299631	-0.255741	0.294955	0.950035	0.289233	0.117380	-0.310917	0.910152	0.273778	-0.027648	-0.296594	0.954603
29663	1.282461	2.700124	9.952247	0.405601	-0.512642	0.382715	0.948699	0.291119	0.123371	-0.314627	0.907852	0.277156	-0.031317	-0.301754	0.952871
29664	1.368483	2.676046	9.848759	0.505761	-0.695776	0.359904	0.947336	0.292202	0.131045	-0.318169	0.905281	0.281487	-0.036381	-0.308357	0.950575
29665	1.514900	2.624354	9.566242	0.515752	-0.791673	0.439218	0.945630	0.293638	0.139857	-0.322481	0.902415	0.285751	-0.042301	-0.315316	0.948043
29666	1.480073	2.677689	9.438988	0.507407	-0.755792	0.463695	0.943796	0.295342	0.148399	-0.327043	0.899462	0.289848	-0.047875	-0.322090	0.945498
29667	1.496944	2.944043	9.423976	0.295269	-0.541547	0.398442	0.942233	0.297087	0.154716	-0.330885	0.897356	0.292006	-0.052084	-0.326331	0.943820
29668	1.567593	3.039477	9.543874	0.194070	-0.383642	0.450085	0.940547	0.299780	0.159697	-0.335159	0.895412	0.293096	-0.055130	-0.329194	0.942652
29669	1.588876	3.168202	9.598413	0.108079	-0.315546	0.472686	0.938796	0.302874	0.164100	-0.339587	0.893672	0.293312	-0.057814	-0.331087	0.941828
29670	1.783716	3.181800	9.448947	0.036974	-0.271611	0.470767	0.937052	0.306077	0.168078	-0.343941	0.892158	0.292846	-0.060319	-0.332221	0.941271
29671	1.786632	3.108138	9.457109	0.068823	-0.271093	0.554098	0.934988	0.310016	0.172300	-0.349091	0.890268	0.292502	-0.062713	-0.333635	0.940614
29672	1.861989	3.020986	9.464130	0.076811	-0.282650	0.530498	0.932965	0.313693	0.176557	-0.354017	0.888402	0.292257	-0.065175	-0.335169	0.939901
29673	1.643452	2.952087	9.245968	0.073296	-0.371933	0.584844	0.930657	0.317528	0.181809	-0.359429	0.886361	0.291847	-0.068478	-0.336957	0.939027
29674	1.445467	2.655440	8.999337	-0.045744	-0.729042	0.717407	0.927573	0.321263	0.190783	-0.365927	0.884299	0.290022	-0.075536	-0.338829	0.937811
29675	1.559941	2.387525	8.687875	-0.311719	-1.133777	0.728263	0.924035	0.323630	0.203528	-0.372208	0.883109	0.285621	-0.087302	-0.339678	0.936481
29676	1.815233	2.795942	8.733810	-0.079277	-0.801978	0.584146	0.921163	0.325893	0.212728	-0.377381	0.881554	0.283631	-0.095098	-0.341549	0.935040
29677	1.889940	2.544734	8.637958	0.089220	-0.788017	0.649788	0.917951	0.328775	0.221975	-0.383325	0.879188	0.283003	-0.102113	-0.344871	0.933079
29678	2.420453	3.090089	8.806337	0.164010	-0.724272	0.616336	0.914840	0.331556	0.230518	-0.389045	0.876644	0.283091	-0.108222	-0.348665	0.930979
29679	2.443123	3.018837	9.072409	0.221993	-0.528842	0.674415	0.911632	0.335507	0.237406	-0.395370	0.873671	0.283516	-0.112293	-0.352326	0.929116
29680	2.175085	3.301605	9.417382	0.296940	-0.449187	0.747661	0.908151	0.340351	0.243770	-0.402447	0.870146	0.284398	-0.115320	-0.356381	0.927197
29681	2.300585	3.514569	9.471820	0.234805	-0.411655	0.722628	0.904753	0.345065	0.249706	-0.409203	0.866884	0.284720	-0.118219	-0.359781	0.925517
29682	2.551650	3.258869	9.243814	0.249765	-0.313743	0.727000	0.901390	0.350142	0.254748	-0.416006	0.863507	0.285123	-0.120144	-0.362984	0.924017
29683	2.410065	2.915513	8.994040	0.358273	-0.318053	0.773822	0.897761	0.355582	0.259973	-0.423357	0.859518	0.286354	-0.121630	-0.367139	0.922180
29684	2.652238	2.350015	8.333404	0.445291	-0.366832	0.891451	0.893499	0.361805	0.266003	-0.431848	0.854728	0.288006	-0.123158	-0.372206	0.919943
29685	2.331295	1.129534	6.908740	0.571981	-0.684617	1.439596	0.886323	0.371400	0.276573	-0.445320	0.847392	0.289166	-0.126969	-0.379458	0.916455
29686	2.731843	3.164660	8.023190	0.411341	-0.534699	0.960248	0.881323	0.377388	0.284337	-0.454278	0.842292	0.290129	-0.130003	-0.384865	0.913771
29687	3.265916	3.157557	8.094853	0.449411	-0.324000	0.985702	0.876372	0.384348	0.290256	-0.463491	0.836859	0.291279	-0.130951	-0.389800	0.911541
29688	2.858379	3.572869	8.507111	0.305905	-0.343958	0.930320	0.871575	0.390681	0.296184	-0.471967	0.832123	0.291235	-0.132681	-0.393622	0.909647
29689	2.928822	3.523537	8.750789	0.291825	-0.400741	0.862509	0.866946	0.396169	0.302415	-0.479792	0.827643	0.291216	-0.134921	-0.397565	0.907601
29690	2.688068	3.622127	8.953028	0.233252	-0.484568	0.739312	0.862734	0.400242	0.309024	-0.486431	0.823833	0.291005	-0.138111	-0.401379	0.905439
29691	2.797389	3.407186	8.762185	0.104799	-0.631534	0.647454	0.858717	0.402902	0.316661	-0.492050	0.820885	0.289888	-0.143146	-0.404745	0.903156
29692	2.660127	3.022915	8.548196	0.087060	-0.720848	0.587882	0.854802	0.404662	0.324903	-0.497106	0.818231	0.288762	-0.148995	-0.408345	0.900586
29693	3.053065	2.766120	8.403962	0.068697	-0.800190	0.552242	0.850875	0.405759	0.333722	-0.501805	0.815788	0.287545	-0.155572	-0.412128	0.897746
29694	3.488916	2.704373	8.193045	0.206730	-0.761326	0.708174	0.846130	0.408250	0.342632	-0.508044	0.812126	0.286956	-0.161111	-0.416874	0.894572
29695	4.117969	2.498312	8.116679	0.405788	-0.602044	1.025677	0.839899	0.413933	0.351040	-0.517284	0.806287	0.286912	-0.164277	-0.422564	0.891321
29696	3.279816	2.470630	7.820661	0.729153	-0.625392	1.823920	0.829252	0.425793	0.361995	-0.533663	0.795636	0.286647	-0.165964	-0.430887	0.887013
29697	3.719438	2.893537	7.785344	0.581673	-0.459447	1.624309	0.819681	0.436565	0.370855	-0.547974	0.786218	0.285634	-0.166875	-0.437348	0.883674
29698	3.834230	3.113213	8.407680	0.608211	-0.310730	1.606831	0.810215	0.447683	0.378328	-0.562046	0.776539	0.284766	-0.166301	-0.443360	0.880782
29699	3.505031	3.396799	8.983502	0.559753	-0.255031	1.482622	0.801337	0.457924	0.384923	-0.574887	0.767426	0.283837	-0.165424	-0.448736	0.878220
29700	3.613744	3.455221	9.226659	0.534020	-0.233748	1.265805	0.793582	0.466469	0.390684	-0.585831	0.759248	0.283451	-0.164405	-0.453816	0.875798
29701	3.489462	3.282320	9.086035	0.435075	-0.331062	1.094221	0.786570	0.473154	0.396777	-0.595148	0.752204	0.282821	-0.164639	-0.458600	0.873258
29702	3.465710	2.944551	8.876150	0.360182	-0.489874	1.036465	0.779557	0.478566	0.404062	-0.603797	0.745702	0.281705	-0.166495	-0.463577	0.870274
29703	3.583293	2.748121	8.658764	0.264154	-0.665747	1.003925	0.772363	0.482806	0.412739	-0.611946	0.739748	0.279812	-0.170228	-0.468690	0.866805
29704	4.078948	2.586399	8.269203	0.271804	-0.884949	1.122852	0.763950	0.486768	0.423600	-0.620938	0.733145	0.277370	-0.175545	-0.474926	0.862339
29705	4.243453	2.153884	7.895242	0.262665	-1.089980	1.319253	0.753787	0.491023	0.436694	-0.631297	0.725586	0.273840	-0.182398	-0.482101	0.856919
29706	4.591769	2.229420	7.817033	0.212203	-1.027981	1.310258	0.743591	0.495336	0.449126	-0.641375	0.718246	0.269741	-0.188970	-0.488635	0.851778
29707	4.481767	2.441095	7.962966	0.249982	-0.881969	1.270631	0.733730	0.499939	0.460110	-0.651130	0.710834	0.265979	-0.194089	-0.494748	0.847086
29708	4.601626	2.509503	8.021165	0.259880	-0.712987	1.152748	0.724807	0.504422	0.469268	-0.659951	0.703877	0.262720	-0.197785	-0.500115	0.843069
29709	4.639186	2.425591	8.086889	0.294507	-0.616891	1.115954	0.716189	0.509025	0.477458	-0.668495	0.696857	0.259816	-0.200467	-0.505256	0.839362
29710	4.706904	2.462908	8.107202	0.287289	-0.520974	1.071223	0.707955	0.513702	0.484675	-0.676625	0.690031	0.256975	-0.202432	-0.509870	0.836094
29711	4.634137	2.315563	7.971165	0.310032	-0.418050	1.061700	0.699891	0.518754	0.490965	-0.684661	0.683066	0.254285	-0.203450	-0.514116	0.833243
29712	4.693991	2.416033	7.999625	0.449461	-0.337218	1.045524	0.691997	0.524037	0.496514	-0.692805	0.675381	0.252750	-0.202885	-0.518889	0.830416
29713	4.800239	2.307886	7.982160	0.542648	-0.333807	1.082249	0.683758	0.529493	0.502109	-0.701312	0.666932	0.251721	-0.201588	-0.524251	0.827359
29714	4.815182	2.371766	7.815141	0.489417	-0.335031	1.069049	0.675529	0.534740	0.507655	-0.709520	0.658753	0.250249	-0.200601	-0.529242	0.824416
29715	4.727994	2.050734	7.379512	0.385323	-0.293514	1.019971	0.667663	0.539781	0.512700	-0.717094	0.651317	0.248115	-0.200003	-0.533312	0.821935
29716	4.734511	1.937429	7.086799	0.336217	-0.344038	1.006563	0.659728	0.544370	0.518093	-0.724392	0.644159	0.245594	-0.200040	-0.537327	0.819307
29717	5.021986	1.996457	6.994477	0.304945	-0.395794	0.984973	0.651780	0.548453	0.523815	-0.731401	0.637233	0.242872	-0.200589	-0.541418	0.816475
29718	5.092628	2.502025	7.133558	0.339719	-0.381566	0.942619	0.644099	0.552264	0.529283	-0.738135	0.630294	0.240595	-0.200732	-0.545650	0.813617
29719	5.442002	3.002157	7.635830	0.446488	-0.394710	0.902721	0.636614	0.555683	0.534734	-0.744769	0.622928	0.239333	-0.200107	-0.550616	0.810419
29720	5.685363	3.148878	8.040391	0.425663	-0.511444	1.008979	0.628046	0.559008	0.541357	-0.751947	0.615049	0.237255	-0.200334	-0.556079	0.806624
29721	5.409450	2.797360	7.738701	0.257727	-0.492414	0.887056	0.620389	0.561588	0.547481	-0.757936	0.608745	0.234441	-0.201617	-0.560400	0.803307
29722	5.477621	2.730103	7.677927	0.328249	-0.347440	0.594183	0.615190	0.563164	0.551713	-0.762228	0.603621	0.233774	-0.201372	-0.564347	0.800601
29723	5.635628	2.249563	7.535299	0.418683	-0.339402	0.714602	0.609045	0.565466	0.556159	-0.767408	0.597283	0.233104	-0.200372	-0.568772	0.797715
29724	5.608225	1.581235	7.154558	0.379112	-0.392242	1.075724	0.599971	0.569514	0.561861	-0.774616	0.589122	0.230010	-0.200011	-0.573226	0.794612
29725	5.046197	1.735738	6.818014	0.308511	-0.430427	1.231332	0.589538	0.574131	0.568171	-0.782490	0.580439	0.225390	-0.200385	-0.577464	0.791442
29726	5.257130	1.820793	6.657604	0.258157	-0.433458	1.273963	0.578671	0.578842	0.574528	-0.790375	0.571742	0.220041	-0.201113	-0.581424	0.788353
29727	5.470572	2.149094	6.753510	0.225667	-0.407972	1.232645	0.568086	0.583343	0.580508	-0.797825	0.563404	0.214596	-0.201877	-0.585052	0.785468
29728	5.669730	2.197714	6.894793	0.251472	-0.409443	1.188195	0.557759	0.587473	0.586327	-0.804952	0.555109	0.209539	-0.202377	-0.588837	0.782505
29729	5.765566	2.265916	7.109036	0.359951	-0.409435	1.174877	0.547442	0.591423	0.592053	-0.812114	0.546180	0.205322	-0.201935	-0.593216	0.779305
29730	5.949454	2.413157	7.224881	0.452485	-0.422723	1.090415	0.537697	0.594722	0.597651	-0.818895	0.537127	0.202252	-0.200731	-0.598164	0.775827
29731	6.050895	2.486694	7.202581	0.456344	-0.522739	0.956587	0.528796	0.596593	0.603698	-0.824864	0.528787	0.199958	-0.199934	-0.603706	0.771729
29732	5.982374	2.506458	6.914153	0.377635	-0.649310	0.785511	0.521029	0.596690	0.610319	-0.829691	0.521908	0.198053	-0.200354	-0.609568	0.766998
29733	5.932527	2.234231	6.813751	0.341514	-0.708410	0.669409	0.514080	0.595735	0.617107	-0.833788	0.515917	0.196536	-0.201293	-0.615572	0.761940
29734	5.818249	2.107006	6.734801	0.328089	-0.671219	0.632917	0.507479	0.594743	0.623495	-0.837631	0.510211	0.195087	-0.202087	-0.621261	0.757096
29735	6.015208	1.768930	6.494661	0.247620	-0.606420	0.644439	0.500888	0.594140	0.629372	-0.841327	0.504930	0.192909	-0.203174	-0.626133	0.752780
29736	5.907135	1.511329	6.217854	0.201158	-0.519647	0.681990	0.494128	0.594206	0.634631	-0.845073	0.499715	0.190095	-0.204179	-0.630241	0.749071
29737	5.948690	1.623209	6.163837	0.219173	-0.383152	0.642850	0.487938	0.594896	0.638760	-0.848630	0.494595	0.187623	-0.204311	-0.633620	0.746179
29738	6.194264	1.622187	6.383514	0.267413	-0.241186	0.523561	0.483018	0.595872	0.641584	-0.851683	0.489844	0.186248	-0.203296	-0.636388	0.744098
29739	6.402071	1.809087	6.695033	0.359580	-0.178000	0.394907	0.479296	0.596611	0.643685	-0.854292	0.485233	0.186370	-0.201147	-0.639222	0.742250
29740	6.628048	1.917003	6.923424	0.394777	-0.124981	0.337826	0.476155	0.597397	0.645285	-0.856683	0.480713	0.187107	-0.198420	-0.641896	0.740675
29741	6.586094	2.119512	6.951035	0.357425	-0.164188	0.278264	0.473453	0.597629	0.647057	-0.858695	0.476776	0.187954	-0.196175	-0.644612	0.738912
29742	6.607650	1.857994	6.724969	0.286555	-0.233683	0.297201	0.470464	0.597475	0.649374	-0.860635	0.473187	0.188152	-0.194859	-0.647393	0.736826
29743	6.444806	1.768113	6.836252	0.194600	-0.267530	0.417833	0.466380	0.597640	0.652163	-0.862936	0.469489	0.186872	-0.194501	-0.649928	0.734685
29744	6.455627	2.119357	6.924184	0.102967	-0.302056	0.451689	0.461942	0.597706	0.655254	-0.865189	0.466195	0.184691	-0.195086	-0.652235	0.732483
29745	6.491186	2.230220	6.748264	0.019597	-0.339269	0.402538	0.457859	0.597276	0.658503	-0.867028	0.463742	0.182223	-0.196538	-0.654374	0.730183
29746	6.290775	2.196625	6.798392	-0.031102	-0.358897	0.412371	0.453648	0.596740	0.661895	-0.868791	0.461573	0.179313	-0.198509	-0.656393	0.727834
29747	6.389041	2.212192	6.780770	-0.077937	-0.436329	0.407038	0.449326	0.595650	0.665813	-0.870412	0.459753	0.176096	-0.201219	-0.658656	0.725040
29748	6.420072	1.983949	6.523429	-0.073083	-0.458752	0.419088	0.444836	0.594447	0.669891	-0.872076	0.457840	0.172818	-0.203972	-0.661071	0.722067
29749	6.387524	1.679037	6.283658	-0.035956	-0.437037	0.379769	0.440708	0.593196	0.673717	-0.873628	0.455911	0.170058	-0.206277	-0.663524	0.719156
29750	6.367918	1.293154	6.191721	-0.013254	-0.419017	0.358321	0.436786	0.591952	0.677355	-0.875120	0.453959	0.167591	-0.208285	-0.665969	0.716312
29751	6.341889	1.066660	5.973977	0.031033	-0.439069	0.268635	0.433592	0.590159	0.680963	-0.876307	0.452233	0.166045	-0.209960	-0.668729	0.713245
29752	6.759643	1.093506	6.046084	0.091442	-0.418532	0.207492	0.430959	0.588218	0.684306	-0.877358	0.450453	0.165336	-0.210994	-0.671633	0.710204
29753	6.916026	1.383988	6.158584	0.107713	-0.382501	0.268229	0.427856	0.586777	0.687483	-0.878699	0.448211	0.164305	-0.211727	-0.674389	0.707369
29754	6.973242	1.523095	6.200461	0.074113	-0.386858	0.356291	0.423966	0.585674	0.690824	-0.880329	0.445694	0.162412	-0.212776	-0.677010	0.704545
29755	7.021917	1.698578	6.402066	0.060209	-0.380310	0.376243	0.419905	0.584685	0.694135	-0.882000	0.443159	0.160269	-0.213906	-0.679524	0.701777
29756	7.072445	1.926478	6.631238	0.039387	-0.365058	0.351661	0.416086	0.583672	0.697280	-0.883509	0.440911	0.158141	-0.215136	-0.681853	0.699137
29757	7.041694	2.198782	6.708653	0.055091	-0.411449	0.308081	0.412545	0.582137	0.700659	-0.884861	0.438808	0.156422	-0.216396	-0.684517	0.696139
29758	7.090350	2.146427	6.722417	0.072085	-0.493584	0.305476	0.408842	0.580006	0.704586	-0.886227	0.436611	0.154829	-0.217828	-0.687724	0.692522
29759	6.992267	1.947943	6.446818	0.062723	-0.514191	0.339407	0.404784	0.577855	0.708684	-0.887698	0.434290	0.152917	-0.219411	-0.690997	0.688754
29760	6.836944	1.737257	6.088449	0.090324	-0.479320	0.325300	0.400910	0.575863	0.712498	-0.889164	0.431860	0.151275	-0.220586	-0.694175	0.685173
29761	6.837096	1.458236	5.854137	0.155985	-0.393946	0.273223	0.397664	0.574229	0.715628	-0.890566	0.429257	0.150433	-0.220806	-0.697136	0.682089
29762	6.884710	1.382639	5.922166	0.209970	-0.289610	0.208972	0.395204	0.573042	0.717939	-0.891833	0.426630	0.150401	-0.220108	-0.699721	0.679664
29763	6.849954	1.110799	5.890125	0.225499	-0.266810	0.164163	0.393190	0.571817	0.720019	-0.892955	0.424138	0.150790	-0.219163	-0.702234	0.677373
29764	6.937715	0.872550	5.916313	0.184611	-0.297879	0.226035	0.390563	0.570615	0.722398	-0.894219	0.421590	0.150447	-0.218709	-0.704741	0.674912
29765	7.137377	0.961055	6.061666	0.093006	-0.276232	0.363227	0.386762	0.570117	0.724832	-0.895798	0.418927	0.148479	-0.219001	-0.706729	0.672735
29766	7.126084	1.197399	6.217022	0.063277	-0.229617	0.435488	0.382408	0.570231	0.727050	-0.897572	0.416072	0.145769	-0.219383	-0.708323	0.670932
29767	7.262550	1.631916	6.633772	0.103288	-0.246570	0.406981	0.378260	0.570093	0.729324	-0.899311	0.413087	0.143524	-0.219452	-0.710178	0.668945
29768	7.422722	2.059985	6.907957	0.155870	-0.268843	0.394005	0.374168	0.569730	0.731715	-0.901102	0.409797	0.141709	-0.219118	-0.712373	0.666718
29769	7.356726	2.256961	6.871224	0.257859	-0.310478	0.344823	0.370413	0.568857	0.734300	-0.902924	0.406042	0.140916	-0.217996	-0.715215	0.664038
29770	7.351582	2.131960	6.774049	0.321376	-0.336076	0.307099	0.366933	0.567630	0.736991	-0.904734	0.402034	0.140803	-0.216372	-0.718446	0.661074
29771	7.311706	1.809686	6.476678	0.324508	-0.301653	0.300296	0.363587	0.566604	0.739435	-0.906511	0.398032	0.140742	-0.214574	-0.721478	0.658352
29772	7.011952	1.456506	6.051963	0.312483	-0.271610	0.273872	0.360546	0.565671	0.741636	-0.908153	0.394257	0.140784	-0.212758	-0.724278	0.655863
29773	7.043291	1.456267	5.920289	0.165631	-0.218140	0.348513	0.356955	0.565391	0.743583	-0.909728	0.391139	0.139306	-0.212082	-0.726184	0.653971
29774	7.079323	0.974340	5.785183	-0.047733	-0.232883	0.556024	0.351467	0.565771	0.745904	-0.911548	0.388442	0.134883	-0.213428	-0.727334	0.652252
29775	7.184685	0.594629	5.566289	-0.149910	-0.315849	0.606692	0.345346	0.565716	0.748800	-0.913283	0.386221	0.129417	-0.215989	-0.728559	0.650038
29776	7.257070	0.651433	5.550718	-0.286944	-0.349930	0.635275	0.338892	0.565496	0.751908	-0.914764	0.384858	0.122847	-0.219908	-0.729451	0.647721
29777	7.286437	0.648357	5.420342	-0.374695	-0.327288	0.648084	0.332358	0.565477	0.754834	-0.916036	0.384074	0.115611	-0.224536	-0.729879	0.645647
29778	7.390362	0.898087	5.668781	-0.374584	-0.238719	0.665794	0.325833	0.566167	0.757158	-0.917309	0.383186	0.108224	-0.228860	-0.729811	0.644205
29779	7.520567	1.208192	6.073874	-0.253776	-0.211056	0.573505	0.320182	0.566713	0.759157	-0.918520	0.381911	0.102298	-0.231957	-0.730055	0.642819
29780	7.746662	1.519792	6.303026	-0.041996	-0.235517	0.402474	0.316008	0.566442	0.761106	-0.919663	0.380020	0.099016	-0.233148	-0.731251	0.641025
29781	7.925006	1.710915	6.622722	0.126510	-0.297576	0.294274	0.312660	0.565309	0.763328	-0.920856	0.377483	0.097625	-0.232955	-0.733439	0.638592
29782	7.886667	1.821147	6.546363	0.182079	-0.418970	0.210176	0.309804	0.562957	0.766225	-0.921910	0.375005	0.097229	-0.232602	-0.736512	0.635174
29783	7.599605	1.413158	6.233851	0.151717	-0.473899	0.174941	0.307153	0.560049	0.769417	-0.922777	0.372948	0.096911	-0.232678	-0.739767	0.631353
29784	7.394183	0.941829	5.881334	0.063260	-0.530475	0.236372	0.303816	0.556920	0.773004	-0.923613	0.371224	0.095558	-0.233740	-0.742989	0.627163
29785	7.605862	0.530345	5.339474	-0.101453	-0.437126	0.428158	0.298930	0.555159	0.776170	-0.924619	0.369697	0.091676	-0.236053	-0.745066	0.623824
29786	7.540061	0.308538	5.478717	-0.192616	-0.355369	0.483588	0.293716	0.554192	0.778847	-0.925543	0.368562	0.086786	-0.238957	-0.746347	0.621181
29787	7.852188	0.550286	5.544651	-0.214604	-0.381564	0.462048	0.288630	0.552940	0.781633	-0.926322	0.367717	0.081929	-0.242118	-0.747690	0.618335
29788	7.870907	0.612716	5.525498	-0.182855	-0.330500	0.439105	0.283857	0.551982	0.784054	-0.927086	0.366763	0.077435	-0.244820	-0.748866	0.615843
29789	8.008114	0.445865	5.654355	-0.106777	-0.292511	0.331853	0.280148	0.550921	0.786132	-0.927722	0.365813	0.074244	-0.246675	-0.750111	0.613583
29790	8.216318	0.676135	5.936721	-0.026440	-0.230692	0.214926	0.277657	0.549904	0.787726	-0.928229	0.364885	0.072459	-0.247584	-0.751309	0.611749
29791	8.061574	1.049813	6.217091	0.026168	-0.206087	0.192184	0.275425	0.548989	0.789146	-0.928802	0.363679	0.071166	-0.247927	-0.752562	0.610068
29792	8.203773	1.328227	6.263933	0.040110	-0.258242	0.225565	0.272754	0.547794	0.790903	-0.929495	0.362192	0.069688	-0.248284	-0.754147	0.607961
29793	8.262539	1.334205	6.223737	0.061030	-0.273396	0.286174	0.269475	0.546693	0.792786	-0.930396	0.360223	0.067846	-0.248489	-0.755888	0.605712
29794	8.201580	1.334882	5.914059	0.126989	-0.271800	0.311792	0.265948	0.545686	0.794669	-0.931521	0.357615	0.066180	-0.248072	-0.757851	0.603425
29795	7.956564	1.334330	5.340749	0.234843	-0.216159	0.309810	0.262556	0.545088	0.796206	-0.932903	0.354186	0.065155	-0.246489	-0.759889	0.601508
29796	7.838354	1.417962	5.561098	0.357163	-0.071822	0.312425	0.259462	0.545592	0.796874	-0.934583	0.349791	0.064810	-0.243380	-0.761561	0.600659
29797	7.971021	1.121171	5.823224	0.478471	-0.099897	0.164398	0.257669	0.545369	0.797609	-0.936164	0.345242	0.066369	-0.239172	-0.763794	0.599513
29798	7.960968	0.588491	6.358880	0.546310	-0.219526	-0.034341	0.257460	0.543551	0.798916	-0.937379	0.341219	0.069929	-0.234596	-0.766891	0.597363
29799	8.179022	0.342922	5.991744	0.515530	-0.541406	-0.175565	0.257867	0.538768	0.802019	-0.938134	0.338172	0.074459	-0.231104	-0.771601	0.592640
29800	8.271264	0.362463	4.731210	0.446898	-0.512182	-0.033355	0.257031	0.534659	0.805031	-0.939073	0.334887	0.077414	-0.228204	-0.775881	0.588160
29801	7.424460	0.297056	3.993888	0.468818	-0.059710	0.148481	0.255486	0.534656	0.805524	-0.940516	0.330444	0.078973	-0.223958	-0.777785	0.587277
29802	7.598786	0.633917	5.204929	0.446256	-0.083756	0.016465	0.255138	0.534033	0.806048	-0.941554	0.326862	0.081473	-0.219957	-0.779724	0.586216
29803	8.333732	0.496259	5.661447	0.280057	-0.156123	-0.000896	0.254830	0.532775	0.806977	-0.942162	0.324675	0.083165	-0.217697	-0.781496	0.584698
29804	8.274486	1.165249	5.839470	0.137460	-0.252513	0.059891	0.253772	0.530944	0.808516	-0.942600	0.323302	0.083548	-0.217036	-0.783310	0.582513
29805	7.943526	1.486696	5.568459	0.089242	-0.266235	0.162839	0.251720	0.529322	0.810219	-0.943187	0.321777	0.082812	-0.216876	-0.785034	0.580247
29806	8.217660	1.774450	5.777379	0.081454	-0.309757	0.228394	0.248958	0.527554	0.812223	-0.943913	0.319980	0.081490	-0.216904	-0.786956	0.577627
29807	8.116169	1.640693	5.673202	0.089916	-0.362587	0.285798	0.245540	0.525538	0.814567	-0.944790	0.317824	0.079742	-0.216981	-0.789175	0.574562
29808	8.174627	1.531736	5.426406	0.176760	-0.355551	0.310868	0.241884	0.523644	0.816878	-0.945909	0.314851	0.078262	-0.216213	-0.791622	0.571477
29809	8.374600	1.184329	5.371918	0.185616	-0.343388	0.385413	0.237544	0.522057	0.819164	-0.947210	0.311425	0.076203	-0.215326	-0.794022	0.568475
29810	8.331846	0.706884	5.083295	0.141713	-0.363274	0.447310	0.232579	0.520475	0.821591	-0.948539	0.308043	0.073372	-0.214897	-0.796376	0.565336
29811	8.198455	0.537237	5.021564	0.115888	-0.364731	0.457399	0.227516	0.518888	0.824010	-0.949812	0.304819	0.070303	-0.214695	-0.798649	0.562197
29812	7.836118	0.240173	4.579992	0.115076	-0.366646	0.444104	0.222569	0.517223	0.826404	-0.951031	0.301676	0.067324	-0.214485	-0.800919	0.559039
29813	7.758942	0.358467	4.582942	0.179982	-0.316693	0.380822	0.218316	0.515755	0.828453	-0.952234	0.298326	0.065212	-0.213515	-0.803118	0.556248
29814	7.822176	0.451829	4.816743	0.202967	-0.281208	0.368177	0.214252	0.514518	0.830282	-0.953442	0.294854	0.063315	-0.212235	-0.805191	0.553736
29815	7.634501	0.505155	5.052765	0.239435	-0.277015	0.279604	0.211037	0.513044	0.832015	-0.954529	0.291526	0.062348	-0.210567	-0.807340	0.551238
29816	7.688222	0.613493	4.869957	0.313725	-0.317388	0.132798	0.209135	0.510816	0.833864	-0.955457	0.288326	0.063005	-0.208241	-0.809898	0.548362
29817	7.659150	0.768690	4.845952	0.385666	-0.309953	0.009153	0.208429	0.508293	0.835581	-0.956273	0.285143	0.065079	-0.205181	-0.812608	0.545499
29818	7.932446	0.571568	5.226192	0.406875	-0.365406	-0.097866	0.208646	0.505013	0.837513	-0.956900	0.282305	0.068160	-0.202013	-0.815638	0.542149
29819	8.076307	0.651543	5.290022	0.359397	-0.453466	-0.153806	0.209248	0.500846	0.839862	-0.957302	0.280119	0.071461	-0.199470	-0.818955	0.538075
29820	7.782392	0.316883	4.809292	0.375885	-0.386196	-0.021900	0.208723	0.497582	0.841931	-0.957999	0.277137	0.073709	-0.196653	-0.821953	0.534528
29821	7.982857	0.499128	4.930834	0.386678	-0.267847	0.153460	0.206746	0.495755	0.843494	-0.959068	0.273201	0.074503	-0.193508	-0.824371	0.531946
29822	7.836029	0.744312	4.752090	0.336656	-0.243189	0.286563	0.203549	0.494470	0.845025	-0.960292	0.269035	0.073887	-0.190807	-0.826510	0.529598
29823	7.819045	0.977858	4.896355	0.344269	-0.186407	0.382954	0.199530	0.493889	0.846322	-0.961704	0.264336	0.072474	-0.187919	-0.828372	0.527718
29824	8.117612	1.239533	5.279194	0.364688	-0.197536	0.472894	0.194620	0.493423	0.847736	-0.963301	0.259031	0.070383	-0.184862	-0.830323	0.525727
29825	8.198693	1.478785	5.478517	0.373244	-0.251875	0.606787	0.188320	0.492806	0.849516	-0.965129	0.253008	0.067178	-0.181829	-0.832544	0.523268
29826	7.985154	1.366215	5.193191	0.404259	-0.354437	0.704221	0.180891	0.491525	0.851870	-0.967136	0.246261	0.063276	-0.178681	-0.835320	0.519918
29827	8.020154	1.043795	5.033963	0.456157	-0.458562	0.705570	0.173264	0.489315	0.854723	-0.969171	0.239071	0.059599	-0.175177	-0.838699	0.515652
29828	7.746859	0.634798	4.455880	0.498844	-0.537589	0.617391	0.166358	0.486173	0.857882	-0.971066	0.231944	0.056860	-0.171337	-0.842519	0.510692
29829	7.518560	0.200255	3.990382	0.526135	-0.569665	0.513053	0.160423	0.482464	0.861100	-0.972781	0.225077	0.055122	-0.167219	-0.846504	0.505440
29830	7.957145	0.148694	4.376754	0.446467	-0.540768	0.408385	0.155580	0.478720	0.864073	-0.974152	0.219379	0.053859	-0.163776	-0.850117	0.500477
29831	8.136131	0.247615	4.406187	0.311465	-0.599529	0.321461	0.151528	0.474247	0.867254	-0.975138	0.215245	0.052674	-0.161692	-0.853674	0.495072
29832	8.227350	0.507454	4.402710	0.258876	-0.621734	0.266262	0.147997	0.469435	0.870476	-0.975940	0.211824	0.051694	-0.160121	-0.857182	0.489489
29833	8.197135	0.774581	4.449440	0.353986	-0.597323	0.228398	0.144869	0.464727	0.873523	-0.976826	0.207751	0.051475	-0.157554	-0.860737	0.484054
29834	8.626699	0.825131	4.744336	0.508481	-0.604219	0.239099	0.141618	0.459953	0.876577	-0.977953	0.202285	0.051854	-0.153468	-0.864595	0.478460
29835	8.909516	0.692529	4.692604	0.588927	-0.612057	0.351040	0.137271	0.455290	0.879698	-0.979325	0.195609	0.051579	-0.148594	-0.868590	0.472728
29836	8.790644	0.435504	4.352540	0.658636	-0.634609	0.503710	0.131409	0.450664	0.882969	-0.980952	0.187647	0.050217	-0.143055	-0.872749	0.466738
29837	8.437176	0.239297	3.790980	0.599134	-0.569322	0.787993	0.122876	0.447040	0.886034	-0.982779	0.178966	0.045997	-0.138007	-0.876428	0.461332
29838	8.260361	-0.469746	3.532499	0.552563	-0.465787	0.931158	0.113085	0.444476	0.888624	-0.984608	0.170083	0.040227	-0.133260	-0.879496	0.456869
29839	8.470188	-0.302299	4.075456	0.452300	-0.426270	0.968606	0.102996	0.442224	0.890971	-0.986228	0.161934	0.033634	-0.129405	-0.882165	0.452813
29840	8.756698	-0.465333	4.536636	0.352581	-0.441112	0.959264	0.092997	0.439740	0.893297	-0.987598	0.154726	0.026648	-0.126498	-0.884697	0.448675
29841	9.153379	-0.378750	5.004145	0.275683	-0.549461	0.903182	0.083439	0.436134	0.896005	-0.988719	0.148465	0.019807	-0.124387	-0.887550	0.443602
29842	9.071573	-0.254398	4.726828	0.198504	-0.663898	0.838749	0.074399	0.431350	0.899112	-0.989606	0.143201	0.013187	-0.123066	-0.890747	0.437520
29843	8.669093	-0.176642	4.197766	0.189169	-0.691108	0.699689	0.066711	0.426074	0.902225	-0.990314	0.138631	0.007755	-0.121772	-0.894003	0.431195
29844	8.018378	-0.225976	3.365675	0.296366	-0.702530	0.412683	0.061845	0.420275	0.905287	-0.990926	0.134299	0.005348	-0.119332	-0.897403	0.424767
29845	8.425346	-0.334532	3.475831	0.421907	-0.666960	0.129852	0.059823	0.414404	0.908125	-0.991499	0.129979	0.006002	-0.115550	-0.900763	0.418657
29846	9.051945	-0.377067	3.848932	0.449814	-0.589534	0.130804	0.057894	0.409209	0.910602	-0.992084	0.125394	0.006725	-0.111432	-0.903783	0.413229
29847	9.052407	0.161099	3.878092	0.403487	-0.585880	0.221472	0.055099	0.404126	0.913042	-0.992648	0.120868	0.006405	-0.107769	-0.906683	0.407814
29848	8.676540	0.629317	3.488495	0.373888	-0.562028	0.350135	0.051073	0.399376	0.915364	-0.993224	0.116115	0.004756	-0.104388	-0.909404	0.402600
29849	8.381620	0.727913	3.098462	0.416833	-0.511263	0.421638	0.046395	0.395132	0.917452	-0.993851	0.110698	0.002583	-0.100539	-0.911930	0.397838
29850	8.765341	0.353176	3.008357	0.465072	-0.427587	0.492494	0.041098	0.391689	0.919179	-0.994517	0.104574	-0.000096	-0.096160	-0.914136	0.393839
29851	9.132260	-0.147174	3.217661	0.495425	-0.400367	0.428940	0.036469	0.388395	0.920771	-0.995143	0.098413	-0.002098	-0.091431	-0.916223	0.390098
29852	9.819751	-0.194423	3.667102	0.452524	-0.418564	0.387735	0.032258	0.384865	0.922409	-0.995676	0.092808	-0.003903	-0.087109	-0.918295	0.386195
29853	9.777349	-0.044057	4.090112	0.415756	-0.379544	0.410414	0.027873	0.381682	0.923873	-0.996149	0.087461	-0.006079	-0.083123	-0.920147	0.382650
29854	9.988526	0.145656	4.045621	0.433605	-0.395721	0.350259	0.024087	0.378276	0.925380	-0.996589	0.082175	-0.007651	-0.078937	-0.922038	0.378964
29855	9.851730	0.167908	3.879614	0.426556	-0.384791	0.384849	0.019980	0.374968	0.926823	-0.996998	0.076832	-0.009591	-0.074806	-0.923849	0.375377
29856	9.675207	-0.613089	3.335332	0.450390	-0.379117	0.338616	0.016349	0.371656	0.928227	-0.997384	0.071439	-0.011037	-0.070413	-0.925618	0.371851
29857	9.820526	-0.826241	3.089396	0.397963	-0.378715	0.216900	0.013957	0.368248	0.929623	-0.997688	0.066968	-0.011549	-0.066508	-0.927313	0.368331
29858	9.920001	-1.029141	2.947805	0.345836	-0.353384	0.149782	0.012270	0.365022	0.930918	-0.997932	0.063221	-0.011636	-0.063101	-0.928850	0.365043
29859	9.595668	-0.686612	2.687082	0.323062	-0.273583	0.212193	0.010018	0.362560	0.931907	-0.998153	0.059466	-0.012405	-0.059914	-0.930061	0.362486
29860	9.492484	-0.320518	2.952164	0.390944	-0.212969	0.107409	0.008841	0.360601	0.932678	-0.998390	0.055438	-0.011970	-0.056022	-0.931071	0.360511
29861	9.682097	-0.050861	3.024498	0.405539	-0.269361	0.049040	0.008227	0.358081	0.933654	-0.998614	0.051472	-0.010942	-0.051975	-0.932271	0.358008
29862	9.820306	-0.170235	3.147301	0.416978	-0.258136	0.167009	0.006448	0.355712	0.934573	-0.998835	0.046994	-0.010995	-0.047830	-0.933413	0.355601
29863	9.956406	0.154865	3.422884	0.355386	-0.351202	0.240665	0.003918	0.352487	0.935808	-0.999010	0.042846	-0.011956	-0.044310	-0.934835	0.352306
29864	9.587036	-0.223089	3.014745	0.302481	-0.428447	0.274617	0.001042	0.348538	0.937294	-0.999146	0.039088	-0.013424	-0.041316	-0.936479	0.348281
29865	9.675761	-0.254402	3.235284	0.337103	-0.442509	0.237890	-0.001463	0.344426	0.938812	-0.999278	0.035131	-0.014446	-0.037957	-0.938156	0.344126
29866	9.608852	-0.331700	3.267897	0.313394	-0.493423	0.156727	-0.003153	0.339801	0.940492	-0.999389	0.031670	-0.014793	-0.034812	-0.939964	0.339494
29867	9.820494	-0.631893	3.246475	0.317159	-0.531135	0.107707	-0.004348	0.334794	0.942281	-0.999491	0.028332	-0.014678	-0.031611	-0.941865	0.334500
29868	10.003587	-0.594157	3.304630	0.316252	-0.587273	0.075629	-0.005217	0.329239	0.944232	-0.999583	0.025105	-0.014276	-0.028406	-0.943913	0.328971
29869	9.689346	-0.509909	2.953505	0.284893	-0.631529	0.066566	-0.005980	0.323248	0.946295	-0.999657	0.022203	-0.013901	-0.025504	-0.946054	0.323004
29870	9.681289	-0.428491	2.780959	0.324867	-0.606659	0.113067	-0.007191	0.317486	0.948236	-0.999728	0.018776	-0.013868	-0.022207	-0.948077	0.317264
29871	9.794572	-0.528804	2.873746	0.365733	-0.551485	0.107205	-0.008323	0.312228	0.949971	-0.999794	0.014974	-0.013681	-0.018496	-0.949889	0.312039
29872	9.778579	-0.292599	2.911525	0.392104	-0.544204	0.096060	-0.009326	0.307029	0.951655	-0.999851	0.010952	-0.013331	-0.014515	-0.951637	0.306881
29873	9.573616	-0.473335	2.640710	0.448828	-0.499748	0.108912	-0.010442	0.302236	0.953176	-0.999896	0.006346	-0.012966	-0.009968	-0.953212	0.302139
29874	9.738869	-0.579968	2.655808	0.468984	-0.462617	0.099775	-0.011446	0.297790	0.954563	-0.999921	0.001571	-0.012480	-0.005216	-0.954630	0.297748
29875	9.337770	-0.635261	2.338790	0.395708	-0.473020	0.121784	-0.012639	0.293227	0.955959	-0.999919	-0.002565	-0.012433	-0.001194	-0.956039	0.293236
29876	9.016696	-0.369045	2.133072	0.353134	-0.450765	0.075222	-0.013341	0.288876	0.957274	-0.999908	-0.006164	-0.012075	0.002412	-0.957347	0.288931
29877	8.665709	-0.299499	1.901789	0.337112	-0.405357	0.045731	-0.013737	0.284952	0.958443	-0.999888	-0.009531	-0.011497	0.005858	-0.958494	0.285051
29878	8.973066	-0.295328	2.049118	0.283249	-0.401359	-0.005127	-0.013602	0.281075	0.959590	-0.999869	-0.012245	-0.010586	0.008775	-0.959608	0.281204
29879	9.583440	-0.276847	2.476174	0.131219	-0.458587	0.102244	-0.014497	0.276616	0.960871	-0.999843	-0.013778	-0.011118	0.010163	-0.960882	0.276773
29880	9.743279	-0.559788	2.753498	0.078592	-0.525745	0.140724	-0.015748	0.271501	0.962309	-0.999815	-0.014897	-0.012159	0.011034	-0.962323	0.271685
29881	9.808077	0.132174	3.031197	0.099305	-0.610650	0.057800	-0.016154	0.265573	0.963955	-0.999796	-0.015999	-0.012347	0.012144	-0.963958	0.265777
29882	9.426522	0.155201	2.646523	0.180745	-0.607749	0.017856	-0.016164	0.259677	0.965560	-0.999770	-0.017791	-0.011951	0.014075	-0.965532	0.259905
29883	9.484961	0.142045	2.690020	0.307950	-0.583327	-0.147294	-0.014535	0.254048	0.967082	-0.999745	-0.020423	-0.009661	0.017296	-0.966976	0.254280
29884	9.640593	-0.099258	2.386696	0.338868	-0.584477	-0.157792	-0.012786	0.248411	0.968570	-0.999701	-0.023344	-0.007210	0.020819	-0.968373	0.248635
29885	9.787963	-0.142397	2.408418	0.333258	-0.515995	-0.067236	-0.011943	0.243400	0.969852	-0.999634	-0.026432	-0.005676	0.024254	-0.969566	0.243627
29886	9.367612	0.043061	2.205338	0.256403	-0.560391	0.054521	-0.012271	0.237916	0.971208	-0.999563	-0.029053	-0.005513	0.026905	-0.970851	0.238168
29887	9.050589	-0.101082	1.725071	0.262314	-0.497652	0.157670	-0.013640	0.232988	0.972384	-0.999469	-0.031958	-0.006363	0.029593	-0.971954	0.233300
29888	9.091102	-0.208988	1.728130	0.248427	-0.444542	0.182080	-0.015258	0.228562	0.973410	-0.999367	-0.034778	-0.007499	0.032139	-0.972908	0.228947
29889	8.970773	-0.232552	1.614325	0.213438	-0.398694	0.182788	-0.016886	0.224568	0.974312	-0.999268	-0.037252	-0.008732	0.034334	-0.973746	0.225033
29890	8.983816	-0.146591	1.602973	0.202665	-0.314063	0.166769	-0.018379	0.221403	0.975009	-0.999168	-0.039585	-0.009845	0.036416	-0.974379	0.221946
29891	9.515232	0.024554	2.227010	0.252001	-0.276958	0.055613	-0.018781	0.218643	0.975624	-0.999063	-0.042171	-0.009781	0.039004	-0.974893	0.219230
29892	9.973113	0.107230	2.643003	0.294346	-0.320104	0.027917	-0.018883	0.215479	0.976326	-0.998938	-0.045115	-0.009364	0.042029	-0.975466	0.216102
29893	9.993021	0.283239	2.731933	0.354360	-0.397104	-0.009906	-0.018568	0.211577	0.977185	-0.998784	-0.048571	-0.008462	0.045673	-0.976154	0.212221
29894	9.809718	0.038490	2.370905	0.350564	-0.493949	-0.025876	-0.018023	0.206740	0.978230	-0.998622	-0.051962	-0.007417	0.049297	-0.977015	0.207392
29895	9.595597	0.156079	2.123808	0.357309	-0.486462	-0.073473	-0.016992	0.201999	0.979238	-0.998450	-0.055334	-0.005911	0.052991	-0.977821	0.202626
29896	9.343605	0.247363	1.847684	0.330676	-0.478444	-0.095427	-0.015723	0.197354	0.980206	-0.998284	-0.058411	-0.004253	0.056415	-0.978591	0.197933
29897	9.268344	0.284154	1.710353	0.358467	-0.426972	-0.177769	-0.013657	0.193264	0.981052	-0.998098	-0.061621	-0.001755	0.060114	-0.979210	0.193738
29898	8.920170	0.249311	1.297527	0.349732	-0.385858	-0.153439	-0.011844	0.189566	0.981797	-0.997898	-0.064797	0.000473	0.063707	-0.979727	0.189935
29899	8.658738	0.020674	0.882060	0.333941	-0.269644	-0.089748	-0.010737	0.186959	0.982309	-0.997688	-0.067936	0.002025	0.067113	-0.980016	0.187256
29900	9.097944	0.025285	1.259305	0.306863	-0.160705	-0.077160	-0.009825	0.185415	0.982611	-0.997482	-0.070834	0.003392	0.070232	-0.980104	0.185644
29901	9.821888	0.059247	1.830113	0.264909	-0.136999	-0.015042	-0.009541	0.184052	0.982870	-0.997292	-0.073427	0.004069	0.072918	-0.980170	0.184254
29902	10.294935	0.107946	2.362369	0.295952	-0.160538	0.101142	-0.010395	0.182366	0.983176	-0.997062	-0.076518	0.003651	0.075896	-0.980249	0.182626
29903	10.046099	0.399509	2.267197	0.345058	-0.281333	0.032080	-0.010461	0.179548	0.983694	-0.996789	-0.079975	0.003997	0.079389	-0.980493	0.179808
29904	9.784958	0.403694	1.819397	0.401569	-0.318540	-0.023875	-0.009934	0.176418	0.984265	-0.996462	-0.083897	0.004980	0.083455	-0.980733	0.176627
29905	9.750796	0.289111	1.657185	0.479739	-0.259170	-0.070926	-0.008994	0.173909	0.984721	-0.996053	-0.088515	0.006535	0.088299	-0.980775	0.174019
29906	9.921825	0.006906	1.703869	0.616361	-0.169772	-0.104055	-0.007822	0.172316	0.985011	-0.995495	-0.094427	0.008614	0.094496	-0.980505	0.172278
29907	9.981707	0.129240	1.672883	0.581383	-0.232479	-0.043600	-0.007169	0.170047	0.985410	-0.994928	-0.100089	0.010034	0.100334	-0.980340	0.169902
29908	9.424082	-0.182741	1.060545	0.450503	-0.239474	0.056102	-0.007465	0.167608	0.985825	-0.994460	-0.104616	0.010256	0.104852	-0.980287	0.167461
29909	9.078732	-0.067309	0.913507	0.420394	-0.217389	-0.197967	-0.005248	0.165672	0.986167	-0.994016	-0.108464	0.012932	0.109106	-0.980198	0.165250
29910	9.641030	0.104066	1.102609	0.421041	-0.164372	-0.279660	-0.002274	0.164363	0.986397	-0.993550	-0.112200	0.016405	0.113370	-0.979998	0.163558
29911	10.012880	0.588373	1.657420	0.387837	-0.135424	-0.253694	0.000416	0.163313	0.986574	-0.993097	-0.115652	0.019563	0.117294	-0.979772	0.162137
29912	10.248119	0.702604	1.843065	0.382021	-0.194973	-0.209654	0.002752	0.161638	0.986846	-0.992631	-0.119112	0.022278	0.121146	-0.979635	0.160119
29913	10.304534	0.556123	1.696568	0.379168	-0.231950	-0.105077	0.004106	0.159470	0.987194	-0.992155	-0.122699	0.023947	0.124946	-0.979548	0.157715
29914	10.003040	0.227718	1.493239	0.400087	-0.235337	-0.014760	0.004575	0.157156	0.987563	-0.991643	-0.126621	0.024744	0.128935	-0.979423	0.155263
29915	9.725922	0.211133	1.147630	0.412867	-0.236749	-0.020907	0.005115	0.154834	0.987927	-0.991096	-0.130660	0.025609	0.133047	-0.979262	0.152787
29916	9.547495	0.283187	0.939037	0.283521	-0.233107	0.002177	0.005451	0.152523	0.988285	-0.990711	-0.133460	0.026061	0.135872	-0.979247	0.150379
29917	9.365112	0.137732	0.871112	0.181398	-0.190806	-0.033443	0.006099	0.150675	0.988565	-0.990456	-0.135211	0.026720	0.137691	-0.979293	0.148412
29918	9.720687	0.303387	1.170032	0.193206	-0.156892	-0.066065	0.007023	0.149210	0.988781	-0.990178	-0.137035	0.027712	0.139633	-0.979264	0.146782
29919	10.272551	0.457939	1.664308	0.208634	-0.165710	-0.060733	0.007907	0.147647	0.989008	-0.989875	-0.139019	0.028668	0.141724	-0.979221	0.145053
29920	10.112816	0.614524	1.624871	0.212094	-0.228783	0.007581	0.008214	0.145372	0.989343	-0.989568	-0.141126	0.028953	0.143831	-0.979260	0.142697
29921	9.643848	0.429565	1.117992	0.256076	-0.204890	0.047460	0.008089	0.143266	0.989651	-0.989197	-0.143716	0.028890	0.146368	-0.979194	0.140556
29922	9.570246	0.340322	1.013069	0.273541	-0.181122	0.027075	0.008130	0.141426	0.989915	-0.988791	-0.146451	0.029044	0.149082	-0.979056	0.138650
29923	9.843232	0.120361	1.264496	0.296584	-0.159690	0.024088	0.008169	0.139794	0.990147	-0.988343	-0.149408	0.029248	0.152024	-0.978844	0.136944
29924	9.994849	0.322756	1.414103	0.296147	-0.192715	0.048016	0.008030	0.137807	0.990427	-0.987889	-0.152388	0.029212	0.154954	-0.978666	0.134914
29925	9.756294	0.138875	1.311180	0.343576	-0.229883	0.030120	0.008127	0.135478	0.990747	-0.987349	-0.155810	0.029405	0.158352	-0.978452	0.132498
29926	9.745197	0.257883	1.189602	0.348588	-0.286001	-0.018806	0.008808	0.132686	0.991119	-0.986784	-0.159221	0.030085	0.161799	-0.978286	0.129530
29927	9.338845	-0.046990	0.701469	0.290858	-0.304349	0.046106	0.008900	0.129603	0.991526	-0.986310	-0.162141	0.030047	0.164662	-0.978219	0.126386
29928	8.957612	-0.100174	0.329223	0.258925	-0.266915	0.065204	0.008752	0.126857	0.991882	-0.985883	-0.164769	0.029773	0.167208	-0.978140	0.123624
29929	8.777587	-0.139416	0.188529	0.236600	-0.181772	0.108549	0.008038	0.124862	0.992142	-0.985491	-0.167224	0.029029	0.169535	-0.977980	0.121707
29930	8.821049	-0.104792	0.322550	0.212505	-0.108288	0.055724	0.007721	0.123681	0.992292	-0.985130	-0.169384	0.028777	0.171638	-0.977759	0.120535
29931	8.934983	-0.136814	0.330735	0.221980	-0.086755	-0.073772	0.008638	0.122936	0.992377	-0.984733	-0.171499	0.029817	0.173857	-0.977484	0.119577
29932	9.334451	-0.030261	0.590140	0.223226	-0.042823	-0.109182	0.009825	0.122690	0.992396	-0.984324	-0.173587	0.031206	0.176096	-0.977146	0.119061
29933	9.572052	-0.049577	0.772427	0.213380	-0.043495	-0.045271	0.010387	0.122317	0.992437	-0.983935	-0.175647	0.031946	0.178226	-0.976825	0.118528
29934	9.867523	0.015894	1.020783	0.206859	-0.068863	-0.034294	0.010891	0.121684	0.992509	-0.983554	-0.177654	0.032573	0.180287	-0.976541	0.117748
29935	10.000369	0.169136	1.127413	0.168447	-0.123773	0.024758	0.010926	0.120402	0.992665	-0.983247	-0.179346	0.032575	0.181953	-0.976391	0.116425
29936	9.919124	0.269009	1.029527	0.120231	-0.149318	0.118081	0.010104	0.118702	0.992879	-0.983037	-0.180662	0.031603	0.183127	-0.976356	0.114863
29937	9.531963	0.286044	0.788024	0.124998	-0.157392	0.139932	0.009084	0.116874	0.993105	-0.982820	-0.182045	0.030414	0.184345	-0.976320	0.113212
29938	9.485223	0.443980	0.798837	0.146547	-0.146212	0.116859	0.008268	0.115203	0.993308	-0.982557	-0.183613	0.029474	0.185780	-0.976225	0.111675
29939	9.208499	0.273628	0.488019	0.140800	-0.144262	0.099541	0.007621	0.113577	0.993500	-0.982299	-0.185107	0.028696	0.187163	-0.976133	0.110156
29940	9.127015	-0.032622	0.281529	0.147459	-0.079611	0.043729	0.007397	0.112694	0.993602	-0.982021	-0.186610	0.028476	0.188625	-0.975949	0.109287
29941	9.482542	-0.161998	0.537440	0.170870	-0.038805	-0.010124	0.007616	0.112305	0.993645	-0.981691	-0.188290	0.028805	0.190329	-0.975671	0.108815
29942	9.591932	-0.083104	0.662051	0.170649	-0.036572	-0.042113	0.008146	0.112009	0.993674	-0.981354	-0.189937	0.029455	0.192035	-0.975386	0.108373
29943	9.816322	-0.207101	0.805107	0.190480	-0.051243	-0.063301	0.008908	0.111605	0.993713	-0.980974	-0.191757	0.030331	0.193937	-0.975076	0.107773
29944	10.037533	0.228641	0.875985	0.132804	-0.086150	0.002685	0.009107	0.110739	0.993808	-0.980710	-0.193076	0.030502	0.195259	-0.974915	0.106845
29945	9.546533	0.275282	0.518805	0.075482	-0.101930	0.104515	0.008350	0.109509	0.993951	-0.980568	-0.193931	0.029604	0.196000	-0.974884	0.105762
29946	9.346378	0.193412	0.295248	0.089666	-0.069635	0.116771	0.007408	0.108575	0.994061	-0.980399	-0.194934	0.028598	0.196881	-0.974788	0.105002
29947	9.612728	0.155618	0.432835	0.082341	-0.035511	0.130353	0.006263	0.107936	0.994138	-0.980244	-0.195878	0.027442	0.197692	-0.974670	0.104577
29948	9.624935	0.045089	0.440503	0.073518	-0.007868	0.170059	0.004676	0.107492	0.994195	-0.980108	-0.196771	0.025884	0.198411	-0.974539	0.104433
29949	9.824685	0.179253	0.680960	0.100240	0.000394	0.126910	0.003488	0.107206	0.994231	-0.979912	-0.197886	0.024775	0.199400	-0.974345	0.104362
29950	10.083704	0.136008	0.789377	0.119665	-0.011507	0.125618	0.002336	0.106813	0.994276	-0.979675	-0.199187	0.023700	0.200579	-0.974123	0.104177
29951	10.236433	0.129901	0.913944	0.131292	-0.028886	0.150364	0.000975	0.106189	0.994345	-0.979413	-0.200624	0.022386	0.201867	-0.973896	0.103807
