// General information: 
//  MT Manager version: 2019.2.0 
//  XDA version: 2019.2.0 build 3853 rev 94535 built on 2019-09-09
// Device information: 
//  DeviceId: 00B43F80
//  ProductCode: MTW2-3A7G6
//  Firmware Version: 4.3.5
//  Hardware Version: 1.1.0
// Device settings: 
//  Filter Profile: human(46.1)
//  Option Flags: Orientation Smoother Disabled, AHS Disabled, ICC Disabled
// Coordinate system: ENU
PacketCounter	Acc_X	Acc_Y	Acc_Z	Gyr_X	Gyr_Y	Gyr_Z	Mat[1][1]	Mat[2][1]	Mat[3][1]	Mat[1][2]	Mat[2][2]	Mat[3][2]	Mat[1][3]	Mat[2][3]	Mat[3][3]
54523	0.210341	0.032098	9.723237	-0.003333	-0.001374	0.007465	0.999999	-0.000396	-0.001348	0.000397	1.000000	0.000613	0.001347	-0.000613	0.999999
54524	0.188771	0.043864	9.699083	0.004731	-0.001583	0.008704	0.999999	-0.000377	-0.001351	0.000378	1.000000	0.000639	0.001351	-0.000640	0.999999
54525	0.180432	0.016599	9.717990	0.002785	-0.001298	0.008693	0.999999	-0.000358	-0.001355	0.000359	1.000000	0.000644	0.001355	-0.000644	0.999999
54526	0.212415	0.037446	9.699328	0.002576	-0.001045	0.006523	0.999999	-0.000362	-0.001364	0.000363	1.000000	0.000649	0.001363	-0.000650	0.999999
54527	0.165809	0.051705	9.698819	0.002508	-0.002231	0.007496	0.999999	-0.000353	-0.001362	0.000354	1.000000	0.000652	0.001361	-0.000652	0.999999
54528	0.205977	0.014999	9.694333	0.002508	-0.002231	0.007496	0.999999	-0.000347	-0.001358	0.000348	1.000000	0.000656	0.001358	-0.000657	0.999999
54529	0.189677	0.045137	9.699060	0.002231	-0.003164	0.006299	0.999999	-0.000355	-0.001344	0.000356	1.000000	0.000657	0.001344	-0.000658	0.999999
54530	0.211642	0.033538	9.723204	0.000562	-0.001945	0.007486	0.999999	-0.000350	-0.001344	0.000351	1.000000	0.000642	0.001343	-0.000643	0.999999
54531	0.186697	0.036094	9.746849	0.004592	-0.000145	0.005560	0.999999	-0.000363	-0.001364	0.000364	1.000000	0.000667	0.001363	-0.000668	0.999999
54532	0.166698	0.052760	9.698798	0.000630	-0.000759	0.006513	0.999999	-0.000367	-0.001375	0.000368	1.000000	0.000653	0.001375	-0.000654	0.999999
54533	0.211882	0.034158	9.723196	0.002577	-0.001045	0.006523	0.999999	-0.000373	-0.001382	0.000374	1.000000	0.000659	0.001382	-0.000659	0.999999
54534	0.166880	0.053050	9.698793	0.000631	-0.000759	0.006513	0.999999	-0.000378	-0.001394	0.000378	1.000000	0.000644	0.001394	-0.000645	0.999999
54535	0.237213	0.032100	9.699540	0.002231	-0.003164	0.006299	0.999999	-0.000384	-0.001381	0.000385	1.000000	0.000646	0.001381	-0.000647	0.999999
54536	0.183944	0.023461	9.694053	0.002442	-0.003417	0.008470	0.999999	-0.000368	-0.001366	0.000369	1.000000	0.000650	0.001366	-0.000650	0.999999
54537	0.196175	0.064807	9.727905	0.002789	-0.001298	0.008694	0.999999	-0.000350	-0.001370	0.000351	1.000000	0.000654	0.001369	-0.000655	0.999999
54538	0.186003	0.028629	9.670144	0.002300	-0.001978	0.005326	0.999999	-0.000365	-0.001369	0.000366	1.000000	0.000657	0.001369	-0.000658	0.999999
54539	0.196534	0.065254	9.727895	0.002300	-0.001978	0.005326	0.999999	-0.000382	-0.001366	0.000383	1.000000	0.000660	0.001365	-0.000660	0.999999
54540	0.184662	0.024276	9.694037	0.000632	-0.000759	0.006513	0.999999	-0.000387	-0.001377	0.000387	1.000000	0.000645	0.001377	-0.000646	0.999999
54541	0.213359	0.035586	9.723159	0.002511	-0.002231	0.007497	0.999999	-0.000387	-0.001373	0.000388	1.000000	0.000652	0.001373	-0.000653	0.999999
54542	0.193522	0.052148	9.675106	0.000565	-0.001945	0.007487	0.999999	-0.000381	-0.001373	0.000382	1.000000	0.000637	0.001373	-0.000638	0.999999
54543	0.161829	0.031717	9.693778	0.002301	-0.001978	0.005326	0.999999	-0.000396	-0.001372	0.000396	1.000000	0.000638	0.001372	-0.000638	0.999999
54544	0.192229	0.047698	9.698997	0.000354	-0.001692	0.005316	0.999999	-0.000412	-0.001375	0.000413	1.000000	0.000621	0.001374	-0.000622	0.999999
54545	0.192376	0.047750	9.698994	0.001055	-0.001265	0.010855	0.999999	-0.000376	-0.001381	0.000377	1.000000	0.000613	0.001381	-0.000613	0.999999
54546	0.190753	0.043126	9.722893	0.000701	0.000427	0.005539	0.999999	-0.000390	-0.001405	0.000391	1.000000	0.000599	0.001405	-0.000600	0.999999
54547	0.165635	0.041590	9.645967	0.004459	-0.002519	0.007507	0.999999	-0.000387	-0.001397	0.000387	1.000000	0.000624	0.001396	-0.000624	0.999999
54548	0.191123	0.043582	9.722884	0.000287	-0.002878	0.006290	0.999999	-0.000393	-0.001387	0.000394	1.000000	0.000606	0.001387	-0.000607	0.999999
54549	0.186188	0.025498	9.694005	0.002513	-0.002232	0.007497	0.999999	-0.000392	-0.001384	0.000393	1.000000	0.000612	0.001384	-0.000613	0.999999
54550	0.216517	0.041498	9.699221	0.000913	0.000174	0.007711	0.999999	-0.000384	-0.001405	0.000385	1.000000	0.000601	0.001405	-0.000601	0.999999
54551	0.183058	0.016420	9.741802	0.002513	-0.002232	0.007497	0.999999	-0.000382	-0.001402	0.000383	1.000000	0.000606	0.001402	-0.000606	0.999999
54552	0.193544	0.048810	9.698966	0.000008	-0.003810	0.005093	0.999999	-0.000401	-0.001383	0.000402	1.000000	0.000586	0.001383	-0.000586	0.999999
54553	0.217166	0.041877	9.699204	0.002794	-0.001299	0.008694	0.999999	-0.000388	-0.001391	0.000389	1.000000	0.000594	0.001391	-0.000595	0.999999
54554	0.187211	0.026261	9.693983	0.002167	-0.004351	0.007274	0.999999	-0.000384	-0.001366	0.000385	1.000000	0.000595	0.001366	-0.000596	0.999999
54555	0.165751	0.038341	9.669832	0.005021	-0.000654	0.009902	0.999999	-0.000356	-0.001380	0.000357	1.000000	0.000624	0.001380	-0.000625	0.999999
54556	0.192830	0.045044	9.722844	0.000288	-0.002877	0.006290	0.999999	-0.000363	-0.001370	0.000363	1.000000	0.000607	0.001370	-0.000607	0.999999
54557	0.187821	0.026963	9.693969	0.002583	-0.001046	0.006523	0.999999	-0.000364	-0.001379	0.000365	1.000000	0.000610	0.001379	-0.000611	0.999999
54558	0.219813	0.047624	9.675276	0.000636	-0.000759	0.006514	0.999999	-0.000368	-0.001391	0.000369	1.000000	0.000596	0.001391	-0.000597	0.999999
54559	0.171515	0.057219	9.698689	0.002796	-0.001299	0.008695	0.999999	-0.000351	-0.001396	0.000352	1.000000	0.000603	0.001396	-0.000603	0.999999
54560	0.188140	0.027513	9.693961	0.002796	-0.001299	0.008695	0.999999	-0.000333	-0.001402	0.000334	1.000000	0.000610	0.001402	-0.000610	0.999999
54561	0.216935	0.038882	9.723067	0.002236	-0.003165	0.006300	0.999999	-0.000341	-0.001390	0.000341	1.000000	0.000613	0.001389	-0.000613	0.999999
54562	0.170365	0.053258	9.722578	0.002864	-0.000114	0.007721	0.999999	-0.000332	-0.001407	0.000333	1.000000	0.000620	0.001407	-0.000621	0.999999
54563	0.212104	0.021134	9.694190	0.002168	-0.004351	0.007275	0.999999	-0.000328	-0.001384	0.000329	1.000000	0.000620	0.001384	-0.000621	0.999999
54564	0.190651	0.032926	9.670040	-0.001097	-0.000723	0.008675	0.999999	-0.000311	-0.001396	0.000312	1.000000	0.000588	0.001396	-0.000589	0.999999
54565	0.192685	0.041824	9.746709	0.002517	-0.002233	0.007498	0.999999	-0.000305	-0.001390	0.000306	1.000000	0.000592	0.001390	-0.000592	0.999999
54566	0.189396	0.028514	9.693934	0.002237	-0.003166	0.006301	0.999999	-0.000311	-0.001378	0.000312	1.000000	0.000594	0.001377	-0.000594	0.999999
54567	0.198240	0.056198	9.674987	0.000290	-0.002877	0.006291	0.999999	-0.000315	-0.001367	0.000316	1.000000	0.000573	0.001367	-0.000574	0.999999
54568	0.171787	0.054031	9.722549	0.002305	-0.001980	0.005327	0.999999	-0.000331	-0.001367	0.000332	1.000000	0.000576	0.001367	-0.000576	0.999999
54569	0.213450	0.021805	9.694159	0.001065	-0.001264	0.010857	0.999999	-0.000291	-0.001373	0.000292	1.000000	0.000564	0.001373	-0.000565	0.999999
54570	0.172085	0.054228	9.722542	0.000145	-0.001439	0.003146	0.999999	-0.000329	-0.001378	0.000330	1.000000	0.000546	0.001378	-0.000546	0.999999
54571	0.190324	0.029171	9.693914	0.005027	-0.000656	0.009902	0.999999	-0.000296	-0.001391	0.000297	1.000000	0.000573	0.001391	-0.000574	0.999999
54572	0.172250	0.054721	9.722537	0.000426	-0.000506	0.004343	0.999999	-0.000322	-0.001405	0.000323	1.000000	0.000557	0.001405	-0.000558	0.999999
54573	0.195735	0.047756	9.722773	0.002306	-0.001980	0.005327	0.999999	-0.000339	-0.001407	0.000340	1.000000	0.000559	0.001407	-0.000560	0.999999
54574	0.190652	0.029771	9.693906	0.002587	-0.001047	0.006524	0.999999	-0.000343	-0.001416	0.000344	1.000000	0.000565	0.001416	-0.000565	0.999999
54575	0.212393	0.018159	9.718047	0.000921	0.000174	0.007711	0.999999	-0.000337	-0.001436	0.000338	1.000000	0.000553	0.001436	-0.000554	0.999999
54576	0.172733	0.055381	9.722524	0.002452	-0.003419	0.008473	0.999999	-0.000322	-0.001421	0.000322	1.000000	0.000557	0.001421	-0.000557	0.999999
54577	0.191178	0.030289	9.693894	0.002239	-0.003166	0.006301	0.999999	-0.000326	-0.001406	0.000327	1.000000	0.000559	0.001406	-0.000560	0.999999
54578	0.223150	0.050997	9.675182	0.003005	0.002257	0.005773	0.999999	-0.000337	-0.001448	0.000338	1.000000	0.000569	0.001448	-0.000569	0.999999
54579	0.191301	0.030667	9.693890	0.000010	-0.003810	0.005095	0.999999	-0.000355	-0.001431	0.000355	1.000000	0.000548	0.001431	-0.000548	0.999999
54580	0.200295	0.058424	9.674932	0.004332	-0.004894	0.009457	0.999999	-0.000329	-0.001401	0.000329	1.000000	0.000570	0.001401	-0.000570	0.999999
54581	0.197306	0.049384	9.722733	0.002307	-0.001981	0.005327	0.999999	-0.000347	-0.001402	0.000348	1.000000	0.000573	0.001402	-0.000573	0.999999
54582	0.183622	0.003745	9.712821	0.000642	-0.000758	0.006515	0.999999	-0.000351	-0.001414	0.000352	1.000000	0.000559	0.001414	-0.000559	0.999999
54583	0.175897	0.061433	9.698585	0.002521	-0.002234	0.007499	0.999999	-0.000352	-0.001412	0.000352	1.000000	0.000565	0.001411	-0.000566	0.999999
54584	0.192560	0.031587	9.693862	0.000788	-0.002197	0.009661	0.999999	-0.000324	-0.001409	0.000325	1.000000	0.000552	0.001408	-0.000553	0.999999
54585	0.228256	0.065732	9.727904	0.002804	-0.001301	0.008696	0.999999	-0.000309	-0.001415	0.000310	1.000000	0.000561	0.001414	-0.000561	0.999999
54586	0.174795	0.057388	9.722476	0.004041	-0.002018	0.003165	0.999999	-0.000346	-0.001414	0.000347	1.000000	0.000581	0.001413	-0.000582	0.999999
54587	0.211186	0.006951	9.665228	0.000575	-0.001944	0.007489	0.999999	-0.000341	-0.001414	0.000342	1.000000	0.000566	0.001414	-0.000567	0.999999
54588	0.198539	0.050619	9.722701	0.002308	-0.001981	0.005327	0.999999	-0.000357	-0.001413	0.000358	1.000000	0.000569	0.001413	-0.000570	0.999999
54589	0.177041	0.062529	9.698557	0.000575	-0.001944	0.007489	0.999999	-0.000352	-0.001412	0.000353	1.000000	0.000554	0.001412	-0.000554	0.999999
54590	0.193619	0.032585	9.693838	0.000858	-0.001011	0.008686	0.999999	-0.000334	-0.001421	0.000335	1.000000	0.000542	0.001421	-0.000542	0.999999
54591	0.170472	0.039839	9.693600	0.002241	-0.003167	0.006302	0.999999	-0.000341	-0.001412	0.000342	1.000000	0.000543	0.001412	-0.000544	0.999999
54592	0.201074	0.055902	9.698774	0.004188	-0.003457	0.006311	0.999999	-0.000346	-0.001397	0.000347	1.000000	0.000564	0.001396	-0.000565	0.999999
54593	0.192691	0.028490	9.717728	-0.001088	-0.000721	0.008677	0.999999	-0.000332	-0.001409	0.000332	1.000000	0.000533	0.001409	-0.000533	0.999999
54594	0.192707	0.028458	9.717727	0.000712	0.000427	0.005540	0.999999	-0.000345	-0.001433	0.000346	1.000000	0.000520	0.001433	-0.000520	0.999999
54595	0.194589	0.033440	9.693815	0.006069	-0.004933	0.007296	0.999999	-0.000348	-0.001403	0.000349	1.000000	0.000563	0.001403	-0.000563	0.999999
54596	0.174783	0.050297	9.645764	0.002445	0.000390	0.003378	0.999999	-0.000383	-0.001426	0.000384	1.000000	0.000567	0.001426	-0.000568	0.999999
54597	0.198573	0.047622	9.746565	0.002457	-0.003420	0.008474	0.999999	-0.000370	-0.001412	0.000371	1.000000	0.000571	0.001411	-0.000571	0.999999
54598	0.198793	0.047766	9.746559	0.000860	-0.001011	0.008687	0.999999	-0.000353	-0.001421	0.000354	1.000000	0.000558	0.001420	-0.000559	0.999999
54599	0.196986	0.039015	9.669890	0.002310	-0.001982	0.005328	0.999999	-0.000373	-0.001424	0.000374	1.000000	0.000563	0.001424	-0.000563	0.999999
54600	0.192140	0.025247	9.741608	0.002378	-0.000796	0.004353	0.999999	-0.000398	-0.001435	0.000399	1.000000	0.000566	0.001435	-0.000567	0.999999
54601	0.200963	0.053104	9.722638	0.004405	-0.003711	0.008484	0.999999	-0.000387	-0.001418	0.000388	1.000000	0.000591	0.001418	-0.000592	0.999999
54602	0.197474	0.039507	9.669878	-0.004913	0.001048	0.007684	0.999999	-0.000381	-0.001447	0.000381	1.000000	0.000521	0.001447	-0.000522	0.999999
54603	0.170971	0.037261	9.717460	0.003907	-0.004391	0.005115	0.999999	-0.000400	-0.001423	0.000400	1.000000	0.000538	0.001423	-0.000538	0.999999
54604	0.196257	0.035097	9.693776	0.002810	-0.001302	0.008696	0.999999	-0.000381	-0.001429	0.000382	1.000000	0.000545	0.001429	-0.000545	0.999999
54605	0.201705	0.053463	9.722621	0.000579	-0.001943	0.007490	0.999999	-0.000380	-0.001431	0.000381	1.000000	0.000532	0.001431	-0.000533	0.999999
54606	0.171605	0.037856	9.717447	0.002311	-0.001982	0.005328	0.999999	-0.000396	-0.001430	0.000396	1.000000	0.000535	0.001430	-0.000535	0.999999
54607	0.188102	0.008077	9.712733	0.002878	-0.000116	0.007722	0.999999	-0.000384	-0.001447	0.000385	1.000000	0.000541	0.001447	-0.000541	0.999999
54608	0.218413	0.024159	9.717901	0.004610	-0.000155	0.005559	0.999999	-0.000397	-0.001465	0.000398	1.000000	0.000566	0.001464	-0.000567	0.999999
54609	0.157158	0.073364	9.698240	0.000512	-0.003129	0.008465	0.999999	-0.000379	-0.001454	0.000380	1.000000	0.000549	0.001454	-0.000550	0.999999
54610	0.218913	0.024404	9.717889	0.000013	-0.003809	0.005097	0.999999	-0.000398	-0.001435	0.000398	1.000000	0.000529	0.001435	-0.000530	0.999999
54611	0.192122	0.018031	9.664902	0.001148	-0.000078	0.009884	0.999999	-0.000372	-0.001452	0.000373	1.000000	0.000520	0.001452	-0.000521	0.999999
54612	0.202869	0.054608	9.722590	0.002028	-0.002915	0.004131	0.999999	-0.000400	-0.001442	0.000400	1.000000	0.000521	0.001442	-0.000521	0.999999
54613	0.217843	0.020136	9.741783	0.002528	-0.002235	0.007500	0.999999	-0.000395	-0.001441	0.000396	1.000000	0.000526	0.001441	-0.000526	0.999999
54614	0.174685	0.043975	9.693507	0.002312	-0.001982	0.005328	0.999999	-0.000411	-0.001441	0.000412	1.000000	0.000528	0.001440	-0.000529	0.999999
54615	0.198188	0.037055	9.693729	0.002813	-0.001302	0.008697	0.999999	-0.000396	-0.001447	0.000397	1.000000	0.000539	0.001447	-0.000539	0.999999
54616	0.198318	0.037311	9.693726	0.002813	-0.001302	0.008697	0.999999	-0.000378	-0.001453	0.000379	1.000000	0.000546	0.001453	-0.000546	0.999999
54617	0.196852	0.032786	9.717631	0.000081	-0.002623	0.004122	0.999999	-0.000410	-0.001447	0.000411	1.000000	0.000527	0.001447	-0.000528	0.999999
54618	0.218696	0.021296	9.741762	0.006777	-0.000701	0.007740	0.999999	-0.000401	-0.001459	0.000402	1.000000	0.000574	0.001459	-0.000575	0.999999
54619	0.175466	0.045263	9.693487	0.000582	-0.001943	0.007491	0.999999	-0.000398	-0.001461	0.000399	1.000000	0.000561	0.001461	-0.000561	0.999999
54620	0.213702	0.003457	9.712912	0.000583	-0.001943	0.007491	0.999999	-0.000393	-0.001460	0.000393	1.000000	0.000546	0.001460	-0.000546	0.999999
54621	0.199246	0.038266	9.693703	0.002246	-0.003168	0.006303	0.999999	-0.000399	-0.001447	0.000400	1.000000	0.000548	0.001446	-0.000549	0.999999
54622	0.199421	0.038509	9.693698	0.003100	-0.000370	0.009894	0.999999	-0.000369	-0.001462	0.000369	1.000000	0.000558	0.001462	-0.000558	0.999999
54623	0.169235	0.023064	9.688540	0.002531	-0.002235	0.007500	0.999999	-0.000363	-0.001459	0.000364	1.000000	0.000562	0.001459	-0.000563	0.999999
54624	0.181744	0.064380	9.722305	0.002314	-0.001983	0.005328	0.999999	-0.000379	-0.001459	0.000380	1.000000	0.000565	0.001458	-0.000566	0.999999
54625	0.198323	0.034360	9.717595	-0.001648	-0.002583	0.006285	0.999999	-0.000387	-0.001454	0.000387	1.000000	0.000529	0.001454	-0.000530	0.999999
54626	0.193365	0.016339	9.688748	0.006075	-0.004939	0.007297	0.999999	-0.000382	-0.001423	0.000383	1.000000	0.000569	0.001423	-0.000570	0.999999
54627	0.175603	0.042071	9.717358	0.001154	-0.000077	0.009885	0.999999	-0.000355	-0.001447	0.000356	1.000000	0.000561	0.001447	-0.000561	0.999999
54628	0.199086	0.035036	9.717577	0.002030	-0.002916	0.004132	0.999999	-0.000383	-0.001437	0.000383	1.000000	0.000561	0.001437	-0.000561	0.999999
54629	0.177647	0.046975	9.693439	0.000585	-0.001943	0.007492	0.999999	-0.000377	-0.001438	0.000378	1.000000	0.000546	0.001438	-0.000547	0.999999
54630	0.201289	0.039915	9.693654	0.002180	-0.004354	0.007279	0.999999	-0.000373	-0.001414	0.000374	1.000000	0.000547	0.001414	-0.000548	0.999999
54631	0.194618	0.017262	9.688722	0.002533	-0.002236	0.007501	0.999999	-0.000365	-0.001412	0.000365	1.000000	0.000550	0.001412	-0.000551	0.999999
54632	0.208811	0.063131	9.698566	0.000586	-0.001943	0.007492	0.999999	-0.000359	-0.001411	0.000360	1.000000	0.000536	0.001411	-0.000536	0.999999
54633	0.193299	0.012802	9.712626	0.000654	-0.000758	0.006516	0.999999	-0.000367	-0.001426	0.000368	1.000000	0.000524	0.001426	-0.000524	0.999999
54634	0.209082	0.063222	9.698560	0.000586	-0.001943	0.007492	0.999999	-0.000361	-0.001425	0.000362	1.000000	0.000509	0.001425	-0.000510	0.999999
54635	0.193534	0.013089	9.712621	0.004617	-0.000159	0.005559	0.999999	-0.000377	-0.001445	0.000378	1.000000	0.000536	0.001445	-0.000537	0.999999
54636	0.179004	0.048223	9.693408	0.004700	-0.002782	0.009682	0.999999	-0.000349	-0.001436	0.000350	1.000000	0.000562	0.001436	-0.000562	0.999999
54637	0.193865	0.013866	9.712613	0.002602	-0.001051	0.006526	0.999999	-0.000357	-0.001445	0.000358	1.000000	0.000570	0.001445	-0.000570	0.999999
54638	0.184648	0.067028	9.722232	0.002602	-0.001051	0.006526	0.999999	-0.000360	-0.001454	0.000361	1.000000	0.000575	0.001453	-0.000576	0.999999
54639	0.194083	0.014354	9.712608	0.002821	-0.001303	0.008698	0.999999	-0.000343	-0.001461	0.000344	1.000000	0.000582	0.001460	-0.000582	0.999999
54640	0.201236	0.037273	9.717525	-0.001360	-0.001649	0.007483	0.999999	-0.000338	-0.001463	0.000339	1.000000	0.000547	0.001463	-0.000548	0.999999
54641	0.185184	0.067554	9.722218	0.006145	-0.003757	0.006322	0.999999	-0.000345	-0.001444	0.000346	1.000000	0.000589	0.001443	-0.000590	0.999999
54642	0.197962	0.024137	9.664771	-0.001006	0.000469	0.007705	0.999999	-0.000337	-0.001467	0.000338	1.000000	0.000558	0.001467	-0.000559	0.999999
54643	0.203512	0.042491	9.693597	0.003912	-0.004396	0.005117	0.999999	-0.000356	-0.001444	0.000357	1.000000	0.000578	0.001444	-0.000579	0.999999
54644	0.178809	0.045287	9.717285	0.001094	-0.001262	0.010862	0.999999	-0.000317	-0.001451	0.000317	1.000000	0.000568	0.001450	-0.000568	0.999999
54645	0.195293	0.015465	9.712582	0.004266	-0.002278	0.005338	0.999999	-0.000330	-0.001447	0.000331	1.000000	0.000590	0.001447	-0.000591	0.999999
54646	0.200863	0.033915	9.741406	0.000589	-0.001942	0.007493	0.999999	-0.000324	-0.001447	0.000325	1.000000	0.000575	0.001447	-0.000576	0.999999
54647	0.172378	0.023035	9.712356	0.002537	-0.002237	0.007502	0.999999	-0.000318	-0.001445	0.000319	1.000000	0.000580	0.001444	-0.000580	0.999999
54648	0.204587	0.043627	9.693569	0.004047	-0.002026	0.003166	0.999999	-0.000355	-0.001444	0.000356	1.000000	0.000601	0.001443	-0.000601	0.999999
54649	0.172748	0.023583	9.712349	0.001095	-0.001262	0.010862	0.999999	-0.000316	-0.001451	0.000316	1.000000	0.000591	0.001451	-0.000591	0.999999
54650	0.178250	0.041774	9.741173	-0.001577	-0.001396	0.005312	0.999999	-0.000332	-0.001456	0.000333	1.000000	0.000555	0.001456	-0.000555	0.999999
54651	0.173071	0.023676	9.712343	0.004486	-0.002531	0.007511	0.999999	-0.000327	-0.001449	0.000328	1.000000	0.000578	0.001449	-0.000578	0.999999
54652	0.185752	0.064992	9.746075	0.000523	-0.003127	0.008469	0.999999	-0.000312	-0.001437	0.000313	1.000000	0.000562	0.001437	-0.000562	0.999999
54653	0.203935	0.039575	9.717459	0.000371	-0.001690	0.005321	0.999999	-0.000500	-0.001377	0.000501	1.000000	0.000687	0.001377	-0.000688	0.999999
54654	0.175429	0.028697	9.688415	0.002539	-0.002237	0.007502	0.999999	-0.000494	-0.001374	0.000495	1.000000	0.000692	0.001374	-0.000692	0.999999
54655	0.204291	0.039939	9.717450	0.002607	-0.001052	0.006526	0.999999	-0.000501	-0.001382	0.000502	1.000000	0.000699	0.001381	-0.000699	0.999999
54656	0.174129	0.024435	9.712322	0.000304	-0.002875	0.006297	0.999999	-0.000508	-0.001372	0.000509	1.000000	0.000682	0.001372	-0.000682	0.999999
54657	0.210194	0.058597	9.746261	0.006148	-0.003760	0.006323	0.999999	-0.000513	-0.001353	0.000514	1.000000	0.000723	0.001353	-0.000723	0.999999
54658	0.204972	0.040604	9.717433	-0.001001	0.000470	0.007705	0.999999	-0.000506	-0.001377	0.000507	1.000000	0.000692	0.001376	-0.000693	0.999999
54659	0.176486	0.029835	9.688392	0.006081	-0.004945	0.007299	0.999999	-0.000505	-0.001345	0.000506	1.000000	0.000732	0.001344	-0.000733	0.999999
54660	0.203822	0.036610	9.741335	0.002388	-0.000800	0.004354	0.999999	-0.000530	-0.001356	0.000531	1.000000	0.000736	0.001356	-0.000737	0.999999
54661	0.153597	0.037694	9.688170	0.002541	-0.002237	0.007502	0.999999	-0.000525	-0.001355	0.000526	1.000000	0.000741	0.001355	-0.000742	0.999999
54662	0.180701	0.044230	9.741117	0.001015	0.001361	0.006738	0.999999	-0.000527	-0.001388	0.000528	1.000000	0.000731	0.001388	-0.000732	0.999999
54663	0.205703	0.041770	9.717413	0.002321	-0.001985	0.005330	0.999999	-0.000546	-0.001386	0.000547	1.000000	0.000736	0.001386	-0.000737	0.999999
54664	0.170193	0.008045	9.683471	0.000526	-0.003127	0.008470	0.999999	-0.000530	-0.001374	0.000531	1.000000	0.000720	0.001373	-0.000721	0.999999
54665	0.197499	0.014753	9.736412	0.006725	-0.001895	0.008716	0.999999	-0.000509	-0.001374	0.000510	1.000000	0.000765	0.001374	-0.000766	0.999999
54666	0.206482	0.042542	9.717393	0.000018	-0.003807	0.005101	0.999999	-0.000527	-0.001355	0.000528	1.000000	0.000745	0.001355	-0.000746	0.999999
54667	0.206764	0.042559	9.717387	0.000594	-0.001942	0.007494	0.999999	-0.000523	-0.001355	0.000524	1.000000	0.000730	0.001355	-0.000730	0.999999
54668	0.179889	0.036318	9.664438	0.002322	-0.001985	0.005330	0.999999	-0.000539	-0.001355	0.000540	1.000000	0.000733	0.001354	-0.000734	0.999999
54669	0.207196	0.042803	9.717377	0.000307	-0.002875	0.006298	0.999999	-0.000556	-0.001343	0.000557	1.000000	0.000719	0.001343	-0.000720	0.999999
54670	0.171641	0.008985	9.683444	0.000374	-0.001690	0.005321	0.999999	-0.000572	-0.001345	0.000573	1.000000	0.000703	0.001345	-0.000704	0.999999
54671	0.205906	0.038338	9.741284	0.002610	-0.001053	0.006526	0.999999	-0.000579	-0.001351	0.000580	1.000000	0.000711	0.001351	-0.000711	0.999999
54672	0.184320	0.050256	9.717158	-0.001285	-0.000461	0.006509	0.999999	-0.000583	-0.001366	0.000584	1.000000	0.000677	0.001365	-0.000678	0.999999
54673	0.177466	0.027630	9.712253	0.006151	-0.003762	0.006323	0.999999	-0.000583	-0.001347	0.000584	1.000000	0.000717	0.001347	-0.000718	0.999999
54674	0.231405	0.036190	9.717563	-0.001573	-0.001394	0.005313	0.999999	-0.000600	-0.001353	0.000601	1.000000	0.000682	0.001352	-0.000682	0.999999
54675	0.185066	0.050796	9.717141	0.003915	-0.004399	0.005118	0.999999	-0.000620	-0.001329	0.000621	1.000000	0.000702	0.001329	-0.000703	0.999999
54676	0.203239	0.025624	9.688526	0.002833	-0.001305	0.008699	0.999999	-0.000602	-0.001335	0.000603	1.000000	0.000710	0.001335	-0.000710	0.999999
54677	0.187202	0.055866	9.693212	0.000308	-0.002874	0.006298	0.999999	-0.000609	-0.001326	0.000610	1.000000	0.000693	0.001326	-0.000694	0.999999
54678	0.210763	0.048734	9.693412	0.002545	-0.002238	0.007503	0.999999	-0.000603	-0.001323	0.000604	1.000000	0.000698	0.001322	-0.000699	0.999999
54679	0.202191	0.021411	9.712430	0.000664	-0.000757	0.006518	0.999999	-0.000609	-0.001336	0.000610	1.000000	0.000685	0.001336	-0.000685	0.999999
54680	0.202324	0.021458	9.712427	0.000597	-0.001942	0.007495	0.999999	-0.000604	-0.001336	0.000605	1.000000	0.000670	0.001335	-0.000671	0.999999
54681	0.157489	0.040644	9.688096	0.000665	-0.000757	0.006518	0.999999	-0.000604	-0.001350	0.000605	1.000000	0.000653	0.001350	-0.000654	0.999999
54682	0.224394	0.009942	9.736540	0.006086	-0.004949	0.007300	0.999999	-0.000599	-0.001319	0.000600	1.000000	0.000694	0.001319	-0.000694	0.999999
54683	0.181296	0.034015	9.688290	0.000732	0.000428	0.005542	0.999999	-0.000611	-0.001343	0.000612	1.000000	0.000681	0.001343	-0.000682	0.999999
54684	0.188512	0.056996	9.693180	0.002257	-0.003171	0.006307	0.999999	-0.000617	-0.001331	0.000618	1.000000	0.000683	0.001330	-0.000684	0.999999
54685	0.203239	0.022498	9.712405	0.002681	0.000131	0.005550	0.999999	-0.000631	-0.001353	0.000631	1.000000	0.000689	0.001352	-0.000690	0.999999
54686	0.187138	0.052738	9.717091	0.000087	-0.002622	0.004126	0.999999	-0.000659	-0.001346	0.000660	1.000000	0.000670	0.001345	-0.000671	0.999999
54687	0.201894	0.018133	9.736317	0.002614	-0.001054	0.006527	0.999999	-0.000662	-0.001354	0.000663	1.000000	0.000675	0.001354	-0.000676	0.999999
54688	0.182061	0.035041	9.688272	0.006221	-0.002580	0.005347	0.999999	-0.000677	-0.001347	0.000678	1.000000	0.000717	0.001347	-0.000718	0.999999
54689	0.186106	0.048881	9.740993	-0.001638	-0.002577	0.006290	0.999999	-0.000684	-0.001344	0.000685	1.000000	0.000678	0.001343	-0.000679	0.999999
54690	0.207426	0.032823	9.664547	0.006800	-0.000715	0.007740	0.999999	-0.000675	-0.001356	0.000676	1.000000	0.000725	0.001355	-0.000726	0.999999
54691	0.186403	0.049465	9.740985	0.000600	-0.001941	0.007495	0.999999	-0.000667	-0.001356	0.000668	1.000000	0.000709	0.001355	-0.000710	0.999999
54692	0.213192	0.051445	9.693345	0.000600	-0.001941	0.007495	0.999999	-0.000662	-0.001356	0.000663	1.000000	0.000694	0.001355	-0.000695	0.999999
54693	0.181355	0.031412	9.712170	0.002548	-0.002239	0.007504	0.999999	-0.000661	-0.001351	0.000662	1.000000	0.000699	0.001351	-0.000700	0.999999
54694	0.188599	0.054398	9.717053	0.000667	-0.000757	0.006519	0.999999	-0.000665	-0.001363	0.000666	1.000000	0.000686	0.001362	-0.000687	0.999999
54695	0.204940	0.024406	9.712365	0.002326	-0.001987	0.005331	0.999999	-0.000682	-0.001363	0.000683	1.000000	0.000689	0.001363	-0.000690	0.999999
54696	0.160102	0.043915	9.688039	0.004854	-0.000419	0.007732	0.999999	-0.000673	-0.001378	0.000674	1.000000	0.000717	0.001378	-0.000718	0.999999
54697	0.206852	0.029487	9.688439	-0.001637	-0.002576	0.006291	0.999999	-0.000682	-0.001372	0.000683	1.000000	0.000681	0.001372	-0.000682	0.999999
54698	0.189344	0.054940	9.717036	0.000467	-0.004311	0.009449	0.999999	-0.000657	-0.001348	0.000658	1.000000	0.000664	0.001347	-0.000665	0.999999
54699	0.196814	0.078110	9.721911	0.006669	-0.003087	0.009693	0.999999	-0.000629	-0.001338	0.000630	1.000000	0.000709	0.001337	-0.000710	0.999999
54700	0.229496	0.018254	9.712535	0.002037	-0.002919	0.004135	0.999999	-0.000657	-0.001328	0.000658	1.000000	0.000709	0.001327	-0.000710	0.999999
54701	0.186338	0.042269	9.664292	0.002908	-0.000122	0.007723	0.999999	-0.000651	-0.001348	0.000652	1.000000	0.000719	0.001348	-0.000720	0.999999
54702	0.183195	0.033211	9.712129	0.000312	-0.002874	0.006300	0.999999	-0.000657	-0.001339	0.000658	1.000000	0.000702	0.001338	-0.000703	0.999999
54703	0.208331	0.030645	9.688403	0.002618	-0.001054	0.006527	0.999999	-0.000667	-0.001347	0.000668	1.000000	0.000710	0.001347	-0.000711	0.999999
54704	0.192307	0.060932	9.693082	0.000826	-0.002193	0.009669	0.999999	-0.000640	-0.001344	0.000641	1.000000	0.000697	0.001344	-0.000698	0.999999
54705	0.175106	0.006399	9.731155	0.006604	-0.004272	0.010670	0.999999	-0.000598	-0.001322	0.000599	1.000000	0.000739	0.001321	-0.000740	0.999999
54706	0.209084	0.031361	9.688385	-0.001568	-0.001391	0.005315	0.999999	-0.000615	-0.001327	0.000616	1.000000	0.000703	0.001326	-0.000704	0.999999
54707	0.191339	0.056956	9.716985	0.002910	-0.000122	0.007724	0.999999	-0.000608	-0.001346	0.000609	1.000000	0.000711	0.001345	-0.000711	0.999999
54708	0.184384	0.034443	9.712102	0.003986	-0.003218	0.004143	0.999999	-0.000635	-0.001333	0.000636	1.000000	0.000731	0.001332	-0.000731	0.999999
54709	0.184636	0.034655	9.712097	0.000604	-0.001941	0.007496	0.999999	-0.000628	-0.001333	0.000628	1.000000	0.000716	0.001333	-0.000717	0.999999
54710	0.193537	0.062136	9.693049	0.000671	-0.000756	0.006519	0.999999	-0.000632	-0.001345	0.000633	1.000000	0.000702	0.001344	-0.000703	0.999999
54711	0.184918	0.034847	9.712091	0.002553	-0.002240	0.007504	0.999999	-0.000626	-0.001343	0.000627	1.000000	0.000707	0.001343	-0.000707	0.999999
54712	0.185224	0.035266	9.712083	0.006383	-0.004021	0.008497	0.999999	-0.000609	-0.001322	0.000610	1.000000	0.000750	0.001322	-0.000750	0.999999
54713	0.187131	0.040377	9.688154	0.004569	-0.001353	0.006536	0.999999	-0.000612	-0.001328	0.000613	1.000000	0.000775	0.001328	-0.000775	0.999999
54714	0.184008	0.031431	9.735994	0.000605	-0.001941	0.007497	0.999999	-0.000607	-0.001328	0.000608	1.000000	0.000760	0.001327	-0.000761	0.999999
54715	0.178709	0.013233	9.707196	0.000606	-0.001941	0.007497	0.999999	-0.000602	-0.001329	0.000603	1.000000	0.000745	0.001329	-0.000746	0.999999
54716	0.194857	0.063611	9.693013	0.002039	-0.002920	0.004135	0.999999	-0.000630	-0.001319	0.000631	1.000000	0.000745	0.001319	-0.000746	0.999999
54717	0.202487	0.006243	9.707381	0.002555	-0.002240	0.007505	0.999999	-0.000629	-0.001316	0.000630	1.000000	0.000753	0.001316	-0.000754	0.999999
54718	0.215220	0.047476	9.741043	0.000965	0.000177	0.007716	0.999999	-0.000621	-0.001337	0.000622	1.000000	0.000743	0.001336	-0.000743	0.999999
54719	0.186686	0.036680	9.712050	0.001905	-0.005290	0.006090	0.999999	-0.000630	-0.001301	0.000631	1.000000	0.000741	0.001300	-0.000742	0.999999
54720	0.163721	0.044222	9.711850	0.002847	-0.001307	0.008701	0.999999	-0.000612	-0.001306	0.000613	1.000000	0.000749	0.001306	-0.000750	0.999999
54721	0.194344	0.059775	9.716908	-0.001633	-0.002574	0.006293	0.999999	-0.000615	-0.001301	0.000616	1.000000	0.000710	0.001301	-0.000711	0.999999
54722	0.189120	0.041760	9.688110	0.006678	-0.003091	0.009694	0.999999	-0.000586	-0.001289	0.000587	1.000000	0.000756	0.001289	-0.000757	0.999999
54723	0.185941	0.032742	9.735953	-0.003155	0.001027	0.005527	0.999999	-0.000601	-0.001319	0.000602	1.000000	0.000705	0.001319	-0.000706	0.999999
54724	0.210942	0.029965	9.712221	0.002781	-0.002492	0.009678	0.999999	-0.000574	-0.001313	0.000574	1.000000	0.000712	0.001313	-0.000713	0.999999
54725	0.187817	0.037449	9.712025	0.000675	-0.000756	0.006520	0.999999	-0.000580	-0.001322	0.000581	1.000000	0.000698	0.001322	-0.000698	0.999999
54726	0.182440	0.019255	9.683232	0.000608	-0.001941	0.007497	0.999999	-0.000574	-0.001322	0.000575	1.000000	0.000683	0.001322	-0.000684	0.999999
54727	0.188143	0.037629	9.712018	0.002332	-0.001988	0.005332	0.999999	-0.000590	-0.001322	0.000591	1.000000	0.000686	0.001322	-0.000687	0.999999
54728	0.182737	0.019713	9.683226	0.004640	-0.000171	0.005558	0.999999	-0.000603	-0.001340	0.000604	1.000000	0.000713	0.001339	-0.000714	0.999999
54729	0.188476	0.038066	9.712010	-0.002217	-0.004439	0.003901	0.999999	-0.000638	-0.001315	0.000639	1.000000	0.000673	0.001315	-0.000673	0.999999
54730	0.190574	0.042828	9.688077	0.006095	-0.004957	0.007302	0.999999	-0.000634	-0.001285	0.000635	1.000000	0.000713	0.001284	-0.000714	0.999999
54731	0.190707	0.043173	9.688073	0.001328	0.002294	0.007935	0.999999	-0.000625	-0.001327	0.000626	1.000000	0.000706	0.001327	-0.000707	0.999999
54732	0.190663	0.043360	9.688073	0.002851	-0.001308	0.008701	0.999999	-0.000607	-0.001333	0.000608	1.000000	0.000714	0.001332	-0.000715	0.999999
54733	0.181977	0.016201	9.707131	0.002625	-0.001056	0.006528	0.999999	-0.000614	-0.001343	0.000615	1.000000	0.000720	0.001342	-0.000721	0.999999
54734	0.196498	0.061987	9.716851	0.000317	-0.002873	0.006302	0.999999	-0.000621	-0.001333	0.000622	1.000000	0.000703	0.001333	-0.000704	0.999999
54735	0.182315	0.016477	9.707124	0.002919	-0.000124	0.007724	0.999999	-0.000616	-0.001352	0.000617	1.000000	0.000712	0.001352	-0.000713	0.999999
54736	0.182358	0.016935	9.707122	0.006816	-0.000724	0.007740	0.999999	-0.000606	-0.001364	0.000607	1.000000	0.000760	0.001364	-0.000761	0.999999
54737	0.191214	0.044587	9.688056	-0.001497	-0.000203	0.004339	0.999999	-0.000635	-0.001381	0.000636	1.000000	0.000725	0.001380	-0.000726	0.999999
54738	0.175358	0.074978	9.692720	0.006097	-0.004959	0.007303	0.999999	-0.000630	-0.001350	0.000631	1.000000	0.000766	0.001350	-0.000766	0.999999
54739	0.206153	0.010274	9.707300	-0.000977	0.000477	0.007709	0.999999	-0.000625	-0.001375	0.000626	1.000000	0.000737	0.001375	-0.000737	0.999999
54740	0.188540	0.035927	9.735892	0.002267	-0.003173	0.006310	0.999999	-0.000631	-0.001362	0.000632	1.000000	0.000739	0.001362	-0.000740	0.999999
54741	0.190432	0.040631	9.711962	0.000612	-0.001940	0.007498	0.999999	-0.000622	-0.001366	0.000623	1.000000	0.000721	0.001366	-0.000722	0.999999
54742	0.183345	0.017955	9.707102	0.002694	0.000128	0.005551	0.999999	-0.000636	-0.001386	0.000637	1.000000	0.000728	0.001386	-0.000729	0.999999
54743	0.176170	0.075782	9.692699	0.002561	-0.002241	0.007506	0.999999	-0.000629	-0.001382	0.000630	1.000000	0.000732	0.001382	-0.000733	0.999999
54744	0.192388	0.045933	9.688027	0.004644	-0.000173	0.005559	0.999999	-0.000642	-0.001400	0.000643	1.000000	0.000758	0.001399	-0.000759	0.999999
54745	0.206977	0.011307	9.707282	-0.001630	-0.002572	0.006295	0.999999	-0.000653	-0.001395	0.000654	1.000000	0.000721	0.001394	-0.000722	0.999999
54746	0.192801	0.046297	9.688017	0.006685	-0.003095	0.009695	0.999999	-0.000624	-0.001382	0.000625	1.000000	0.000767	0.001382	-0.000768	0.999999
54747	0.214542	0.034599	9.712127	-0.001428	0.000982	0.003362	0.999999	-0.000661	-0.001412	0.000662	1.000000	0.000733	0.001411	-0.000733	0.999999
54748	0.162492	0.030952	9.682972	-0.001109	-0.001891	0.009665	0.999999	-0.000634	-0.001412	0.000635	1.000000	0.000700	0.001411	-0.000701	0.999999
54749	0.214837	0.034501	9.712121	0.002268	-0.003174	0.006310	0.999999	-0.000637	-0.001400	0.000638	1.000000	0.000702	0.001400	-0.000702	0.999999
54750	0.207854	0.011904	9.707262	0.002629	-0.001057	0.006529	0.999999	-0.000641	-0.001409	0.000642	1.000000	0.000708	0.001408	-0.000708	0.999999
54751	0.191922	0.042328	9.711925	0.002336	-0.001990	0.005333	0.999999	-0.000662	-0.001410	0.000663	1.000000	0.000712	0.001409	-0.000713	0.999999
54752	0.193801	0.047101	9.687993	0.002042	-0.002922	0.004137	0.999999	-0.000690	-0.001400	0.000691	1.000000	0.000712	0.001399	-0.000713	0.999999
54753	0.186815	0.024506	9.683137	0.002857	-0.001309	0.008702	0.999999	-0.000671	-0.001405	0.000672	1.000000	0.000719	0.001405	-0.000720	0.999999
54754	0.190777	0.038349	9.735839	0.000748	0.000429	0.005543	0.999999	-0.000685	-0.001429	0.000686	1.000000	0.000706	0.001428	-0.000707	0.999999
54755	0.219132	0.044703	9.664241	0.000026	-0.003805	0.005107	0.999999	-0.000704	-0.001411	0.000705	1.000000	0.000686	0.001411	-0.000687	0.999999
54756	0.194487	0.047735	9.687976	0.004807	-0.001611	0.008710	0.999999	-0.000685	-0.001414	0.000686	1.000000	0.000713	0.001413	-0.000714	0.999999
54757	0.220219	0.049715	9.764785	0.000615	-0.001940	0.007499	0.999999	-0.000680	-0.001414	0.000681	1.000000	0.000698	0.001414	-0.000699	0.999999
54758	0.164294	0.032706	9.682936	0.002925	-0.000125	0.007725	0.999999	-0.000671	-0.001432	0.000672	1.000000	0.000707	0.001431	-0.000708	0.999999
54759	0.239830	0.029037	9.712259	0.002270	-0.003174	0.006311	0.999999	-0.000678	-0.001420	0.000679	1.000000	0.000710	0.001420	-0.000711	0.999999
54760	0.189685	0.030341	9.659182	0.002498	-0.003426	0.008485	0.999999	-0.000663	-0.001405	0.000664	1.000000	0.000715	0.001404	-0.000716	0.999999
54761	0.182683	0.007749	9.654331	0.002404	-0.000806	0.004355	0.999999	-0.000686	-0.001420	0.000687	1.000000	0.000718	0.001420	-0.000719	0.999999
54762	0.201079	0.067231	9.716723	0.001206	-0.000075	0.009891	0.999999	-0.000656	-0.001438	0.000657	1.000000	0.000709	0.001438	-0.000710	0.999999
54763	0.188487	0.026208	9.683100	0.000027	-0.003805	0.005108	0.999999	-0.000678	-0.001422	0.000679	1.000000	0.000691	0.001421	-0.000692	0.999999
54764	0.192690	0.040118	9.735795	0.004809	-0.001612	0.008710	0.999999	-0.000660	-0.001425	0.000661	1.000000	0.000718	0.001424	-0.000719	0.999999
54765	0.188881	0.026690	9.683091	0.000912	-0.001007	0.008695	0.999999	-0.000642	-0.001437	0.000643	1.000000	0.000706	0.001437	-0.000707	0.999999
54766	0.194620	0.045095	9.711859	0.002566	-0.002242	0.007507	0.999999	-0.000636	-0.001434	0.000637	1.000000	0.000711	0.001433	-0.000712	0.999999
54767	0.187622	0.022516	9.707011	0.002566	-0.002242	0.007507	0.999999	-0.000632	-0.001429	0.000633	1.000000	0.000717	0.001428	-0.000718	0.999999
54768	0.193470	0.040991	9.735775	0.002271	-0.003175	0.006311	0.999999	-0.000638	-0.001416	0.000639	1.000000	0.000719	0.001416	-0.000720	0.999999
54769	0.195303	0.045768	9.711842	0.002405	-0.000806	0.004355	0.999999	-0.000665	-0.001427	0.000666	1.000000	0.000724	0.001426	-0.000725	0.999999
54770	0.168051	0.039836	9.658962	0.005240	0.001689	0.007950	0.999999	-0.000654	-0.001463	0.000655	0.999999	0.000756	0.001462	-0.000757	0.999999
54771	0.172106	0.053777	9.711657	0.000028	-0.003805	0.005108	0.999999	-0.000675	-0.001446	0.000676	1.000000	0.000735	0.001445	-0.000736	0.999999
54772	0.188395	0.023771	9.706993	0.004583	-0.001361	0.006537	0.999999	-0.000678	-0.001451	0.000679	0.999999	0.000761	0.001451	-0.000762	0.999999
54773	0.226291	0.062319	9.716845	0.002568	-0.002242	0.007507	0.999999	-0.000670	-0.001452	0.000671	0.999999	0.000765	0.001452	-0.000766	0.999999
54774	0.213632	0.021488	9.683236	0.002635	-0.001058	0.006529	0.999999	-0.000674	-0.001461	0.000675	0.999999	0.000771	0.001460	-0.000771	0.999999
54775	0.190518	0.029043	9.683052	0.000619	-0.001939	0.007500	0.999999	-0.000669	-0.001458	0.000670	0.999999	0.000756	0.001458	-0.000757	0.999999
54776	0.198001	0.051981	9.687883	0.002273	-0.003175	0.006312	0.999999	-0.000675	-0.001446	0.000676	0.999999	0.000759	0.001445	-0.000760	0.999999
54777	0.189326	0.024833	9.706972	0.002407	-0.000807	0.004355	0.999999	-0.000702	-0.001458	0.000703	0.999999	0.000764	0.001457	-0.000765	0.999999
54778	0.196722	0.047797	9.711804	0.001078	-0.002443	0.011848	0.999999	-0.000653	-0.001452	0.000654	1.000000	0.000754	0.001452	-0.000755	0.999999
54779	0.191312	0.029586	9.683035	0.000162	-0.001436	0.003152	0.999999	-0.000691	-0.001459	0.000692	0.999999	0.000736	0.001458	-0.000737	0.999999
54780	0.197095	0.047964	9.711795	0.002569	-0.002243	0.007508	0.999999	-0.000685	-0.001455	0.000686	0.999999	0.000741	0.001455	-0.000742	0.999999
54781	0.188484	0.020825	9.730885	0.002274	-0.003175	0.006312	0.999999	-0.000695	-0.001442	0.000696	0.999999	0.000746	0.001441	-0.000747	0.999999
54782	0.200971	0.057600	9.663920	0.004452	-0.003731	0.008493	0.999999	-0.000679	-0.001423	0.000680	0.999999	0.000769	0.001423	-0.000770	0.999999
54783	0.192369	0.030471	9.683011	0.000621	-0.001939	0.007501	0.999999	-0.000675	-0.001422	0.000676	0.999999	0.000755	0.001422	-0.000756	0.999999
54784	0.208523	0.000295	9.678353	0.000918	-0.001007	0.008696	0.999999	-0.000658	-0.001431	0.000659	1.000000	0.000743	0.001431	-0.000744	0.999999
54785	0.199968	0.053477	9.687835	0.002274	-0.003176	0.006312	0.999999	-0.000663	-0.001422	0.000664	1.000000	0.000744	0.001421	-0.000745	0.999999
54786	0.191219	0.026256	9.706931	0.000756	0.000429	0.005544	0.999999	-0.000677	-0.001445	0.000678	1.000000	0.000731	0.001444	-0.000732	0.999999
54787	0.216213	0.023616	9.683173	0.004520	-0.002547	0.007515	0.999999	-0.000673	-0.001439	0.000674	0.999999	0.000757	0.001438	-0.000758	0.999999
54788	0.177137	0.061409	9.687647	-0.001786	-0.001132	0.003145	0.999999	-0.000711	-0.001447	0.000712	0.999999	0.000720	0.001446	-0.000721	0.999999
54789	0.190020	0.022007	9.730853	0.000623	-0.001939	0.007501	0.999999	-0.000707	-0.001449	0.000708	1.000000	0.000706	0.001449	-0.000707	0.999999
54790	0.191919	0.026777	9.706916	0.004224	-0.003480	0.006320	0.999999	-0.000712	-0.001433	0.000713	0.999999	0.000728	0.001433	-0.000729	0.999999
54791	0.222697	0.042452	9.711912	0.002342	-0.001992	0.005334	0.999999	-0.000729	-0.001434	0.000730	0.999999	0.000732	0.001434	-0.000733	0.999999
54792	0.169011	0.034663	9.706733	0.000757	0.000429	0.005544	0.999999	-0.000743	-0.001458	0.000744	0.999999	0.000719	0.001457	-0.000720	0.999999
54793	0.199772	0.050071	9.711730	0.000423	-0.005492	0.010437	0.999999	-0.000707	-0.001422	0.000708	1.000000	0.000701	0.001422	-0.000702	0.999999
54794	0.200024	0.050198	9.711724	0.002476	0.000376	0.003377	0.999999	-0.000742	-0.001445	0.000743	0.999999	0.000706	0.001445	-0.000707	0.999999
54795	0.172944	0.044040	9.658857	0.000030	-0.003804	0.005110	0.999999	-0.000764	-0.001427	0.000765	0.999999	0.000688	0.001426	-0.000689	0.999999
54796	0.216430	0.020190	9.707061	0.002870	-0.001311	0.008704	0.999999	-0.000746	-0.001433	0.000747	0.999999	0.000696	0.001432	-0.000697	0.999999
54797	0.200607	0.050591	9.711710	0.000624	-0.001939	0.007501	0.999999	-0.000738	-0.001436	0.000739	0.999999	0.000680	0.001435	-0.000681	0.999999
54798	0.177624	0.058261	9.711531	0.004226	-0.003481	0.006320	0.999999	-0.000744	-0.001420	0.000745	0.999999	0.000702	0.001420	-0.000703	0.999999
54799	0.220340	0.029966	9.659181	0.002641	-0.001060	0.006530	0.999999	-0.000748	-0.001429	0.000749	0.999999	0.000709	0.001429	-0.000710	0.999999
54800	0.178115	0.058806	9.711519	0.002210	-0.004360	0.007292	0.999999	-0.000745	-0.001405	0.000746	0.999999	0.000711	0.001404	-0.000712	0.999999
54801	0.215870	0.016800	9.730967	0.003006	0.001057	0.006747	0.999999	-0.000750	-0.001435	0.000751	0.999999	0.000722	0.001435	-0.000723	0.999999
54802	0.194299	0.028956	9.706862	0.000626	-0.001939	0.007502	0.999999	-0.000744	-0.001435	0.000745	0.999999	0.000708	0.001434	-0.000709	0.999999
54803	0.196211	0.033515	9.682924	0.000031	-0.003804	0.005111	0.999999	-0.000763	-0.001418	0.000764	0.999999	0.000687	0.001418	-0.000689	0.999999
54804	0.202211	0.051885	9.711670	0.002509	-0.003428	0.008488	0.999999	-0.000747	-0.001403	0.000748	0.999999	0.000692	0.001402	-0.000693	0.999999
54805	0.196840	0.033855	9.682910	0.002576	-0.002244	0.007509	0.999999	-0.000742	-0.001401	0.000743	0.999999	0.000698	0.001400	-0.000699	0.999999
54806	0.179512	0.059798	9.711487	0.002278	-0.003177	0.006313	0.999999	-0.000748	-0.001388	0.000749	0.999999	0.000700	0.001388	-0.000701	0.999999
54807	0.174168	0.041662	9.682729	0.000560	-0.003123	0.008481	0.999999	-0.000733	-0.001378	0.000734	0.999999	0.000684	0.001377	-0.000685	0.999999
54808	0.196033	0.029789	9.706825	0.002345	-0.001993	0.005334	0.999999	-0.000749	-0.001377	0.000750	0.999999	0.000688	0.001376	-0.000689	0.999999
54809	0.187279	0.002695	9.725937	0.002875	-0.001312	0.008705	0.999999	-0.000730	-0.001384	0.000731	0.999999	0.000694	0.001384	-0.000695	0.999999
54810	0.182034	0.065069	9.687533	0.002346	-0.001993	0.005335	0.999999	-0.000746	-0.001383	0.000747	0.999999	0.000698	0.001383	-0.000699	0.999999
54811	0.223080	0.032105	9.659111	0.002809	-0.002496	0.009684	0.999999	-0.000721	-0.001375	0.000722	0.999999	0.000706	0.001375	-0.000707	0.999999
54812	0.179206	0.056377	9.735390	0.000397	-0.001687	0.005328	0.999999	-0.000738	-0.001378	0.000739	0.999999	0.000690	0.001377	-0.000691	0.999999
54813	0.189682	0.007981	9.701988	0.002578	-0.002245	0.007509	0.999999	-0.000730	-0.001374	0.000731	0.999999	0.000695	0.001374	-0.000696	0.999999
54814	0.197199	0.031097	9.706797	0.004296	-0.002299	0.005342	0.999999	-0.000745	-0.001371	0.000746	0.999999	0.000718	0.001370	-0.000719	0.999999
54815	0.203031	0.049600	9.735541	0.000928	-0.001006	0.008698	0.999999	-0.000730	-0.001377	0.000731	0.999999	0.000707	0.001376	-0.000708	0.999999
54816	0.197507	0.031396	9.706790	0.000629	-0.001939	0.007503	0.999999	-0.000724	-0.001377	0.000725	0.999999	0.000692	0.001376	-0.000693	0.999999
54817	0.190251	0.008765	9.701976	0.003011	0.001056	0.006747	0.999999	-0.000726	-0.001405	0.000727	0.999999	0.000702	0.001405	-0.000703	0.999999
54818	0.174448	0.039176	9.706620	0.000032	-0.003804	0.005112	0.999999	-0.000745	-0.001386	0.000746	0.999999	0.000682	0.001386	-0.000683	0.999999
54819	0.197908	0.031931	9.706780	0.005126	-0.000686	0.009907	0.999999	-0.000716	-0.001400	0.000717	0.999999	0.000714	0.001400	-0.000715	0.999999
54820	0.198068	0.032085	9.706776	-0.001618	-0.002565	0.006301	0.999999	-0.000723	-0.001394	0.000724	1.000000	0.000677	0.001393	-0.000678	0.999999
54821	0.198144	0.032140	9.706775	0.003012	0.001055	0.006747	0.999999	-0.000723	-0.001426	0.000724	1.000000	0.000686	0.001426	-0.000687	0.999999
54822	0.170902	0.026140	9.653928	0.002347	-0.001993	0.005335	0.999999	-0.000739	-0.001425	0.000740	0.999999	0.000689	0.001425	-0.000690	0.999999
54823	0.198386	0.032605	9.706768	0.002348	-0.001993	0.005335	0.999999	-0.000757	-0.001424	0.000758	0.999999	0.000692	0.001423	-0.000693	0.999999
54824	0.200178	0.037372	9.682829	0.002879	-0.001313	0.008705	0.999999	-0.000739	-0.001430	0.000740	0.999999	0.000700	0.001429	-0.000701	0.999999
54825	0.175444	0.040599	9.706596	0.002880	-0.001313	0.008705	0.999999	-0.000721	-0.001437	0.000722	0.999999	0.000706	0.001436	-0.000707	0.999999
54826	0.198842	0.033347	9.706756	0.002348	-0.001994	0.005335	0.999999	-0.000737	-0.001436	0.000738	0.999999	0.000710	0.001435	-0.000711	0.999999
54827	0.175828	0.041078	9.706587	0.002814	-0.002497	0.009685	0.999999	-0.000709	-0.001430	0.000710	0.999999	0.000717	0.001430	-0.000718	0.999999
54828	0.197685	0.029185	9.730681	0.000100	-0.002619	0.004133	0.999999	-0.000737	-0.001423	0.000738	0.999999	0.000698	0.001423	-0.000699	0.999999
54829	0.199494	0.033833	9.706741	0.002648	-0.001061	0.006531	0.999999	-0.000742	-0.001434	0.000743	0.999999	0.000704	0.001434	-0.000705	0.999999
54830	0.176469	0.041559	9.706574	0.002282	-0.003178	0.006315	0.999999	-0.000748	-0.001421	0.000749	0.999999	0.000706	0.001421	-0.000707	0.999999
54831	0.205652	0.052538	9.735470	0.002349	-0.001994	0.005335	0.999999	-0.000762	-0.001422	0.000763	0.999999	0.000707	0.001421	-0.000708	0.999999
54832	0.169490	0.019221	9.701762	0.002715	0.000122	0.005551	0.999999	-0.000776	-0.001442	0.000777	0.999999	0.000714	0.001441	-0.000715	0.999999
54833	0.200198	0.034738	9.706723	0.002283	-0.003178	0.006315	0.999999	-0.000783	-0.001428	0.000784	0.999999	0.000716	0.001428	-0.000717	0.999999
54834	0.182829	0.060664	9.735297	0.001233	-0.000074	0.009894	0.999999	-0.000753	-0.001447	0.000754	0.999999	0.000707	0.001446	-0.000708	0.999999
54835	0.200459	0.034965	9.706717	0.000634	-0.001938	0.007504	0.999999	-0.000748	-0.001445	0.000749	0.999999	0.000691	0.001445	-0.000692	0.999999
54836	0.200767	0.035089	9.706710	0.002217	-0.004362	0.007294	0.999999	-0.000744	-0.001421	0.000745	0.999999	0.000692	0.001420	-0.000693	0.999999
54837	0.208310	0.058102	9.711506	0.002717	0.000122	0.005552	0.999999	-0.000758	-0.001443	0.000759	0.999999	0.000698	0.001442	-0.000699	0.999999
54838	0.168889	0.015767	9.725679	0.002584	-0.002246	0.007510	0.999999	-0.000752	-0.001439	0.000753	0.999999	0.000703	0.001439	-0.000704	0.999999
54839	0.201244	0.035799	9.706698	0.002650	-0.001062	0.006531	0.999999	-0.000756	-0.001448	0.000757	0.999999	0.000709	0.001448	-0.000710	0.999999
54840	0.178177	0.043470	9.706534	0.000869	-0.002190	0.009679	0.999999	-0.000729	-0.001445	0.000730	0.999999	0.000697	0.001445	-0.000698	0.999999
54841	0.192701	0.008790	9.725827	0.002284	-0.003178	0.006315	0.999999	-0.000735	-0.001434	0.000736	0.999999	0.000697	0.001434	-0.000698	0.999999
54842	0.184321	0.062118	9.735259	0.002952	-0.000130	0.007726	0.999999	-0.000726	-0.001452	0.000727	0.999999	0.000706	0.001452	-0.000707	0.999999
54843	0.201934	0.036489	9.706681	0.000635	-0.001938	0.007504	0.999999	-0.000724	-0.001450	0.000725	0.999999	0.000693	0.001450	-0.000694	0.999999
54844	0.178870	0.044167	9.706518	0.002886	-0.001314	0.008706	0.999999	-0.000706	-0.001456	0.000707	1.000000	0.000701	0.001456	-0.000702	0.999999
54845	0.202258	0.036884	9.706673	0.002351	-0.001995	0.005336	0.999999	-0.000721	-0.001456	0.000722	0.999999	0.000703	0.001456	-0.000704	0.999999
54846	0.196715	0.018738	9.677935	0.000402	-0.001687	0.005329	0.999999	-0.000738	-0.001458	0.000739	0.999999	0.000687	0.001458	-0.000688	0.999999
54847	0.179451	0.044567	9.706506	0.000570	-0.003122	0.008484	0.999999	-0.000725	-0.001448	0.000726	1.000000	0.000673	0.001448	-0.000674	0.999999
54848	0.177916	0.040205	9.730441	0.002786	0.001305	0.004572	0.999999	-0.000748	-0.001480	0.000749	0.999999	0.000681	0.001480	-0.000682	0.999999
54849	0.202766	0.037366	9.706660	0.001172	-0.001258	0.010875	0.999999	-0.000710	-0.001488	0.000711	1.000000	0.000673	0.001488	-0.000674	0.999999
54850	0.181331	0.049565	9.682560	0.002352	-0.001995	0.005336	0.999999	-0.000726	-0.001487	0.000727	1.000000	0.000676	0.001487	-0.000677	0.999999
54851	0.199959	0.028603	9.754527	0.000035	-0.003803	0.005114	0.999999	-0.000746	-0.001469	0.000747	1.000000	0.000657	0.001469	-0.000658	0.999999
54852	0.205202	0.042256	9.682703	0.002755	-0.003682	0.010666	0.999999	-0.000709	-0.001451	0.000710	1.000000	0.000664	0.001451	-0.000665	0.999999
54853	0.180634	0.045514	9.706479	0.002353	-0.001995	0.005336	0.999999	-0.000591	-0.001460	0.000592	1.000000	0.000684	0.001460	-0.000684	0.999999
54854	0.204036	0.038100	9.706631	0.000403	-0.001687	0.005330	0.999999	-0.000607	-0.001462	0.000608	1.000000	0.000668	0.001462	-0.000668	0.999999
54855	0.182663	0.050174	9.682532	0.000337	-0.002871	0.006310	0.999999	-0.000613	-0.001451	0.000614	1.000000	0.000649	0.001451	-0.000650	0.999999
54856	0.206064	0.042756	9.682683	0.002420	-0.000812	0.004356	0.999999	-0.000639	-0.001462	0.000640	1.000000	0.000653	0.001462	-0.000654	0.999999
54857	0.175673	0.027738	9.677734	0.002287	-0.003179	0.006316	0.999999	-0.000645	-0.001454	0.000646	1.000000	0.000655	0.001454	-0.000656	0.999999
54858	0.210544	0.056974	9.735341	0.002957	-0.000131	0.007727	0.999999	-0.000636	-0.001472	0.000637	1.000000	0.000664	0.001471	-0.000665	0.999999
54859	0.181714	0.046598	9.706454	0.004538	-0.002556	0.007518	0.999999	-0.000629	-0.001466	0.000630	1.000000	0.000688	0.001466	-0.000689	0.999999
54860	0.197708	0.016421	9.701817	-0.001244	-0.000445	0.006519	0.999999	-0.000633	-0.001481	0.000634	1.000000	0.000655	0.001480	-0.000656	0.999999
54861	0.205169	0.039262	9.706602	0.002891	-0.001315	0.008707	0.999999	-0.000616	-0.001489	0.000617	1.000000	0.000664	0.001488	-0.000664	0.999999
54862	0.182056	0.046972	9.706446	0.000706	-0.000754	0.006525	0.999999	-0.000620	-0.001500	0.000621	1.000000	0.000650	0.001500	-0.000651	0.999999
54863	0.205376	0.039580	9.706597	0.002892	-0.001315	0.008707	0.999999	-0.000603	-0.001505	0.000604	1.000000	0.000658	0.001504	-0.000659	0.999999
54864	0.174900	0.024614	9.701654	0.002656	-0.001064	0.006532	0.999999	-0.000606	-0.001513	0.000607	1.000000	0.000665	0.001513	-0.000666	0.999999
54865	0.207210	0.044487	9.682651	0.000707	-0.000754	0.006525	0.999999	-0.000611	-0.001525	0.000612	1.000000	0.000652	0.001525	-0.000653	0.999999
54866	0.196715	0.012843	9.725743	0.002355	-0.001996	0.005337	0.999999	-0.000627	-0.001524	0.000628	1.000000	0.000656	0.001524	-0.000657	0.999999
54867	0.186038	0.056790	9.658548	0.000036	-0.003803	0.005115	0.999999	-0.000649	-0.001506	0.000650	1.000000	0.000638	0.001505	-0.000639	0.999999
54868	0.183058	0.048008	9.706422	0.004843	-0.001625	0.008713	0.999999	-0.000630	-0.001508	0.000631	1.000000	0.000666	0.001508	-0.000666	0.999999
54869	0.177428	0.030086	9.677695	0.002658	-0.001064	0.006532	0.999999	-0.000632	-0.001520	0.000633	1.000000	0.000669	0.001519	-0.000670	0.999999
54870	0.212276	0.059313	9.735289	0.002658	-0.001064	0.006532	0.999999	-0.000636	-0.001528	0.000637	1.000000	0.000675	0.001528	-0.000676	0.999999
54871	0.177725	0.030466	9.677688	0.000339	-0.002870	0.006311	0.999999	-0.000643	-0.001519	0.000644	1.000000	0.000658	0.001518	-0.000659	0.999999
54872	0.183789	0.048854	9.706404	0.002289	-0.003180	0.006317	0.999999	-0.000649	-0.001506	0.000650	1.000000	0.000660	0.001506	-0.000661	0.999999
54873	0.173463	0.017295	9.749499	0.002289	-0.003180	0.006317	0.999999	-0.000658	-0.001494	0.000659	1.000000	0.000664	0.001493	-0.000665	0.999999
54874	0.207473	0.041651	9.706543	0.001248	-0.000074	0.009896	0.999999	-0.000628	-0.001512	0.000629	1.000000	0.000656	0.001512	-0.000657	0.999999
54875	0.190229	0.067542	9.735110	0.000037	-0.003802	0.005116	0.999999	-0.000648	-0.001491	0.000649	1.000000	0.000638	0.001491	-0.000639	0.999999
54876	0.198910	0.014653	9.725695	0.004845	-0.001626	0.008713	0.999999	-0.000630	-0.001494	0.000631	1.000000	0.000665	0.001493	-0.000666	0.999999
54877	0.192301	0.072600	9.711155	0.002357	-0.001997	0.005337	0.999999	-0.000644	-0.001492	0.000645	1.000000	0.000668	0.001492	-0.000669	0.999999
54878	0.200858	0.019717	9.701746	0.002660	-0.001064	0.006532	0.999999	-0.000648	-0.001501	0.000649	1.000000	0.000675	0.001500	-0.000676	0.999999
54879	0.179434	0.032031	9.677651	0.002594	-0.002248	0.007512	0.999999	-0.000643	-0.001498	0.000644	1.000000	0.000680	0.001497	-0.000681	0.999999
54880	0.201300	0.020276	9.701736	0.004240	-0.003491	0.006323	0.999999	-0.000649	-0.001482	0.000650	1.000000	0.000702	0.001482	-0.000703	0.999999
54881	0.178325	0.028103	9.701582	0.001185	-0.001257	0.010877	0.999999	-0.000611	-0.001489	0.000612	1.000000	0.000694	0.001489	-0.000695	0.999999
54882	0.201486	0.020713	9.701731	0.003097	0.002235	0.005767	0.999999	-0.000622	-0.001531	0.000623	1.000000	0.000705	0.001530	-0.000706	0.999999
54883	0.178386	0.028542	9.701580	0.002225	-0.004364	0.007298	0.999999	-0.000617	-0.001505	0.000619	1.000000	0.000706	0.001504	-0.000707	0.999999
54884	0.187625	0.055944	9.682406	0.001015	0.000178	0.007721	0.999999	-0.000609	-0.001526	0.000611	1.000000	0.000696	0.001525	-0.000697	0.999999
54885	0.186093	0.051519	9.706346	0.000645	-0.001938	0.007507	0.999999	-0.000607	-0.001526	0.000608	1.000000	0.000684	0.001525	-0.000685	0.999999
54886	0.205360	0.030180	9.653831	0.000342	-0.002870	0.006312	0.999999	-0.000614	-0.001516	0.000615	1.000000	0.000667	0.001516	-0.000668	0.999999
54887	0.184916	0.047207	9.730279	0.002899	-0.001316	0.008708	0.999999	-0.000594	-0.001522	0.000595	1.000000	0.000675	0.001522	-0.000676	0.999999
54888	0.234785	0.041238	9.682682	0.002292	-0.003181	0.006318	0.999999	-0.000600	-0.001509	0.000601	1.000000	0.000677	0.001509	-0.000678	0.999999
54889	0.178029	0.024893	9.725497	0.002292	-0.003181	0.006318	0.999999	-0.000611	-0.001497	0.000612	1.000000	0.000682	0.001496	-0.000683	0.999999
54890	0.185613	0.047815	9.730263	0.001255	-0.000073	0.009897	0.999999	-0.000582	-0.001515	0.000583	1.000000	0.000674	0.001515	-0.000675	0.999999
54891	0.204764	0.026779	9.677750	0.006259	-0.002620	0.005349	0.999999	-0.000599	-0.001510	0.000601	1.000000	0.000717	0.001509	-0.000717	0.999999
54892	0.171848	0.083231	9.710932	-0.001607	-0.002558	0.006306	0.999999	-0.000606	-0.001503	0.000607	1.000000	0.000680	0.001503	-0.000681	0.999999
54893	0.197810	0.004254	9.672971	0.002359	-0.001997	0.005338	0.999999	-0.000624	-0.001504	0.000625	1.000000	0.000685	0.001504	-0.000686	0.999999
54894	0.188114	0.053118	9.706299	0.002531	-0.003432	0.008494	0.999999	-0.000608	-0.001489	0.000610	1.000000	0.000689	0.001488	-0.000690	0.999999
54895	0.180992	0.030482	9.701526	0.000343	-0.002870	0.006312	0.999999	-0.000614	-0.001479	0.000615	1.000000	0.000670	0.001478	-0.000671	0.999999
54896	0.210240	0.041188	9.730375	0.000648	-0.001938	0.007507	0.999999	-0.000608	-0.001479	0.000609	1.000000	0.000656	0.001478	-0.000657	0.999999
54897	0.211993	0.045724	9.706427	0.000715	-0.000754	0.006527	0.999999	-0.000613	-0.001490	0.000614	1.000000	0.000642	0.001490	-0.000643	0.999999
54898	0.190576	0.057973	9.682336	0.002837	-0.002501	0.009689	0.999999	-0.000585	-0.001484	0.000586	1.000000	0.000649	0.001484	-0.000650	0.999999
54899	0.203289	0.018682	9.725598	-0.001539	-0.001375	0.005326	0.999999	-0.000606	-0.001488	0.000607	1.000000	0.000617	0.001488	-0.000618	0.999999
54900	0.212537	0.045973	9.706414	0.002837	-0.002501	0.009689	0.999999	-0.000578	-0.001482	0.000579	1.000000	0.000624	0.001482	-0.000625	0.999999
54901	0.182031	0.031093	9.701504	0.002970	-0.000134	0.007728	0.999999	-0.000571	-0.001500	0.000572	1.000000	0.000634	0.001500	-0.000635	0.999999
54902	0.183768	0.035831	9.677557	0.002599	-0.002250	0.007513	0.999999	-0.000565	-0.001497	0.000566	1.000000	0.000639	0.001496	-0.000640	0.999999
54903	0.182372	0.031673	9.701496	0.004311	-0.002310	0.005344	0.999999	-0.000581	-0.001493	0.000582	1.000000	0.000661	0.001493	-0.000662	0.999999
54904	0.222230	0.074282	9.687212	0.000716	-0.000754	0.006527	0.999999	-0.000585	-0.001505	0.000586	1.000000	0.000648	0.001504	-0.000649	0.999999
54905	0.182713	0.031955	9.701489	0.000584	-0.003121	0.008489	0.999999	-0.000572	-0.001493	0.000573	1.000000	0.000635	0.001493	-0.000636	0.999999
54906	0.181140	0.027641	9.725432	0.003104	0.002233	0.005766	0.999999	-0.000583	-0.001535	0.000584	1.000000	0.000646	0.001534	-0.000647	0.999999
54907	0.190316	0.055124	9.706244	0.002229	-0.004365	0.007300	0.999999	-0.000582	-0.001511	0.000583	1.000000	0.000648	0.001511	-0.000649	0.999999
54908	0.206349	0.024773	9.701619	-0.001299	-0.001625	0.007502	0.999999	-0.000577	-0.001514	0.000578	1.000000	0.000615	0.001513	-0.000616	0.999999
54909	0.189128	0.050730	9.730181	0.002667	-0.001067	0.006533	0.999999	-0.000584	-0.001523	0.000585	1.000000	0.000621	0.001522	-0.000622	0.999999
54910	0.185001	0.037168	9.677528	0.002428	-0.000815	0.004357	0.999999	-0.000610	-0.001534	0.000611	1.000000	0.000626	0.001533	-0.000627	0.999999
54911	0.174457	0.005691	9.720657	0.002601	-0.002250	0.007514	0.999999	-0.000604	-0.001531	0.000605	1.000000	0.000631	0.001530	-0.000632	0.999999
54912	0.212847	0.043889	9.730306	0.004246	-0.003495	0.006325	0.999999	-0.000609	-0.001515	0.000610	1.000000	0.000653	0.001514	-0.000654	0.999999
54913	0.184138	0.033463	9.701457	0.000586	-0.003121	0.008489	0.999999	-0.000595	-0.001501	0.000596	1.000000	0.000639	0.001500	-0.000640	0.999999
54914	0.184274	0.033602	9.701453	0.002495	0.000368	0.003376	0.999999	-0.000630	-0.001524	0.000631	1.000000	0.000644	0.001523	-0.000645	0.999999
54915	0.191844	0.056602	9.706206	0.002842	-0.002501	0.009690	0.999999	-0.000605	-0.001517	0.000606	1.000000	0.000653	0.001517	-0.000654	0.999999
54916	0.207875	0.026336	9.701583	0.000041	-0.003801	0.005119	0.999999	-0.000624	-0.001499	0.000625	1.000000	0.000633	0.001498	-0.000634	0.999999
54917	0.184983	0.034091	9.701438	0.002603	-0.002250	0.007514	0.999999	-0.000619	-0.001496	0.000620	1.000000	0.000639	0.001495	-0.000640	0.999999
54918	0.181902	0.025379	9.749327	0.002430	-0.000816	0.004357	0.999999	-0.000644	-0.001507	0.000645	1.000000	0.000643	0.001506	-0.000644	0.999999
54919	0.208369	0.026933	9.701570	0.002976	-0.000135	0.007728	0.999999	-0.000635	-0.001524	0.000636	1.000000	0.000652	0.001524	-0.000653	0.999999
54920	0.192771	0.057498	9.706182	0.000894	-0.002189	0.009685	0.999999	-0.000608	-0.001521	0.000609	1.000000	0.000640	0.001521	-0.000640	0.999999
54921	0.210362	0.031711	9.677615	0.002298	-0.003183	0.006320	0.999999	-0.000614	-0.001508	0.000615	1.000000	0.000643	0.001507	-0.000644	0.999999
54922	0.176607	0.007890	9.720617	0.002496	0.000367	0.003376	0.999999	-0.000649	-0.001530	0.000650	1.000000	0.000649	0.001530	-0.000650	0.999999
54923	0.185777	0.035253	9.701419	0.000654	-0.001937	0.007509	0.999999	-0.000647	-0.001531	0.000648	1.000000	0.000635	0.001531	-0.000636	0.999999
54924	0.209182	0.027841	9.701550	0.004555	-0.002564	0.007520	0.999999	-0.000640	-0.001525	0.000641	1.000000	0.000660	0.001524	-0.000661	0.999999
54925	0.186277	0.035727	9.701408	0.000589	-0.003120	0.008490	0.999999	-0.000627	-0.001513	0.000628	1.000000	0.000645	0.001512	-0.000646	0.999999
54926	0.186540	0.035867	9.701402	0.002605	-0.002251	0.007515	0.999999	-0.000621	-0.001509	0.000622	1.000000	0.000650	0.001509	-0.000651	0.999999
54927	0.185089	0.031643	9.725346	0.002672	-0.001067	0.006534	0.999999	-0.000624	-0.001518	0.000625	1.000000	0.000656	0.001518	-0.000657	0.999999
54928	0.225067	0.074176	9.711022	0.002299	-0.003183	0.006320	0.999999	-0.000630	-0.001505	0.000631	1.000000	0.000659	0.001505	-0.000660	0.999999
54929	0.190363	0.045508	9.653492	0.002913	-0.001319	0.008710	0.999999	-0.000613	-0.001512	0.000614	1.000000	0.000668	0.001512	-0.000669	0.999999
54930	0.208894	0.024884	9.725465	0.006266	-0.002627	0.005350	0.999999	-0.000628	-0.001505	0.000629	1.000000	0.000710	0.001505	-0.000711	0.999999
54931	0.187436	0.037341	9.701379	0.000789	0.000430	0.005547	0.999999	-0.000644	-0.001530	0.000645	1.000000	0.000698	0.001529	-0.000699	0.999999
54932	0.164347	0.045157	9.701242	0.002607	-0.002251	0.007515	0.999999	-0.000637	-0.001526	0.000638	1.000000	0.000704	0.001526	-0.000705	0.999999
54933	0.212484	0.034533	9.677559	0.002673	-0.001068	0.006534	0.999999	-0.000642	-0.001537	0.000643	1.000000	0.000709	0.001536	-0.000710	0.999999
54934	0.166217	0.050017	9.677288	0.000723	-0.000754	0.006528	0.999999	-0.000646	-0.001548	0.000647	1.000000	0.000696	0.001548	-0.000697	0.999999
54935	0.193858	0.056308	9.730057	0.002300	-0.003183	0.006320	0.999999	-0.000651	-0.001534	0.000653	1.000000	0.000697	0.001533	-0.000698	0.999999
54936	0.205521	0.012285	9.672804	0.002366	-0.002000	0.005339	0.999999	-0.000667	-0.001533	0.000668	1.000000	0.000701	0.001533	-0.000702	0.999999
54937	0.165243	0.046258	9.701222	0.005107	-0.001885	0.010892	0.999999	-0.000629	-0.001532	0.000630	1.000000	0.000732	0.001531	-0.000733	0.999999
54938	0.210144	0.026612	9.725434	-0.001534	-0.001371	0.005328	0.999999	-0.000645	-0.001537	0.000646	1.000000	0.000697	0.001537	-0.000698	0.999999
54939	0.196369	0.061595	9.706085	0.003944	-0.004430	0.005131	0.999999	-0.000664	-0.001514	0.000665	1.000000	0.000716	0.001514	-0.000717	0.999999
54940	0.189143	0.039086	9.701339	0.001208	-0.001256	0.010881	0.999999	-0.000625	-0.001521	0.000626	1.000000	0.000707	0.001520	-0.000708	0.999999
54941	0.208197	0.017737	9.648830	0.002367	-0.002000	0.005339	0.999999	-0.000641	-0.001520	0.000642	1.000000	0.000709	0.001520	-0.000710	0.999999
54942	0.191081	0.043943	9.677382	0.002917	-0.001319	0.008710	0.999999	-0.000623	-0.001526	0.000624	1.000000	0.000717	0.001525	-0.000718	0.999999
54943	0.191242	0.044101	9.677378	0.000659	-0.001937	0.007510	0.999999	-0.000619	-0.001527	0.000620	1.000000	0.000704	0.001526	-0.000705	0.999999
54944	0.195696	0.058260	9.730009	0.006335	-0.001447	0.004369	0.999999	-0.000643	-0.001531	0.000644	1.000000	0.000747	0.001531	-0.000748	0.999999
54945	0.166847	0.047982	9.701186	0.000594	-0.003120	0.008492	0.999999	-0.000628	-0.001520	0.000629	1.000000	0.000732	0.001520	-0.000733	0.999999
54946	0.211801	0.028098	9.725394	-0.001532	-0.001370	0.005329	0.999999	-0.000644	-0.001526	0.000645	1.000000	0.000697	0.001525	-0.000698	0.999999
54947	0.192046	0.044827	9.677358	0.004561	-0.002567	0.007521	0.999999	-0.000640	-0.001520	0.000641	1.000000	0.000723	0.001520	-0.000724	0.999999
54948	0.189101	0.036155	9.725253	0.000594	-0.003120	0.008492	0.999999	-0.000625	-0.001508	0.000626	1.000000	0.000708	0.001508	-0.000709	0.999999
54949	0.191022	0.040734	9.701296	0.002303	-0.003184	0.006321	0.999999	-0.000633	-0.001492	0.000634	1.000000	0.000712	0.001492	-0.000713	0.999999
54950	0.192871	0.045307	9.677340	0.000419	-0.001685	0.005334	0.999999	-0.000649	-0.001495	0.000650	1.000000	0.000696	0.001494	-0.000697	0.999999
54951	0.206981	0.010481	9.696685	0.001036	0.000179	0.007724	0.999999	-0.000639	-0.001517	0.000640	1.000000	0.000684	0.001517	-0.000685	0.999999
54952	0.189786	0.036724	9.725237	0.004628	-0.001384	0.006540	0.999999	-0.000642	-0.001522	0.000643	1.000000	0.000710	0.001522	-0.000711	0.999999
54953	0.216429	0.038354	9.677457	0.004496	-0.003751	0.008503	0.999999	-0.000626	-0.001506	0.000627	1.000000	0.000734	0.001505	-0.000735	0.999999
54954	0.190409	0.037361	9.725223	0.000045	-0.003800	0.005122	0.999999	-0.000644	-0.001487	0.000645	1.000000	0.000714	0.001486	-0.000715	0.999999
54955	0.184563	0.019131	9.696540	0.001412	0.002294	0.007937	0.999999	-0.000639	-0.001531	0.000640	1.000000	0.000712	0.001531	-0.000713	0.999999
54956	0.192243	0.042016	9.701266	0.001929	-0.005299	0.006109	0.999999	-0.000647	-0.001497	0.000648	1.000000	0.000711	0.001497	-0.000712	0.999999
54957	0.208199	0.011798	9.696657	0.002922	-0.001320	0.008711	0.999999	-0.000630	-0.001503	0.000631	1.000000	0.000720	0.001502	-0.000721	0.999999
54958	0.215910	0.034784	9.701380	0.002613	-0.002252	0.007516	0.999999	-0.000623	-0.001499	0.000625	1.000000	0.000726	0.001499	-0.000727	0.999999
54959	0.169683	0.050360	9.701125	0.001038	0.000179	0.007724	0.999999	-0.000615	-0.001523	0.000616	1.000000	0.000715	0.001522	-0.000716	0.999999
54960	0.192982	0.042707	9.701248	0.000354	-0.002868	0.006317	0.999999	-0.000621	-0.001513	0.000623	1.000000	0.000698	0.001512	-0.000699	0.999999
54961	0.191550	0.038301	9.725196	0.000730	-0.000753	0.006529	0.999999	-0.000625	-0.001524	0.000626	1.000000	0.000684	0.001524	-0.000685	0.999999
54962	0.200837	0.065534	9.705968	0.000664	-0.001936	0.007511	0.999999	-0.000619	-0.001524	0.000620	1.000000	0.000670	0.001524	-0.000671	0.999999
54963	0.185967	0.020222	9.696511	0.002858	-0.002504	0.009693	0.999999	-0.000591	-0.001519	0.000592	1.000000	0.000677	0.001519	-0.000678	0.999999
54964	0.170572	0.050910	9.701106	0.002371	-0.002002	0.005340	0.999999	-0.000607	-0.001518	0.000608	1.000000	0.000681	0.001518	-0.000682	0.999999
54965	0.186422	0.020796	9.696501	0.004809	-0.002820	0.009698	0.999999	-0.000579	-0.001510	0.000580	1.000000	0.000707	0.001510	-0.000708	0.999999
54966	0.186638	0.021461	9.696496	0.009330	-0.001589	0.012098	0.999999	-0.000525	-0.001513	0.000527	1.000000	0.000779	0.001513	-0.000780	0.999999
54967	0.203702	0.072326	9.681972	0.011084	-0.005455	0.015049	0.999999	-0.000443	-0.001479	0.000444	1.000000	0.000868	0.001478	-0.000869	0.999999
54968	0.187340	0.023400	9.696478	0.009576	-0.001841	0.014275	0.999999	-0.000368	-0.001479	0.000369	0.999999	0.000942	0.001479	-0.000943	0.999998
54969	0.218030	0.038869	9.701318	0.000754	0.002540	0.017832	0.999999	-0.000255	-0.001524	0.000257	1.000000	0.000924	0.001524	-0.000925	0.999998
54970	0.163981	0.031979	9.696354	0.007515	0.001092	0.010129	0.999999	-0.000222	-0.001554	0.000223	0.999999	0.000978	0.001554	-0.000979	0.999998
54971	0.191818	-0.037461	9.735088	-0.000178	0.001434	-0.003159	0.999999	-0.000323	-0.001591	0.000325	0.999999	0.000957	0.001590	-0.000957	0.999998
54972	0.170460	-0.100994	9.696998	0.004342	0.004353	-0.018168	0.999998	-0.000573	-0.001654	0.000575	0.999999	0.000985	0.001654	-0.000986	0.999998
54973	0.239796	-0.124201	9.697383	-0.004698	-0.001486	0.011850	0.999998	-0.000530	-0.001661	0.000532	0.999999	0.000918	0.001660	-0.000919	0.999998
54974	0.141502	0.428439	9.718405	-0.000928	-0.004486	0.013825	0.999999	-0.000462	-0.001635	0.000463	0.999999	0.000887	0.001634	-0.000888	0.999998
54975	0.173058	0.059225	9.677116	-0.002303	0.001495	0.011085	0.999999	-0.000419	-0.001669	0.000420	1.000000	0.000840	0.001669	-0.000841	0.999998
54976	0.196408	0.051505	9.677238	0.003219	-0.005372	0.016012	0.999999	-0.000328	-0.001634	0.000329	1.000000	0.000850	0.001634	-0.000851	0.999998
54977	0.166150	0.036808	9.672389	0.003286	-0.004189	0.015030	0.999999	-0.000248	-0.001612	0.000249	1.000000	0.000861	0.001612	-0.000862	0.999998
54978	0.197717	0.052493	9.677206	0.012230	-0.012880	0.033024	0.999999	0.000015	-0.001501	-0.000014	1.000000	0.000958	0.001501	-0.000958	0.999998
54979	0.194058	-0.035959	9.735049	0.005117	-0.003160	0.058000	0.999999	0.000527	-0.001484	-0.000526	0.999999	0.000978	0.001485	-0.000977	0.999998
54980	0.174287	-0.019303	9.687013	-0.000831	-0.000444	0.130656	0.999997	0.001764	-0.001494	-0.001762	0.999998	0.000924	0.001495	-0.000921	0.999998
54981	0.237102	0.166372	9.700720	-0.003444	-0.001904	0.082142	0.999996	0.002513	-0.001488	-0.002512	0.999996	0.000852	0.001490	-0.000849	0.999999
54982	0.181859	0.078655	9.705722	-0.000581	0.001428	0.008916	0.999996	0.002533	-0.001521	-0.002531	0.999996	0.000826	0.001523	-0.000822	0.999999
54983	0.189686	0.025234	9.696427	-0.003225	-0.001297	0.007505	0.999996	0.002536	-0.001526	-0.002535	0.999996	0.000773	0.001528	-0.000769	0.999999
54984	0.197238	0.047709	9.701139	-0.001256	0.003366	0.001402	0.999996	0.002481	-0.001579	-0.002480	0.999997	0.000741	0.001581	-0.000737	0.999998
54985	0.181702	0.002452	9.691725	0.004281	0.001473	0.000222	0.999996	0.002415	-0.001614	-0.002414	0.999997	0.000764	0.001616	-0.000761	0.999998
54986	0.166463	0.033424	9.696307	0.005023	-0.006374	0.000574	0.999996	0.002352	-0.001569	-0.002351	0.999997	0.000796	0.001571	-0.000792	0.999998
54987	0.199664	-0.022968	9.663166	-0.000494	-0.006588	-0.010535	0.999996	0.002170	-0.001526	-0.002169	0.999997	0.000777	0.001527	-0.000774	0.999999
54988	0.142966	-0.038674	9.706124	0.004073	-0.002492	-0.026532	0.999997	0.001836	-0.001521	-0.001835	0.999998	0.000805	0.001523	-0.000802	0.999999
54989	0.165133	-0.202339	9.702204	0.003582	-0.001990	-0.030886	0.999998	0.001462	-0.001520	-0.001460	0.999999	0.000826	0.001521	-0.000824	0.999999
54990	0.238780	0.091639	9.686670	0.004665	-0.003504	-0.005746	0.999998	0.001336	-0.001504	-0.001334	0.999999	0.000855	0.001505	-0.000853	0.999999
54991	0.234172	0.305894	9.676011	0.002674	-0.006057	0.012645	0.999998	0.001392	-0.001463	-0.001391	0.999999	0.000860	0.001465	-0.000858	0.999999
54992	0.193514	0.107922	9.686405	0.004852	-0.004519	0.027115	0.999998	0.001595	-0.001436	-0.001594	0.999998	0.000884	0.001438	-0.000881	0.999999
54993	0.127964	-0.010795	9.734641	0.001864	-0.008523	0.084899	0.999996	0.002376	-0.001367	-0.002375	0.999997	0.000866	0.001369	-0.000863	0.999999
54994	0.089249	-0.129040	9.735081	-0.006130	-0.019002	0.172741	0.999991	0.004031	-0.001189	-0.004030	0.999992	0.000749	0.001192	-0.000745	0.999999
54995	0.010916	-0.213666	9.763953	-0.008533	-0.028015	0.224600	0.999980	0.006202	-0.000920	-0.006201	0.999981	0.000601	0.000923	-0.000595	0.999999
54996	0.098939	-0.052895	9.849490	-0.066858	-0.102297	0.195504	0.999967	0.008068	0.000091	-0.008068	0.999967	-0.000129	-0.000092	0.000129	1.000000
54997	0.301481	0.261692	9.872272	-0.127986	-0.155776	0.251942	0.999944	0.010484	0.001637	-0.010481	0.999944	-0.001486	-0.001653	0.001469	0.999998
54998	0.330975	0.442869	9.661191	-0.169752	-0.088334	0.140233	0.999928	0.011778	0.002503	-0.011770	0.999925	-0.003236	-0.002541	0.003206	0.999992
54999	0.249551	0.248633	9.647505	-0.173245	-0.034694	0.148796	0.999909	0.013159	0.002831	-0.013144	0.999901	-0.005025	-0.002897	0.004988	0.999983
55000	0.126756	-0.053981	9.834329	-0.168935	-0.028940	0.227588	0.999878	0.015327	0.003096	-0.015306	0.999860	-0.006790	-0.003199	0.006742	0.999972
55001	0.037544	-0.198978	10.202546	-0.236565	-0.092052	0.204861	0.999843	0.017259	0.003985	-0.017222	0.999809	-0.009227	-0.004144	0.009157	0.999949
55002	0.386898	-0.548137	10.409273	-0.309453	-0.347964	0.150478	0.999798	0.018651	0.007436	-0.018558	0.999751	-0.012381	-0.007665	0.012240	0.999896
55003	0.704026	-0.549092	10.278995	-0.377714	-0.566827	0.297007	0.999683	0.021525	0.013053	-0.021312	0.999641	-0.016267	-0.013398	0.015984	0.999782
55004	0.920125	-0.328700	10.757358	-0.359195	-0.638548	0.299087	0.999513	0.024456	0.019376	-0.024069	0.999510	-0.019988	-0.019855	0.019512	0.999612
55005	0.571803	-0.440891	10.216716	-0.272903	-0.442097	0.129060	0.999388	0.025692	0.023752	-0.025151	0.999424	-0.022786	-0.024324	0.022175	0.999458
55006	-0.564257	-0.249324	10.005798	-0.237603	-0.319957	-0.136416	0.999342	0.024270	0.026962	-0.023594	0.999406	-0.025111	-0.027555	0.024458	0.999321
55007	0.052874	-0.044179	9.430823	-0.290739	-0.329972	-0.139680	0.999281	0.022812	0.030275	-0.021967	0.999368	-0.027956	-0.030893	0.027270	0.999151
55008	0.871484	0.602478	9.528334	-0.176492	-0.229832	0.010262	0.999209	0.022862	0.032552	-0.021896	0.999318	-0.029739	-0.033210	0.029003	0.999027
55009	0.707262	0.387118	9.451092	0.016294	-0.153941	-0.029972	0.999165	0.022535	0.034078	-0.021530	0.999331	-0.029574	-0.034722	0.028815	0.998982
55010	0.297537	0.288625	9.561832	0.160899	-0.153186	-0.121473	0.999138	0.021325	0.035621	-0.020335	0.999403	-0.027915	-0.036195	0.027166	0.998975
55011	0.290365	-0.042799	10.085862	0.160421	-0.219885	-0.258588	0.999107	0.018756	0.037855	-0.017771	0.999499	-0.026171	-0.038327	0.025475	0.998940
55012	0.831184	-0.451153	10.536261	0.099971	-0.227232	-0.296528	0.999068	0.015793	0.040173	-0.014796	0.999578	-0.025008	-0.040551	0.024390	0.998880
55013	0.989755	-0.446232	10.687490	0.014792	-0.187228	-0.211462	0.999022	0.013650	0.042066	-0.012616	0.999614	-0.024737	-0.042388	0.024182	0.998809
55014	0.550777	-0.405918	10.532898	-0.061478	-0.178658	-0.188087	0.998968	0.011724	0.043874	-0.010623	0.999625	-0.025244	-0.044154	0.024752	0.998718
55015	0.432998	-0.231978	10.143455	-0.199618	-0.147015	-0.063845	0.998911	0.011005	0.045334	-0.009777	0.999582	-0.027203	-0.045614	0.026730	0.998601
55016	0.455981	0.167338	10.008167	-0.273317	-0.076025	0.040088	0.998874	0.011293	0.046068	-0.009918	0.999502	-0.029971	-0.046383	0.029481	0.998489
55017	0.830978	0.434217	10.128754	-0.214474	-0.077763	-0.099231	0.998850	0.010199	0.046848	-0.008702	0.999448	-0.032047	-0.047149	0.031602	0.998388
55018	1.079451	0.293999	10.080292	-0.058031	-0.151726	-0.243962	0.998797	0.007721	0.048417	-0.006152	0.999454	-0.032470	-0.048641	0.032134	0.998299
55019	0.729486	0.311454	9.876009	-0.001444	-0.212214	-0.222376	0.998705	0.005484	0.050575	-0.003851	0.999470	-0.032330	-0.050726	0.032094	0.998197
55020	0.657925	0.369534	9.760824	-0.014158	-0.180368	-0.110839	0.998617	0.004355	0.052391	-0.002658	0.999471	-0.032405	-0.052505	0.032220	0.998101
55021	0.776391	0.367975	10.209853	0.053950	-0.135777	-0.171662	0.998549	0.002620	0.053778	-0.000912	0.999495	-0.031752	-0.053834	0.031657	0.998048
55022	0.944850	0.072203	10.619009	0.074740	-0.146707	-0.255577	0.998470	0.000053	0.055296	0.001654	0.999523	-0.030826	-0.055271	0.030871	0.997994
55023	0.641747	-0.052404	10.761105	0.004263	-0.154320	-0.208113	0.998379	-0.002054	0.056876	0.003801	0.999523	-0.030636	-0.056786	0.030802	0.997911
55024	0.879356	0.003558	11.099426	-0.089455	-0.125043	-0.212417	0.998298	-0.004231	0.058166	0.006064	0.999489	-0.031372	-0.058003	0.031671	0.997814
55025	1.028389	-0.240069	11.199353	-0.213228	-0.091159	-0.112305	0.998238	-0.005444	0.059092	0.007429	0.999414	-0.033420	-0.058876	0.033800	0.997693
55026	0.799591	-0.244422	10.977355	-0.340643	-0.078458	0.054999	0.998195	-0.005015	0.059843	0.007231	0.999294	-0.036872	-0.059616	0.037239	0.997527
55027	0.865247	-0.161271	10.827755	-0.329287	-0.112481	-0.032462	0.998125	-0.005443	0.060963	0.007900	0.999163	-0.040139	-0.060693	0.040545	0.997333
55028	1.051949	-0.142699	10.812603	-0.260411	-0.190396	-0.155598	0.997995	-0.007052	0.062907	0.009745	0.999044	-0.042615	-0.062546	0.043142	0.997109
55029	0.899706	-0.073113	10.781488	-0.234246	-0.267190	-0.215269	0.997801	-0.009215	0.065643	0.012171	0.998923	-0.044774	-0.065160	0.045474	0.996838
55030	0.883406	0.056699	10.538352	-0.204106	-0.300584	-0.274544	0.997563	-0.011943	0.068742	0.015167	0.998800	-0.046572	-0.068103	0.047502	0.996547
55031	1.186441	0.262431	10.785683	-0.106612	-0.301577	-0.394303	0.997286	-0.015840	0.071904	0.019271	0.998696	-0.047281	-0.071061	0.048539	0.996290
55032	1.057741	-0.025499	10.868152	-0.078283	-0.289251	-0.369146	0.996998	-0.019482	0.074934	0.023100	0.998594	-0.047720	-0.073898	0.049308	0.996046
55033	0.606254	-0.057446	10.741853	-0.174825	-0.235543	-0.196516	0.996773	-0.021443	0.077354	0.025303	0.998465	-0.049277	-0.076179	0.051075	0.995785
55034	0.834164	-0.251332	11.072248	-0.235125	-0.143665	-0.176477	0.996615	-0.023257	0.078855	0.027367	0.998301	-0.051449	-0.077524	0.053433	0.995558
55035	0.959263	-0.532540	11.434061	-0.287517	-0.132549	-0.182443	0.996457	-0.025143	0.080252	0.029544	0.998097	-0.054133	-0.078738	0.056312	0.995304
55036	0.945097	-0.721696	11.569714	-0.360186	-0.198865	-0.139698	0.996254	-0.026579	0.082294	0.031377	0.997848	-0.057578	-0.080586	0.059944	0.994943
55037	0.986880	-0.792075	11.783342	-0.361508	-0.282533	-0.238624	0.995941	-0.028945	0.085227	0.034205	0.997556	-0.060925	-0.083255	0.063593	0.994497
55038	1.352809	-1.096662	12.003139	-0.310141	-0.342721	-0.297950	0.995540	-0.031844	0.088800	0.037580	0.997262	-0.063689	-0.086529	0.066742	0.994011
55039	1.531173	-0.818753	12.295567	-0.253207	-0.490750	-0.328773	0.994972	-0.034931	0.093868	0.041213	0.996979	-0.065837	-0.091285	0.069374	0.993405
55040	1.395784	-0.223242	11.972824	-0.236559	-0.700660	-0.512185	0.994080	-0.039688	0.101141	0.046665	0.996622	-0.067577	-0.098117	0.071897	0.992574
55041	1.301572	0.116465	11.483366	-0.249870	-0.803586	-0.669992	0.992921	-0.045928	0.109540	0.053712	0.996156	-0.069204	-0.105940	0.074598	0.991570
55042	1.695310	0.415118	10.957755	-0.282019	-0.791772	-0.684907	0.991655	-0.052305	0.117836	0.060959	0.995607	-0.071069	-0.113601	0.077659	0.990487
55043	1.948633	0.676413	10.528906	-0.344139	-0.725010	-0.534126	0.990458	-0.057216	0.125374	0.066810	0.995040	-0.073706	-0.120535	0.081379	0.989368
55044	1.439336	0.624989	9.923370	-0.470590	-0.643683	-0.350359	0.989412	-0.060357	0.131989	0.071045	0.994433	-0.077823	-0.126556	0.086376	0.988192
55045	1.249408	0.244809	9.895442	-0.461757	-0.541985	-0.391238	0.988416	-0.063956	0.137636	0.075688	0.993774	-0.081761	-0.131550	0.091232	0.987103
55046	1.417595	-0.334951	10.236504	-0.396197	-0.463002	-0.494556	0.987400	-0.068611	0.142595	0.081260	0.993074	-0.084862	-0.135785	0.095380	0.986136
55047	1.332260	-0.671265	10.640074	-0.430672	-0.474097	-0.468078	0.986343	-0.072976	0.147654	0.086639	0.992318	-0.088316	-0.140074	0.099902	0.985088
55048	1.244528	-0.644072	10.740639	-0.435929	-0.496550	-0.626488	0.985061	-0.078866	0.153082	0.093596	0.991395	-0.091519	-0.144547	0.104479	0.983967
55049	1.376238	-0.270959	10.587171	-0.417462	-0.523074	-0.842004	0.983456	-0.086832	0.158977	0.102646	0.990256	-0.094115	-0.149255	0.108877	0.982786
55050	1.522734	-0.126636	10.415096	-0.420506	-0.564722	-0.997371	0.981511	-0.096257	0.165438	0.113228	0.988882	-0.096398	-0.154320	0.113348	0.981498
55051	1.787291	-0.179172	10.295196	-0.413224	-0.606325	-1.057715	0.979290	-0.106191	0.172379	0.124388	0.987340	-0.098420	-0.159745	0.117824	0.980102
55052	1.980676	-0.287505	10.369377	-0.460514	-0.640852	-1.003792	0.976930	-0.115516	0.179622	0.135108	0.985677	-0.100929	-0.165391	0.122869	0.978544
55053	1.935635	-0.460267	10.303070	-0.548588	-0.638232	-0.878394	0.974607	-0.123576	0.186738	0.144776	0.983934	-0.104470	-0.170827	0.128852	0.976839
55054	1.881292	-0.402983	10.210005	-0.665974	-0.641826	-0.753152	0.972343	-0.130369	0.193788	0.153467	0.982085	-0.109345	-0.176061	0.136061	0.974931
55055	1.594942	-0.377999	9.892967	-0.895220	-0.649650	-0.576784	0.970238	-0.135400	0.200761	0.160927	0.980036	-0.116758	-0.180944	0.145591	0.972658
55056	1.778925	-0.565533	9.693237	-0.962549	-0.653140	-0.512616	0.968155	-0.139737	0.207726	0.167936	0.977853	-0.124904	-0.185672	0.155812	0.970180
55057	1.972982	-0.817669	9.803240	-0.888229	-0.616971	-0.578931	0.965960	-0.144686	0.214447	0.175458	0.975581	-0.132119	-0.190094	0.165248	0.967759
55058	1.528262	-1.094655	9.809883	-0.838966	-0.574469	-0.652881	0.963643	-0.150346	0.220880	0.183608	0.973176	-0.138624	-0.194114	0.174139	0.965399
55059	1.716888	-1.282783	9.750447	-0.776017	-0.571749	-0.724935	0.961119	-0.156631	0.227412	0.192326	0.970666	-0.144283	-0.198142	0.182411	0.963050
55060	1.732999	-1.216046	9.866134	-0.691781	-0.571475	-0.804540	0.958352	-0.163608	0.234079	0.201631	0.968082	-0.148870	-0.202252	0.189868	0.960752
55061	1.537365	-1.321109	9.938852	-0.679783	-0.567619	-0.885343	0.955325	-0.171306	0.240850	0.211680	0.965279	-0.153061	-0.206268	0.197206	0.958417
55062	1.600667	-1.312112	9.972124	-0.703791	-0.532585	-1.040532	0.951913	-0.180506	0.247547	0.223252	0.962035	-0.156993	-0.209811	0.204709	0.956072
55063	2.145105	-1.491190	9.978435	-0.693237	-0.510740	-1.178944	0.948083	-0.191002	0.254275	0.236091	0.958408	-0.160361	-0.213070	0.212068	0.953744
55064	2.666333	-1.231327	10.122937	-0.681539	-0.456667	-1.057375	0.944502	-0.200368	0.260325	0.247732	0.954870	-0.163865	-0.215744	0.219262	0.951514
55065	2.301510	-1.329857	10.163759	-0.772607	-0.378936	-0.925637	0.941287	-0.208594	0.265458	0.258328	0.951244	-0.168528	-0.217361	0.227209	0.949279
55066	2.425623	-1.233692	10.187141	-0.832859	-0.363116	-0.943983	0.937947	-0.216977	0.270512	0.269220	0.947296	-0.173642	-0.218579	0.235694	0.946927
55067	2.664482	-1.375029	10.300651	-0.860088	-0.382172	-1.007537	0.934276	-0.225851	0.275898	0.280744	0.942990	-0.178752	-0.219798	0.244460	0.944419
55068	2.759526	-1.431189	10.322868	-0.843997	-0.418035	-1.070481	0.930220	-0.235147	0.281776	0.292786	0.938416	-0.183444	-0.221287	0.253143	0.941781
55069	2.755914	-1.672956	10.265529	-0.801907	-0.470679	-1.219549	0.925458	-0.245608	0.288452	0.306068	0.933424	-0.187194	-0.223272	0.261526	0.939018
55070	2.899313	-1.818529	10.062974	-0.786246	-0.503143	-1.322261	0.920122	-0.256835	0.295655	0.320210	0.928022	-0.190369	-0.225481	0.269834	0.936135
55071	3.405672	-1.591429	9.875140	-0.855576	-0.467254	-1.102659	0.915391	-0.266024	0.302143	0.332462	0.922785	-0.194774	-0.226999	0.278746	0.933152
55072	3.210665	-1.423537	9.555250	-0.993152	-0.369758	-0.774735	0.911848	-0.272394	0.307140	0.342034	0.917845	-0.201430	-0.227039	0.288726	0.930103
55073	3.076403	-1.332959	9.243576	-1.053969	-0.268434	-0.622309	0.908988	-0.277598	0.310935	0.350340	0.912987	-0.209084	-0.225839	0.298988	0.927148
55074	3.176244	-1.410867	9.280762	-0.969588	-0.163567	-0.735490	0.905917	-0.284074	0.314032	0.359423	0.907942	-0.215537	-0.223894	0.308129	0.924623
55075	3.184426	-1.748253	9.476737	-0.849156	-0.156915	-0.946089	0.902033	-0.292400	0.317550	0.370061	0.902551	-0.220129	-0.222239	0.316077	0.922337
55076	3.279534	-2.024858	9.664866	-0.766915	-0.244577	-1.117736	0.897208	-0.301913	0.322283	0.381988	0.896778	-0.223326	-0.221591	0.323479	0.919923
55077	3.366136	-2.386741	9.754526	-0.789584	-0.299829	-1.168735	0.891923	-0.311620	0.327667	0.394362	0.890611	-0.226476	-0.221249	0.331218	0.917248
55078	3.133176	-2.736958	9.624758	-0.825796	-0.296064	-1.184112	0.886434	-0.321385	0.333085	0.406892	0.884095	-0.229816	-0.220620	0.339246	0.914461
55079	2.831896	-2.870922	9.486747	-0.893165	-0.260372	-1.361894	0.880126	-0.332742	0.338616	0.421063	0.876583	-0.233043	-0.219282	0.347686	0.911608
55080	3.508089	-3.011387	9.535918	-0.977310	-0.204137	-1.578089	0.872800	-0.346066	0.344179	0.437207	0.867804	-0.236148	-0.216957	0.356588	0.908722
55081	4.014477	-3.181920	9.511639	-1.073535	-0.187344	-1.568373	0.865291	-0.359219	0.349619	0.453347	0.858405	-0.240037	-0.213889	0.366201	0.905621
55082	4.303998	-3.177863	9.367925	-1.156389	-0.256430	-1.499285	0.857694	-0.371372	0.355589	0.468937	0.848629	-0.244799	-0.210851	0.376712	0.902014
55083	4.464613	-2.939361	9.102401	-1.146729	-0.344181	-1.559636	0.849393	-0.383519	0.362554	0.484866	0.838363	-0.249103	-0.208416	0.387377	0.898055
55084	4.179968	-2.749309	8.740900	-1.133586	-0.366031	-1.702335	0.840089	-0.396564	0.370118	0.501799	0.827285	-0.252580	-0.206029	0.397914	0.893989
55085	4.215149	-2.894718	8.349470	-1.183645	-0.334566	-1.707400	0.830536	-0.409550	0.377463	0.518690	0.815640	-0.256304	-0.202904	0.408656	0.889849
55086	4.041366	-3.345782	8.281225	-1.214687	-0.286410	-1.628721	0.821215	-0.421863	0.384237	0.534797	0.803840	-0.260447	-0.198992	0.419372	0.885737
55087	4.042913	-3.618294	8.286950	-1.233113	-0.257390	-1.617791	0.811755	-0.433985	0.390783	0.550649	0.791678	-0.264636	-0.194527	0.430004	0.881621
55088	4.299215	-4.088809	8.447133	-1.254319	-0.240749	-1.605036	0.802146	-0.445851	0.397212	0.566228	0.779150	-0.268907	-0.189595	0.440615	0.877446
55089	4.349675	-4.414238	8.703978	-1.265969	-0.243749	-1.681234	0.791848	-0.458061	0.403928	0.582211	0.765906	-0.272799	-0.184412	0.451186	0.873169
55090	4.497566	-4.514051	9.010777	-1.346759	-0.277795	-1.817651	0.780400	-0.470901	0.411373	0.599169	0.751315	-0.276627	-0.178807	0.462362	0.868476
55091	4.798273	-4.298132	9.105241	-1.533867	-0.381767	-1.890964	0.767994	-0.483515	0.419998	0.616756	0.735090	-0.281520	-0.172617	0.475243	0.862756
55092	5.189222	-3.876804	8.820377	-1.697508	-0.463517	-1.984876	0.754515	-0.496066	0.429682	0.635015	0.717161	-0.287117	-0.165722	0.489488	0.856118
55093	5.654006	-3.422702	8.497369	-1.728915	-0.436241	-2.039695	0.740386	-0.508707	0.439370	0.653335	0.698314	-0.292424	-0.158060	0.503562	0.849378
55094	5.665903	-3.097350	8.138072	-1.640744	-0.316761	-2.118657	0.725585	-0.522032	0.448341	0.671642	0.679035	-0.296326	-0.149747	0.516134	0.843316
55095	5.374793	-3.038028	7.569749	-1.519207	-0.306908	-2.243174	0.709597	-0.535767	0.457631	0.690179	0.659276	-0.298342	-0.141864	0.527550	0.837595
55096	5.343854	-3.070646	7.024015	-1.367674	-0.263523	-2.350274	0.692543	-0.549921	0.466874	0.708740	0.639299	-0.298302	-0.134430	0.537479	0.832493
55097	5.215601	-3.019870	6.491572	-1.339419	-0.215097	-2.230755	0.676008	-0.563081	0.475345	0.725943	0.619678	-0.298340	-0.126571	0.546754	0.827672
55098	5.147545	-3.185397	6.148895	-1.419941	-0.213469	-1.893564	0.661589	-0.573744	0.482823	0.740552	0.601085	-0.300465	-0.117828	0.556340	0.822558
55099	5.226102	-3.149333	6.176209	-1.393006	-0.168737	-1.649010	0.648807	-0.582834	0.489238	0.753144	0.583713	-0.303404	-0.108741	0.565317	0.817675
55100	5.290031	-3.055772	6.396600	-1.323490	-0.098818	-1.555096	0.636634	-0.591469	0.494836	0.764716	0.567022	-0.306098	-0.099535	0.573281	0.813291
55101	5.458639	-3.223616	6.713719	-1.234872	-0.073427	-1.476184	0.624940	-0.599530	0.500015	0.775388	0.551083	-0.308351	-0.090684	0.580406	0.809262
55102	5.130381	-3.492320	6.910032	-1.205139	-0.076827	-1.446143	0.613330	-0.607159	0.505158	0.785564	0.535297	-0.310397	-0.081950	0.587210	0.805276
55103	4.744781	-3.478873	6.999792	-1.244762	0.024143	-1.537244	0.600928	-0.615623	0.509798	0.796038	0.518533	-0.312164	-0.072172	0.593406	0.801661
55104	4.889717	-3.257358	7.224169	-1.410803	0.204518	-1.612040	0.587851	-0.625286	0.513272	0.806750	0.500092	-0.314741	-0.059880	0.599103	0.798430
55105	5.159472	-3.369771	7.216379	-1.605709	0.259711	-1.566141	0.574942	-0.634776	0.516238	0.816925	0.480495	-0.318995	-0.045560	0.605131	0.794821
55106	5.572911	-3.692374	7.336573	-1.702845	0.193050	-1.443376	0.562801	-0.642991	0.519440	0.826023	0.460819	-0.324550	-0.030685	0.611726	0.790474
55107	5.780303	-3.784710	7.284298	-1.757818	0.091836	-1.264856	0.551951	-0.649507	0.522963	0.833727	0.441698	-0.331363	-0.015769	0.618905	0.785308
55108	5.752866	-3.816130	7.192478	-1.897549	-0.037314	-1.048067	0.542769	-0.654051	0.526896	0.839882	0.422861	-0.340274	-0.000247	0.627221	0.778841
55109	5.541674	-3.600851	7.161768	-2.019895	-0.161860	-0.840603	0.535263	-0.656751	0.531199	0.844538	0.404355	-0.351073	0.015775	0.636534	0.771087
55110	5.329974	-3.307151	6.971016	-2.082990	-0.128550	-0.829928	0.527814	-0.659445	0.535299	0.848734	0.385298	-0.362211	0.032608	0.645506	0.763058
55111	5.210462	-3.029720	6.439457	-2.075072	-0.105831	-0.882854	0.519893	-0.662304	0.539504	0.852791	0.365747	-0.372794	0.049581	0.653898	0.754957
55112	5.140329	-3.187134	6.169265	-1.886969	-0.024120	-1.103268	0.510052	-0.666281	0.543982	0.857652	0.345843	-0.380560	0.065427	0.660652	0.747835
55113	5.242261	-3.551143	6.016102	-1.391832	0.046680	-1.476516	0.496980	-0.671727	0.549357	0.864302	0.326697	-0.382428	0.077414	0.664869	0.742937
55114	6.054445	-3.580167	6.491188	-0.809892	0.130606	-1.898188	0.480169	-0.678758	0.555631	0.873070	0.308595	-0.377516	0.084777	0.666376	0.740781
55115	6.504551	-4.220288	7.071441	-0.439665	-0.072077	-2.005280	0.462479	-0.684408	0.563647	0.882256	0.292165	-0.369140	0.087964	0.668000	0.738944
55116	6.409759	-4.102514	7.439637	-0.235777	-0.280575	-1.960684	0.445223	-0.688207	0.572842	0.891041	0.277323	-0.359359	0.088451	0.670420	0.736691
55117	6.145053	-3.619761	7.381794	-0.303872	-0.458932	-1.824358	0.429163	-0.690143	0.582685	0.898846	0.262864	-0.350683	0.088855	0.674244	0.733144
55118	5.684719	-3.029738	7.004820	-0.486598	-0.586359	-1.804701	0.413220	-0.690881	0.593239	0.906127	0.247235	-0.343234	0.090465	0.679381	0.728188
55119	5.838330	-2.480963	6.711366	-0.629280	-0.743312	-1.818023	0.397148	-0.690259	0.604826	0.913044	0.230488	-0.336489	0.092860	0.685870	0.721775
55120	6.123451	-1.992501	6.004006	-0.742675	-0.840073	-1.799733	0.381207	-0.688570	0.616889	0.919484	0.213045	-0.330396	0.096076	0.693169	0.714344
55121	6.208280	-2.521776	5.553277	-0.777453	-0.903269	-1.528587	0.367742	-0.685514	0.628360	0.924579	0.197163	-0.326006	0.099592	0.700855	0.706317
55122	5.396033	-2.553082	5.312225	-0.870150	-1.039021	-1.401663	0.355529	-0.680943	0.640247	0.928900	0.181457	-0.322827	0.103650	0.709500	0.697042
55123	5.324831	-2.702719	5.128987	-1.049252	-0.971789	-1.418458	0.343046	-0.676565	0.651597	0.932883	0.164328	-0.320509	0.109770	0.717813	0.687528
55124	5.843143	-2.799124	4.939811	-1.037479	-1.076121	-1.566888	0.329289	-0.671331	0.663991	0.937130	0.146291	-0.316837	0.115567	0.726577	0.677296
55125	6.978320	-2.208261	4.545919	-0.695811	-1.131430	-1.480417	0.316457	-0.665204	0.676283	0.941216	0.131367	-0.311214	0.118180	0.735015	0.667673
55126	6.690999	-2.316888	5.037308	-0.360643	-0.896857	-1.213989	0.305898	-0.660180	0.685995	0.944652	0.120728	-0.305053	0.118571	0.741341	0.660571
55127	7.105163	-2.942655	5.162393	-0.068680	-0.993940	-1.120306	0.296346	-0.654144	0.695899	0.948006	0.112949	-0.297534	0.116029	0.747889	0.653604
55128	7.333226	-3.426389	5.678086	0.216741	-1.132105	-0.940540	0.288638	-0.646723	0.706001	0.951041	0.108566	-0.289368	0.110494	0.754959	0.646396
55129	6.975260	-3.594448	6.129083	0.184606	-1.276483	-0.831713	0.282021	-0.637965	0.716564	0.953651	0.104705	-0.282113	0.104951	0.762914	0.637925
55130	7.147982	-3.612379	5.910944	0.208232	-1.283300	-0.850078	0.275147	-0.629042	0.727049	0.956267	0.101006	-0.274503	0.099238	0.770782	0.629323
55131	6.817422	-3.456162	5.323687	0.073977	-1.289003	-0.779048	0.268845	-0.619870	0.737213	0.958498	0.096773	-0.268173	0.094890	0.778715	0.620161
55132	6.514140	-3.120234	4.763090	-0.162868	-1.235035	-0.635090	0.263770	-0.610848	0.746518	0.960086	0.091598	-0.264280	0.093056	0.786431	0.610628
55133	6.562955	-2.435166	4.532024	-0.315042	-1.102958	-0.572991	0.259121	-0.602689	0.754733	0.961347	0.085611	-0.261693	0.093106	0.793370	0.601577
55134	6.367992	-1.951393	4.421609	-0.372411	-0.868209	-0.647574	0.253528	-0.596357	0.761631	0.962716	0.078757	-0.258798	0.094352	0.798846	0.594089
55135	6.762830	-2.376197	4.213450	-0.170610	-0.660515	-0.726520	0.247024	-0.591663	0.767407	0.964418	0.073112	-0.254072	0.094219	0.802863	0.588671
55136	7.022170	-2.306664	5.080826	0.107347	-1.039117	-0.585543	0.242252	-0.583747	0.774954	0.965979	0.070579	-0.248802	0.090542	0.808862	0.580986
55137	8.379259	-2.536561	5.430861	0.177360	-0.577310	-0.557158	0.237330	-0.579491	0.779657	0.967493	0.068831	-0.243349	0.087354	0.812067	0.576989
55138	8.061987	-2.723851	5.853424	0.314999	-0.554069	-0.667234	0.231321	-0.575473	0.784424	0.969340	0.067635	-0.236232	0.082890	0.815019	0.573475
55139	7.893040	-2.510865	5.988372	0.265769	-0.680374	-0.647417	0.225556	-0.570384	0.789802	0.971050	0.066179	-0.229524	0.078649	0.818708	0.568799
55140	8.128701	-2.519794	5.017541	0.063543	-0.701868	-0.534466	0.220828	-0.565007	0.794986	0.972318	0.063704	-0.224811	0.076376	0.822623	0.563434
55141	7.896581	-2.435347	4.343208	-0.049546	-0.835789	-0.378705	0.217671	-0.558381	0.800519	0.973139	0.061160	-0.221947	0.074971	0.827327	0.556695
55142	7.784679	-1.919097	4.671465	0.018487	-0.920060	-0.329580	0.215047	-0.550975	0.806338	0.973890	0.059478	-0.219090	0.072754	0.832399	0.549380
55143	8.437426	-1.640839	4.825022	0.262497	-0.776902	-0.349668	0.212151	-0.544728	0.811334	0.974834	0.059780	-0.214768	0.068489	0.836479	0.543702
55144	8.179777	-1.588895	5.036766	0.498852	-0.641729	-0.391132	0.208774	-0.539614	0.815616	0.975983	0.061907	-0.208865	0.062214	0.839633	0.539579
55145	7.080483	-2.292327	4.720550	0.544187	-0.703232	-0.696005	0.202415	-0.534165	0.820790	0.977735	0.062876	-0.200200	0.055332	0.843039	0.534999
55146	7.847186	-1.799386	4.586505	0.536881	-0.761659	-0.900355	0.194021	-0.528336	0.826569	0.979803	0.062795	-0.189851	0.048401	0.846710	0.529848
55147	7.879197	-1.678872	4.097703	0.415832	-0.629214	-0.929528	0.185194	-0.523619	0.831581	0.981762	0.061591	-0.179858	0.042959	0.849723	0.525476
55148	8.212172	-1.422637	3.909282	0.368323	-0.581247	-0.866537	0.176908	-0.519241	0.836117	0.983489	0.060352	-0.170610	0.038126	0.852494	0.521345
55149	8.494539	-1.187725	3.600870	0.411227	-0.662306	-0.657397	0.170674	-0.514017	0.840629	0.984781	0.060574	-0.162902	0.032814	0.855639	0.516532
55150	8.693556	-1.224888	3.598678	0.626696	-0.780534	-0.433422	0.166673	-0.507620	0.845306	0.985689	0.063822	-0.156027	0.025253	0.859214	0.510993
55151	8.459387	-1.283983	3.834118	0.689290	-0.850052	-0.219516	0.164744	-0.500463	0.849939	0.986189	0.068702	-0.150700	0.017028	0.863028	0.504870
55152	8.546869	-1.450034	4.315747	0.634580	-0.903046	-0.137362	0.163548	-0.492767	0.854654	0.986492	0.073539	-0.146377	0.009280	0.867048	0.498138
55153	8.973606	-1.440054	5.225678	0.532077	-0.971553	-0.119049	0.162448	-0.484430	0.859615	0.986714	0.077593	-0.142739	0.002447	0.871382	0.490598
55154	9.156928	-1.793111	5.246275	0.423601	-1.021053	-0.215505	0.160307	-0.475703	0.864875	0.987061	0.080280	-0.138798	-0.003406	0.875935	0.482418
55155	9.222171	-1.940892	4.808542	0.359961	-1.068704	-0.407298	0.156198	-0.466676	0.870526	0.987687	0.081571	-0.133491	-0.008713	0.880659	0.473671
55156	9.052981	-1.716950	4.390829	0.313436	-1.086174	-0.606727	0.150048	-0.457617	0.876397	0.988585	0.081621	-0.126636	-0.013582	0.885395	0.464641
55157	8.909182	-1.120150	3.889467	0.298200	-1.047186	-0.718053	0.142745	-0.448946	0.882084	0.989592	0.081119	-0.118856	-0.018194	0.889869	0.455853
55158	8.700806	-0.686285	3.424455	0.292484	-0.969253	-0.746205	0.135125	-0.440947	0.887303	0.990571	0.080522	-0.110836	-0.022575	0.893914	0.447670
55159	8.396700	-0.595007	2.796696	0.129749	-0.856695	-0.678296	0.128134	-0.433855	0.891825	0.991439	0.078804	-0.104110	-0.025110	0.897530	0.440238
55160	8.243819	-0.362454	2.172238	0.000817	-0.757104	-0.500304	0.122887	-0.427476	0.895636	0.992076	0.076700	-0.099511	-0.026156	0.900767	0.433514
55161	8.252033	-0.108828	2.127455	0.031793	-0.698218	-0.231781	0.120318	-0.421382	0.898866	0.992359	0.075994	-0.097207	-0.027347	0.903694	0.427305
55162	8.848906	0.045963	2.111503	0.263300	-0.590884	-0.091836	0.119205	-0.416129	0.901458	0.992396	0.077980	-0.095234	-0.030666	0.905956	0.422260
55163	8.929007	-0.013842	3.326954	0.440603	-0.527239	-0.028276	0.118763	-0.411385	0.903691	0.992283	0.081848	-0.093146	-0.035647	0.907779	0.417930
55164	9.336284	-0.514910	4.006211	0.450159	-0.507040	-0.039954	0.118187	-0.406829	0.905827	0.992157	0.085771	-0.090929	-0.040701	0.909469	0.413775
55165	9.389150	-0.628952	4.259987	0.452364	-0.580421	-0.092934	0.117027	-0.401642	0.908289	0.992069	0.089516	-0.088238	-0.045866	0.911411	0.408933
55166	8.901891	-0.482187	3.981197	0.463710	-0.602889	-0.215643	0.114610	-0.396361	0.910913	0.992091	0.092918	-0.084393	-0.051190	0.913381	0.403876
55167	8.725805	-0.241331	3.391954	0.531894	-0.566726	-0.315470	0.111206	-0.391500	0.913433	0.992153	0.096593	-0.079390	-0.057150	0.915094	0.399170
55168	8.136219	0.329598	3.093400	0.453709	-0.486027	-0.324791	0.107711	-0.387394	0.915601	0.992233	0.099538	-0.074611	-0.062233	0.916525	0.395106
55169	8.069883	0.770126	3.059464	0.292869	-0.376864	-0.347878	0.104005	-0.384313	0.917326	0.992412	0.100925	-0.070236	-0.065589	0.917670	0.391893
55170	8.435883	0.742908	3.451089	0.141680	-0.293835	-0.300177	0.100786	-0.381950	0.918671	0.992627	0.101102	-0.066865	-0.067340	0.918636	0.389323
55171	8.573831	0.681822	3.700231	0.102341	-0.169732	-0.224177	0.098396	-0.380644	0.919472	0.992783	0.101193	-0.064350	-0.068550	0.919168	0.387854
55172	8.931646	0.413070	3.184220	0.257927	-0.224149	-0.213658	0.096101	-0.378827	0.920464	0.992811	0.102772	-0.061358	-0.071354	0.919743	0.385980
55173	10.157560	-0.321297	3.233705	0.500880	-0.510660	-0.154100	0.094220	-0.374305	0.922507	0.992583	0.106822	-0.058035	-0.076822	0.921132	0.381593
55174	9.855298	-1.004339	4.213557	0.496055	-0.608748	-0.003679	0.093721	-0.368712	0.924807	0.992191	0.111372	-0.056147	-0.082296	0.922848	0.376271
55175	8.929032	-1.253392	3.748560	0.246863	-0.470012	-0.053605	0.092768	-0.364450	0.926590	0.992038	0.113436	-0.054703	-0.085172	0.924288	0.372072
55176	8.838696	-0.643518	3.328066	0.116596	-0.253120	-0.152802	0.090986	-0.362312	0.927605	0.992082	0.113954	-0.052801	-0.086574	0.925065	0.369811
55177	9.028281	0.027490	3.175698	0.025840	0.068450	-0.152209	0.089477	-0.363144	0.927427	0.992201	0.113630	-0.051234	-0.086778	0.924778	0.370480
55178	8.867908	0.449548	3.309287	-0.135908	0.295537	-0.043662	0.089211	-0.365955	0.926347	0.992366	0.112173	-0.051255	-0.085155	0.923848	0.373168
55179	8.716531	0.511035	3.208489	-0.030550	0.256638	0.011604	0.089479	-0.368333	0.925378	0.992389	0.111887	-0.051424	-0.084596	0.922937	0.375541
55180	8.153203	0.327243	3.349026	0.199272	0.001083	-0.046950	0.088991	-0.368418	0.925391	0.992264	0.113535	-0.050221	-0.086562	0.922702	0.375671
55181	8.454799	0.507052	3.508344	0.295268	-0.328183	-0.092135	0.087775	-0.365512	0.926659	0.992086	0.115916	-0.048251	-0.089779	0.923561	0.372794
55182	8.970657	0.704167	3.089978	0.394513	-0.565595	-0.096286	0.086301	-0.360418	0.928790	0.991807	0.119215	-0.045895	-0.094184	0.925141	0.367754
55183	9.310686	1.224067	2.665080	0.543626	-0.722866	-0.026534	0.085365	-0.353768	0.931430	0.991301	0.124150	-0.043698	-0.100178	0.927057	0.361288
55184	9.966727	1.127940	2.429552	0.672110	-0.801760	0.029458	0.084878	-0.346300	0.934276	0.990576	0.130484	-0.041628	-0.107493	0.929005	0.354112
55185	9.724834	0.641712	1.625019	0.826584	-0.450850	0.057012	0.085038	-0.342032	0.935832	0.989599	0.138362	-0.039355	-0.116023	0.929446	0.350241
55186	9.670893	0.641559	1.482564	1.010155	-0.109658	0.032534	0.085379	-0.340963	0.936192	0.988340	0.147882	-0.036275	-0.126077	0.928372	0.349613
55187	9.494255	0.848258	2.410898	1.081976	0.184382	-0.036256	0.085439	-0.342715	0.935546	0.986936	0.157836	-0.032313	-0.136589	0.926086	0.351723
55188	9.354242	1.319701	4.477550	0.966614	0.356973	-0.029782	0.085807	-0.346057	0.934281	0.985586	0.166712	-0.028769	-0.145800	0.923283	0.355374
55189	9.407718	0.957348	5.748757	0.452350	0.450357	0.035409	0.086878	-0.350149	0.932656	0.984880	0.171037	-0.027530	-0.149879	0.920946	0.359714
55190	9.045190	0.781678	5.430936	-0.130092	0.349098	0.040392	0.087713	-0.353325	0.931380	0.985050	0.169925	-0.028305	-0.148264	0.919939	0.362947
55191	9.450229	1.753746	4.262506	-0.672844	0.376795	0.010506	0.088160	-0.356821	0.930004	0.986036	0.163681	-0.030672	-0.141279	0.919722	0.366268
55192	11.662858	1.353012	1.998882	-2.264501	-0.503744	-0.565704	0.081340	-0.353160	0.932020	0.989503	0.140681	-0.033050	-0.119445	0.924925	0.360896
55193	9.422927	0.661543	3.037336	-2.068453	-0.439433	-0.187149	0.078475	-0.349417	0.933675	0.991953	0.120710	-0.038198	-0.099356	0.929159	0.356078
55194	9.290764	0.104828	2.477359	-1.420512	0.182113	-0.023741	0.078033	-0.351199	0.933043	0.993312	0.107279	-0.042694	-0.085102	0.930135	0.357222
55195	8.214339	-0.430647	0.503941	-0.451113	0.238498	-0.281853	0.075278	-0.353747	0.932307	0.993907	0.102109	-0.041508	-0.080513	0.929751	0.359278
55196	8.210493	-0.057586	2.314704	0.312940	-0.200008	-0.580831	0.069338	-0.352520	0.933232	0.994061	0.103068	-0.034924	-0.083875	0.930111	0.357572
55197	7.525362	-0.377305	3.257961	0.647555	-0.322495	-0.710185	0.062075	-0.350286	0.934583	0.993940	0.106805	-0.025987	-0.090716	0.930533	0.354793
55198	7.714849	-0.428420	4.635469	0.750889	-0.328302	-0.702616	0.054874	-0.348028	0.935877	0.993623	0.111497	-0.016797	-0.098502	0.930830	0.351927
55199	8.787217	0.025868	4.405649	0.381185	-0.394218	-0.584694	0.048686	-0.345038	0.937325	0.993524	0.113189	-0.009939	-0.102666	0.931739	0.348314
55200	9.219425	0.074766	4.094631	0.298552	-0.387700	-0.509226	0.043212	-0.342039	0.938692	0.993437	0.114305	-0.004081	-0.105902	0.932708	0.344733
55201	9.328488	0.032993	4.497431	0.192515	-0.267228	-0.387031	0.039058	-0.340014	0.939609	0.993379	0.114885	0.000280	-0.108042	0.933377	0.342250
55202	9.113139	-0.142183	4.335381	0.029387	-0.229499	-0.305748	0.035706	-0.338257	0.940376	0.993459	0.114144	0.003337	-0.108467	0.934106	0.340120
55203	9.256287	-0.154076	3.742537	-0.146542	-0.348012	-0.286472	0.032383	-0.335359	0.941534	0.993707	0.111869	0.005668	-0.107230	0.935425	0.336871
55204	9.190299	-0.327657	3.437364	-0.260656	-0.398011	-0.232565	0.029514	-0.331930	0.942842	0.994056	0.108638	0.007129	-0.104795	0.937028	0.333163
55205	8.977606	-0.738878	3.466049	-0.424689	-0.392407	-0.202671	0.026929	-0.328501	0.944120	0.994547	0.103998	0.007819	-0.100755	0.938761	0.329510
55206	8.872503	-0.948274	4.136659	-0.717598	-0.268136	-0.215991	0.024286	-0.326247	0.944973	0.995303	0.096501	0.007737	-0.093715	0.940346	0.327058
55207	8.869460	-1.141273	4.077888	-1.197511	-0.141095	-0.215401	0.021688	-0.325162	0.945410	0.996404	0.084496	0.006204	-0.081901	0.941876	0.325826
55208	9.056632	-1.155749	3.840486	-1.467775	-0.209244	-0.230752	0.018833	-0.323424	0.946067	0.997552	0.069814	0.004009	-0.067345	0.943675	0.323947
55209	9.036214	-1.651660	2.700828	-1.443830	-0.092967	-0.312969	0.015273	-0.322787	0.946348	0.998474	0.055149	0.002697	-0.053061	0.944863	0.323137
55210	7.761387	-2.381171	1.100827	-0.765059	0.133006	-0.578571	0.009329	-0.324385	0.945879	0.998920	0.046078	0.005950	-0.045515	0.944802	0.324465
55211	7.902399	-2.243979	-0.207713	-0.194937	0.282107	-0.802279	0.001352	-0.327443	0.944870	0.999041	0.041800	0.013057	-0.043771	0.943946	0.327186
55212	6.262040	-1.995253	3.578050	-0.156791	0.193276	-1.217167	-0.010817	-0.329804	0.943987	0.999039	0.036527	0.024210	-0.042466	0.943342	0.329092
55213	8.896978	-0.704838	3.893076	-0.489388	-0.207061	-1.207231	-0.023127	-0.328297	0.944291	0.999015	0.028181	0.034265	-0.037860	0.944154	0.327322
55214	10.305889	-0.087730	2.676682	-0.628242	-0.366108	-0.993142	-0.033393	-0.325128	0.945080	0.998940	0.019121	0.041874	-0.031685	0.945477	0.324144
55215	10.657725	0.343347	2.411632	-0.400118	-0.368922	-0.758108	-0.041229	-0.321799	0.945910	0.998764	0.013039	0.047968	-0.027770	0.946718	0.320864
55216	10.262132	0.232022	2.165564	-0.495045	-0.270966	-0.558156	-0.047058	-0.319325	0.946476	0.998632	0.006601	0.051878	-0.022814	0.947622	0.318578
55217	10.184184	0.246850	2.198987	-0.556821	-0.143724	-0.469219	-0.051957	-0.318007	0.946664	0.998499	-0.000095	0.054770	-0.017327	0.948088	0.317535
55218	10.923950	0.895164	2.806413	-0.604785	0.018071	-0.358833	-0.055738	-0.318195	0.946385	0.998381	-0.006976	0.056455	-0.011362	0.948000	0.318069
55219	11.908962	1.715564	1.311225	-0.468816	-0.498313	-0.292537	-0.058878	-0.313460	0.947774	0.998244	-0.012284	0.057951	-0.006523	0.949522	0.313633
55220	10.736834	1.139336	2.637913	-0.262717	-0.555817	-0.044663	-0.059498	-0.308189	0.949463	0.998222	-0.014973	0.057693	-0.003565	0.951207	0.308532
55221	9.580180	0.472219	2.285455	-0.178212	-0.546247	0.006354	-0.059564	-0.303000	0.951127	0.998223	-0.016637	0.057213	-0.001511	0.952845	0.303453
55222	9.151869	0.332071	2.425226	-0.100412	-0.524778	-0.072373	-0.060400	-0.298002	0.952652	0.998174	-0.017847	0.057703	-0.000193	0.954398	0.298536
55223	9.164588	0.273458	2.085477	-0.116657	-0.637803	-0.205572	-0.062555	-0.291888	0.954405	0.998041	-0.019515	0.059447	0.001273	0.956253	0.292537
55224	9.443901	0.250588	1.464241	0.113563	-0.723872	-0.280255	-0.065413	-0.284930	0.956314	0.997858	-0.019214	0.062530	0.000558	0.958356	0.285576
55225	9.285178	0.479780	1.105099	0.498815	-0.841247	-0.301770	-0.068416	-0.276828	0.958481	0.997649	-0.015163	0.066832	-0.003968	0.960800	0.277214
55226	9.005591	0.700474	2.080139	0.407187	-0.829401	-0.247611	-0.070939	-0.268842	0.960568	0.997453	-0.011889	0.070336	-0.007489	0.963111	0.269001
55227	9.631974	1.059202	3.368627	-0.045423	-0.806668	-0.156193	-0.072652	-0.261061	0.962585	0.997336	-0.012687	0.071834	-0.006541	0.965239	0.261287
55228	10.454003	1.378597	3.100994	-0.221265	-0.617745	-0.043125	-0.073253	-0.255105	0.964134	0.997306	-0.014980	0.071809	-0.003876	0.966797	0.255515
55229	10.249544	1.286786	2.481868	-0.292462	-0.308487	0.067645	-0.072723	-0.252141	0.964954	0.997352	-0.017641	0.070555	-0.000767	0.967530	0.252756
55230	9.505797	1.044241	1.639631	-0.438289	-0.020292	0.131647	-0.071577	-0.251981	0.965081	0.997428	-0.021637	0.068326	0.003665	0.967490	0.252882
55231	8.719805	0.691553	1.575079	-0.663872	0.153015	0.181704	-0.069981	-0.253506	0.964799	0.997496	-0.027652	0.065087	0.010179	0.966938	0.254807
55232	7.450837	-0.515683	0.873897	-0.544939	0.245365	0.224622	-0.067954	-0.255951	0.964298	0.997568	-0.032459	0.061683	0.015512	0.966145	0.257534
55233	8.431079	-0.503540	-0.639974	0.129849	0.323084	0.258911	-0.065444	-0.259154	0.963616	0.997758	-0.030569	0.059541	0.014027	0.965352	0.260574
55234	9.675837	1.005989	-0.168818	0.600211	-0.037997	0.095281	-0.064427	-0.258831	0.963772	0.997890	-0.024551	0.060114	0.008103	0.965611	0.259866
55235	10.228929	0.541763	0.695780	0.979618	-0.398114	0.144501	-0.062831	-0.255019	0.964893	0.998023	-0.014672	0.061111	-0.001427	0.966825	0.255437
55236	9.516491	0.771506	2.529096	1.073093	-0.429339	0.191180	-0.060798	-0.250897	0.966103	0.998080	-0.003830	0.061816	-0.011809	0.968006	0.250648
55237	9.488330	0.896651	2.954197	0.804621	-0.469306	0.155421	-0.059221	-0.246354	0.967369	0.998053	0.004388	0.062217	-0.019573	0.969170	0.245614
55238	9.562571	1.049139	3.398747	0.409432	-0.436736	0.144715	-0.057864	-0.242123	0.968519	0.998051	0.008664	0.061794	-0.023353	0.970207	0.241150
55239	9.506340	0.860633	3.134053	0.101547	-0.412194	0.191608	-0.056105	-0.238106	0.969617	0.998133	0.010091	0.060233	-0.024126	0.971187	0.237096
55240	9.007161	0.518791	1.857206	0.036526	-0.307694	0.235433	-0.053901	-0.235104	0.970475	0.998252	0.010917	0.058089	-0.024251	0.971909	0.234105
55241	8.741077	0.335572	0.845562	0.250503	-0.301865	0.239493	-0.051607	-0.232140	0.971312	0.998314	0.013886	0.056361	-0.026571	0.972583	0.231032
55242	8.474713	0.306853	0.822102	0.362795	-0.252884	0.215165	-0.049529	-0.229657	0.972011	0.998322	0.017847	0.055086	-0.029999	0.973108	0.228388
55243	8.150537	0.142149	0.905308	0.303419	-0.285247	0.161512	-0.048014	-0.226851	0.972745	0.998305	0.021162	0.054210	-0.032883	0.973700	0.225450
55244	8.421819	0.206008	1.042119	0.195611	-0.193535	0.066101	-0.047451	-0.224969	0.973210	0.998270	0.023176	0.054031	-0.034710	0.974090	0.223480
55245	8.471069	0.334060	1.376557	-0.086749	-0.018616	-0.071523	-0.048256	-0.224814	0.973206	0.998260	0.022191	0.054625	-0.033876	0.974149	0.223352
55246	8.707247	0.379251	1.789798	-0.381036	0.198983	-0.241067	-0.050745	-0.226830	0.972612	0.998255	0.017936	0.056266	-0.030208	0.973769	0.225524
55247	9.265420	0.475630	1.891356	-0.333142	0.298256	-0.298619	-0.053768	-0.229799	0.971752	0.998185	0.014062	0.058556	-0.027121	0.973137	0.228626
55248	9.527657	0.797602	3.395535	-0.065480	0.198530	-0.295996	-0.056745	-0.231799	0.971107	0.998034	0.012770	0.061366	-0.026625	0.972680	0.230619
55249	9.448085	1.114103	3.770106	-0.068835	0.096761	-0.270804	-0.059498	-0.232790	0.970705	0.997888	0.011540	0.063931	-0.026085	0.972459	0.231611
55250	9.113924	0.953536	2.962671	-0.120489	0.191082	-0.282381	-0.062354	-0.234706	0.970064	0.997740	0.009731	0.066488	-0.025044	0.972018	0.233569
55251	8.724370	0.724696	2.320105	-0.077235	0.350071	-0.345623	-0.065785	-0.238158	0.968996	0.997531	0.008241	0.069748	-0.024596	0.971191	0.237028
55252	8.676747	0.970844	2.167235	0.026727	0.389192	-0.269479	-0.068425	-0.241986	0.967864	0.997339	0.007881	0.072479	-0.025166	0.970248	0.240803
55253	8.700773	0.768963	1.809402	0.134738	0.289061	-0.119599	-0.069568	-0.244811	0.967072	0.997218	0.008938	0.073999	-0.026759	0.969530	0.243509
55254	9.298564	0.544965	1.905774	0.155422	0.184798	0.054283	-0.069004	-0.246615	0.966654	0.997212	0.010540	0.073874	-0.028407	0.969056	0.245200
55255	9.819551	0.172574	1.484893	0.033150	-0.103152	0.260549	-0.066497	-0.245586	0.967091	0.997376	0.011447	0.071486	-0.028626	0.969307	0.244180
55256	9.531073	-0.003583	1.383333	-0.566430	-0.745576	0.405458	-0.062863	-0.238322	0.969149	0.997771	0.006775	0.066385	-0.022387	0.971162	0.237365
55257	9.435933	0.232509	1.153411	-0.584667	-1.277518	0.655790	-0.056801	-0.225852	0.972504	0.998263	0.002416	0.058866	-0.015644	0.974159	0.225323
55258	8.247540	1.200443	2.228773	0.121129	-0.630798	0.293512	-0.054036	-0.219702	0.974069	0.998404	0.004154	0.056323	-0.016421	0.975558	0.219127
55259	8.314155	1.254033	2.335620	-0.114314	-0.491567	0.308959	-0.051138	-0.214888	0.975299	0.998580	0.003622	0.053156	-0.014955	0.976632	0.214398
55260	8.417626	1.015158	2.012776	-0.127617	-0.365548	0.294910	-0.048355	-0.211317	0.976221	0.998740	0.002898	0.050098	-0.013416	0.977413	0.210910
55261	8.805001	0.696726	1.796276	-0.003454	-0.355815	0.286041	-0.045626	-0.207825	0.977101	0.998872	0.003394	0.047364	-0.013160	0.978160	0.207436
55262	9.141370	0.870881	1.791834	0.019168	-0.337620	0.305946	-0.042691	-0.204519	0.977931	0.999002	0.004112	0.044471	-0.013116	0.978854	0.204140
55263	9.340020	0.791338	1.577651	-0.038971	-0.129650	0.270934	-0.040082	-0.203236	0.978309	0.999117	0.004218	0.041811	-0.012624	0.979121	0.202887
55264	9.254668	0.494260	1.670227	-0.079340	-0.003830	0.257329	-0.037599	-0.203199	0.978415	0.999224	0.003872	0.039203	-0.011754	0.979130	0.202895
55265	9.162086	0.512225	1.783329	-0.022025	-0.053332	0.342117	-0.034263	-0.202657	0.978650	0.999347	0.004264	0.035870	-0.011442	0.979240	0.202379
55266	9.036493	0.759886	1.890267	-0.026954	-0.048171	0.377667	-0.030571	-0.202175	0.978872	0.999471	0.004648	0.032175	-0.011055	0.979338	0.201926
55267	8.553370	0.750682	2.021276	-0.276540	-0.045962	0.369084	-0.027019	-0.201706	0.979073	0.999601	0.002568	0.028115	-0.008185	0.979443	0.201556
55268	9.276395	0.492721	2.045027	-0.639110	-0.131209	0.284706	-0.024396	-0.200431	0.979404	0.999701	-0.003242	0.024238	-0.001682	0.979702	0.200450
55269	9.648516	-0.139867	1.582543	-0.838025	-0.085328	0.209433	-0.022558	-0.199607	0.979616	0.999723	-0.011141	0.020751	0.006772	0.979813	0.199803
55270	9.224230	-0.269248	1.415415	-0.876950	-0.067829	0.133784	-0.021480	-0.198973	0.979770	0.999648	-0.019565	0.017942	0.015599	0.979810	0.199323
55271	8.897573	-0.098554	1.457897	-0.764590	-0.090178	0.136407	-0.020341	-0.198116	0.979967	0.999522	-0.026869	0.015315	0.023297	0.979810	0.198568
55272	8.657243	-0.045005	1.227533	-0.567621	-0.132570	0.171559	-0.018792	-0.196875	0.980248	0.999401	-0.032186	0.012695	0.029051	0.979900	0.197362
55273	8.569029	-0.139826	2.025373	-0.045228	-0.337168	0.278991	-0.015996	-0.193653	0.980940	0.999433	-0.032181	0.009944	0.029642	0.980542	0.194058
55274	9.259830	0.045355	1.038209	-0.337858	-0.196995	0.270637	-0.013381	-0.191817	0.981339	0.999362	-0.035078	0.006770	0.033125	0.980804	0.192164
55275	9.341537	-0.255789	1.310208	-0.201256	-0.080573	0.180751	-0.011664	-0.191086	0.981504	0.999312	-0.036782	0.004715	0.035201	0.980884	0.191384
55276	9.410235	-0.299353	1.154512	-0.314246	-0.053245	0.142319	-0.010364	-0.190627	0.981608	0.999209	-0.039668	0.002846	0.038396	0.980861	0.190888
55277	9.619206	-0.402756	0.992235	-0.362684	0.054825	0.039473	-0.010139	-0.191179	0.981503	0.999064	-0.043212	0.001904	0.042048	0.980604	0.191438
55278	9.347652	-0.403561	0.934076	-0.315724	0.109565	-0.035883	-0.010682	-0.192251	0.981288	0.998921	-0.046412	0.001781	0.045201	0.980248	0.192539
55279	9.189209	-0.268732	1.093592	-0.315187	0.190202	-0.081999	-0.011722	-0.194075	0.980917	0.998763	-0.049685	0.002105	0.048328	0.979728	0.194418
55280	9.201143	-0.120882	1.252505	-0.268871	0.302254	-0.147335	-0.013463	-0.196978	0.980316	0.998610	-0.052615	0.003142	0.050961	0.978995	0.197412
55281	8.900437	0.104321	1.590771	-0.152556	0.402635	-0.167222	-0.015430	-0.200832	0.979504	0.998506	-0.054445	0.004566	0.052412	0.978112	0.201372
55282	9.130196	0.268053	1.955868	-0.073228	0.384714	-0.139721	-0.017101	-0.204536	0.978710	0.998444	-0.055447	0.005858	0.053068	0.977287	0.205166
55283	8.979675	0.335731	1.797324	-0.084625	0.301576	-0.082262	-0.018161	-0.207438	0.978080	0.998383	-0.056471	0.006561	0.053872	0.976617	0.208128
55284	8.953705	0.386854	1.629169	-0.122919	0.197178	0.002974	-0.018330	-0.209378	0.977663	0.998314	-0.057702	0.006359	0.055082	0.976131	0.210083
55285	9.076888	0.124262	1.303767	-0.224408	0.048608	0.050244	-0.017973	-0.209877	0.977563	0.998192	-0.059848	0.005503	0.057350	0.975894	0.210573
55286	9.256093	0.211586	1.247673	-0.278934	-0.041102	0.087507	-0.017209	-0.209537	0.977649	0.998039	-0.062451	0.004183	0.060179	0.975804	0.210201
55287	9.439050	0.315197	1.717443	-0.177099	0.022211	0.094771	-0.016384	-0.209806	0.977606	0.997942	-0.064051	0.002979	0.061991	0.975643	0.210424
55288	9.273121	0.643015	2.265484	0.034100	0.057709	0.164056	-0.014844	-0.210483	0.977485	0.997985	-0.063440	0.001495	0.061697	0.975537	0.211001
55289	9.072260	0.574454	1.933502	0.091318	0.026600	0.266484	-0.012250	-0.210901	0.977431	0.998070	-0.062095	-0.000890	0.060881	0.975533	0.211255
55290	8.767069	0.156597	1.241218	0.144949	0.024026	0.304997	-0.009258	-0.211328	0.977371	0.998184	-0.060130	-0.003546	0.059518	0.975564	0.211501
55291	9.324534	0.047198	1.577803	0.098905	-0.032453	0.307320	-0.006221	-0.211184	0.977427	0.998260	-0.058635	-0.006315	0.058645	0.975686	0.211181
55292	9.760108	-0.083676	2.089111	-0.114499	-0.179872	0.368749	-0.002535	-0.209647	0.977774	0.998201	-0.059095	-0.010083	0.059896	0.975990	0.209419
55293	10.055907	-0.180056	2.606434	-0.168516	-0.241117	0.372300	0.001211	-0.207499	0.978234	0.998093	-0.060126	-0.013989	0.061721	0.976386	0.207030
55294	10.071265	-0.364660	2.595731	0.057144	-0.272191	0.298187	0.004288	-0.205023	0.978748	0.998115	-0.059050	-0.016742	0.061227	0.976974	0.204384
55295	9.572091	-0.071674	2.782813	0.295764	-0.238223	0.220555	0.006619	-0.202817	0.979194	0.998274	-0.055800	-0.018305	0.058352	0.977625	0.202098
55296	9.182325	0.325644	2.890664	0.426693	-0.247638	0.249552	0.009265	-0.200540	0.979642	0.998490	-0.051194	-0.019923	0.054147	0.978347	0.199763
55297	9.278973	0.284211	2.359081	0.423410	-0.314198	0.326799	0.012705	-0.197620	0.980196	0.998668	-0.046524	-0.022324	0.050014	0.979174	0.196766
55298	9.613501	-0.085075	2.129361	0.442646	-0.389418	0.335110	0.016252	-0.193961	0.980875	0.998826	-0.041620	-0.024780	0.045631	0.980126	0.193057
55299	9.796147	-0.097942	2.183175	0.304961	-0.369510	0.252920	0.018926	-0.190436	0.981517	0.998912	-0.038243	-0.026681	0.042617	0.980955	0.189505
55300	9.987094	0.017968	2.056026	0.032232	-0.192525	0.085856	0.019796	-0.188593	0.981856	0.998909	-0.037814	-0.027403	0.042296	0.981327	0.187638
55301	9.769635	-0.149256	1.844550	-0.210314	-0.157937	-0.012439	0.019618	-0.187041	0.982156	0.998820	-0.039986	-0.027565	0.044429	0.981538	0.186036
55302	9.882972	-0.315182	1.208209	-0.258787	-0.180728	-0.174079	0.017828	-0.185214	0.982537	0.998738	-0.042855	-0.026200	0.046959	0.981763	0.184216
55303	9.904786	-0.346503	1.204763	-0.039479	-0.143986	-0.227699	0.015538	-0.183711	0.982857	0.998759	-0.043676	-0.023953	0.047328	0.982009	0.182805
55304	9.577942	-0.214770	1.285988	0.089177	-0.039352	-0.156647	0.013940	-0.183279	0.982962	0.998825	-0.043082	-0.022198	0.046416	0.982117	0.182463
55305	9.841406	0.019666	1.783322	0.130948	-0.097242	-0.011800	0.013822	-0.182323	0.983142	0.998885	-0.041873	-0.021809	0.045144	0.982347	0.181540
55306	9.682094	-0.046102	2.279802	0.250120	-0.229374	0.199351	0.015891	-0.180161	0.983509	0.998963	-0.039121	-0.023307	0.042675	0.982859	0.179352
55307	9.506150	-0.097968	2.672078	0.531706	-0.556739	0.458227	0.020721	-0.174843	0.984378	0.999085	-0.033221	-0.026931	0.037411	0.984036	0.173995
55308	9.833428	-1.141130	1.262794	0.526536	-0.644566	0.314574	0.024112	-0.168601	0.985389	0.999194	-0.027580	-0.029169	0.032095	0.985298	0.167800
55309	9.434656	-0.422413	0.138293	0.191102	-0.202176	0.016601	0.024307	-0.166618	0.985722	0.999249	-0.025722	-0.028988	0.030184	0.985686	0.165867
55310	10.604077	-0.492467	0.559543	0.258927	-0.092155	0.053944	0.024857	-0.165739	0.985856	0.999310	-0.023113	-0.029082	0.027606	0.985899	0.165050
55311	10.125735	-0.129236	0.399932	0.466215	-0.122609	0.020180	0.025120	-0.164539	0.986051	0.999421	-0.018530	-0.028552	0.022970	0.986196	0.163979
55312	10.016207	-0.306243	0.608026	0.445656	-0.110847	0.066995	0.025837	-0.163474	0.986209	0.999495	-0.014055	-0.028515	0.018522	0.986447	0.163028
55313	9.976243	-0.264552	1.181158	0.352709	-0.090076	-0.002061	0.025838	-0.162589	0.986356	0.999553	-0.010616	-0.027934	0.015013	0.986637	0.162242
55314	10.069715	-0.293166	1.639612	0.139134	-0.091138	-0.066492	0.025145	-0.161703	0.986519	0.999591	-0.009362	-0.027012	0.013604	0.986795	0.161402
55315	9.851398	-0.512136	1.266484	-0.086949	0.016202	-0.134935	0.023706	-0.161856	0.986530	0.999614	-0.010463	-0.025737	0.014488	0.986759	0.161546
55316	8.962581	-0.682023	1.211622	-0.040249	0.246737	-0.216931	0.021431	-0.164293	0.986179	0.999659	-0.011197	-0.023590	0.014917	0.986348	0.163997
55317	8.956408	-0.920588	1.299285	-0.030151	0.369032	-0.358696	0.017727	-0.167903	0.985644	0.999727	-0.012050	-0.020033	0.015241	0.985730	0.167643
55318	9.038917	-0.294374	1.108027	-0.003408	0.357868	-0.473517	0.012881	-0.171404	0.985117	0.999801	-0.012812	-0.015303	0.015244	0.985117	0.171205
55319	9.446689	-0.241664	0.895238	0.122373	0.227518	-0.472926	0.008087	-0.173602	0.984783	0.999870	-0.012349	-0.010388	0.013965	0.984738	0.173480
55320	10.206295	0.033610	0.889297	0.109973	0.191781	-0.467427	0.003349	-0.175467	0.984480	0.999913	-0.012006	-0.005542	0.012792	0.984412	0.175412
55321	10.278850	0.164458	1.420155	-0.020746	0.263206	-0.416938	-0.000917	-0.178019	0.984027	0.999916	-0.012888	-0.001400	0.012931	0.983943	0.178016
55322	10.337876	0.188768	1.963560	-0.032327	0.278641	-0.344750	-0.004467	-0.180743	0.983520	0.999903	-0.013780	0.002009	0.013189	0.983434	0.180787
55323	9.449680	0.226308	2.017478	0.007249	0.290971	-0.270412	-0.007266	-0.183574	0.982979	0.999888	-0.014174	0.004744	0.013061	0.982904	0.183657
55324	9.363557	0.023945	1.660867	0.074553	0.311228	-0.187043	-0.009218	-0.186631	0.982387	0.999882	-0.013773	0.006766	0.012268	0.982334	0.186736
55325	9.406815	0.113670	1.383012	0.081520	0.370528	-0.136215	-0.010662	-0.190255	0.981677	0.999878	-0.013228	0.008296	0.011407	0.981646	0.190373
55326	9.477834	0.102864	1.677979	0.057489	0.350552	-0.090166	-0.011648	-0.193705	0.980991	0.999874	-0.012845	0.009335	0.010793	0.980976	0.193830
55327	9.611720	0.235989	2.043658	0.051621	0.237884	-0.017150	-0.011894	-0.196036	0.980525	0.999877	-0.012399	0.009649	0.010266	0.980518	0.196159
55328	9.653314	0.182510	2.155115	0.061297	0.169217	0.101885	-0.010942	-0.197722	0.980197	0.999893	-0.011649	0.008813	0.009675	0.980189	0.197828
55329	9.290103	0.016240	1.846312	0.103047	0.068278	0.199189	-0.009001	-0.198406	0.980079	0.999922	-0.010317	0.007095	0.008704	0.980066	0.198483
55330	8.952926	-0.162733	1.581277	0.105575	-0.042476	0.185081	-0.007195	-0.198020	0.980172	0.999944	-0.008984	0.005525	0.007712	0.980157	0.198074
55331	8.954562	-0.130309	1.248185	0.055988	-0.155444	0.136197	-0.005884	-0.196503	0.980486	0.999957	-0.008229	0.004351	0.007214	0.980469	0.196543
55332	9.478053	-0.075353	1.181000	0.001638	-0.309395	0.123131	-0.004710	-0.193493	0.981090	0.999963	-0.008034	0.003216	0.007259	0.981069	0.193524
55333	9.913066	-0.009413	1.570331	-0.074989	-0.272640	0.078361	-0.004000	-0.190820	0.981617	0.999960	-0.008675	0.002388	0.008060	0.981587	0.190847
55334	10.080649	0.046822	2.084820	-0.125378	-0.185704	0.026530	-0.003822	-0.189017	0.981966	0.999949	-0.009899	0.001987	0.009345	0.981924	0.189045
55335	10.028602	0.174752	2.366720	-0.151844	-0.069272	-0.045775	-0.004378	-0.188332	0.982096	0.999931	-0.011507	0.002251	0.010877	0.982038	0.188369
55336	9.858781	0.193243	2.369201	-0.159160	0.040185	-0.068012	-0.005166	-0.188738	0.982014	0.999909	-0.013221	0.002719	0.012470	0.981938	0.188789
55337	9.658687	0.223608	2.173688	-0.103237	0.133873	-0.061266	-0.005883	-0.190045	0.981758	0.999892	-0.014374	0.003209	0.013502	0.981670	0.190109
55338	9.490070	0.105516	1.849892	-0.029841	0.138860	-0.070414	-0.006677	-0.191418	0.981486	0.999883	-0.014818	0.003913	0.013795	0.981397	0.191495
55339	9.681696	0.131843	1.668798	-0.082474	0.181465	-0.065392	-0.007438	-0.193191	0.981133	0.999866	-0.015775	0.004474	0.014613	0.981034	0.193282
55340	9.318312	0.037395	1.223037	-0.144644	0.233872	-0.001737	-0.007585	-0.195501	0.980674	0.999842	-0.017233	0.004298	0.016060	0.980552	0.195601
55341	9.316470	0.072606	1.052832	-0.190038	0.248703	0.057755	-0.007153	-0.197947	0.980187	0.999813	-0.019036	0.003452	0.017975	0.980028	0.198046
