// General information: 
//  MT Manager version: 2019.2.0 
//  XDA version: 2019.2.0 build 3853 rev 94535 built on 2019-09-09
// Device information: 
//  DeviceId: 00B43FA9
//  ProductCode: MTW2-3A7G6
//  Firmware Version: 4.3.5
//  Hardware Version: 1.1.0
// Device settings: 
//  Filter Profile: human(46.1)
//  Option Flags: Orientation Smoother Disabled, AHS Disabled, ICC Disabled
// Coordinate system: ENU
PacketCounter	Acc_X	Acc_Y	Acc_Z	Gyr_X	Gyr_Y	Gyr_Z	Mat[1][1]	Mat[2][1]	Mat[3][1]	Mat[1][2]	Mat[2][2]	Mat[3][2]	Mat[1][3]	Mat[2][3]	Mat[3][3]
44273	0.123118	0.021711	9.874388	-0.001113	0.005371	0.001318	1.000000	-0.000287	0.000067	0.000287	1.000000	-0.000568	-0.000067	0.000568	1.000000
44274	0.112955	0.047521	9.895402	0.004950	0.003981	0.002373	1.000000	-0.000305	0.000056	0.000305	1.000000	-0.000535	-0.000056	0.000535	1.000000
44275	0.098374	0.056820	9.877754	-0.000772	0.003613	-0.000279	1.000000	-0.000320	0.000049	0.000320	1.000000	-0.000557	-0.000049	0.000557	1.000000
44276	0.098081	0.057011	9.877756	0.004657	0.002334	0.002203	1.000000	-0.000316	0.000055	0.000316	1.000000	-0.000525	-0.000055	0.000525	1.000000
44277	0.097885	0.057254	9.877757	0.000293	0.001646	0.000171	1.000000	-0.000327	0.000068	0.000327	1.000000	-0.000537	-0.000068	0.000537	1.000000
44278	0.106052	0.079747	9.882614	0.000926	0.001534	-0.001255	1.000000	-0.000348	0.000083	0.000348	1.000000	-0.000542	-0.000082	0.000542	1.000000
44279	0.109638	0.085721	9.848813	0.000585	0.003293	0.000341	1.000000	-0.000358	0.000079	0.000358	1.000000	-0.000551	-0.000079	0.000551	1.000000
44280	0.075244	0.054824	9.927715	0.002235	0.004620	0.001133	1.000000	-0.000395	0.000062	0.000396	1.000000	-0.000545	-0.000062	0.000545	1.000000
44281	0.102532	0.026289	9.890564	0.003502	0.004396	-0.001719	1.000000	-0.000425	0.000047	0.000425	1.000000	-0.000524	-0.000047	0.000524	1.000000
44282	0.106077	0.032441	9.856763	0.001650	0.001327	0.000791	1.000000	-0.000395	0.000065	0.000395	1.000000	-0.000521	-0.000064	0.000521	1.000000
44283	0.110392	0.049287	9.895423	0.004657	0.002335	0.002203	1.000000	-0.000385	0.000071	0.000385	1.000000	-0.000489	-0.000071	0.000489	1.000000
44284	0.089983	0.090273	9.864965	0.002958	0.004413	0.003179	1.000000	-0.000380	0.000056	0.000380	1.000000	-0.000474	-0.000056	0.000474	1.000000
44285	0.119365	0.024106	9.874428	-0.001406	0.003725	0.001146	1.000000	-0.000381	0.000048	0.000381	1.000000	-0.000503	-0.000048	0.000503	1.000000
44286	0.071282	0.093458	9.881117	-0.000341	0.001759	0.001596	1.000000	-0.000333	0.000061	0.000333	1.000000	-0.000519	-0.000061	0.000519	1.000000
44287	0.118774	0.024078	9.874435	0.001601	0.004733	0.002558	1.000000	-0.000320	0.000043	0.000320	1.000000	-0.000518	-0.000043	0.000518	1.000000
44288	0.094565	0.058925	9.877779	0.001016	0.001439	0.002217	1.000000	-0.000337	0.000056	0.000337	1.000000	-0.000523	-0.000056	0.000523	1.000000
44289	0.094262	0.059052	9.877781	0.001601	0.004733	0.002558	1.000000	-0.000324	0.000039	0.000324	1.000000	-0.000521	-0.000039	0.000521	1.000000
44290	0.108290	0.049957	9.895443	-0.001650	-0.001327	-0.000791	1.000000	-0.000351	0.000081	0.000351	1.000000	-0.000552	-0.000081	0.000552	1.000000
44291	0.111966	0.055849	9.861641	0.001691	0.004638	0.006030	1.000000	-0.000303	0.000065	0.000303	1.000000	-0.000551	-0.000065	0.000551	1.000000
44292	0.089071	0.042686	9.839129	0.001943	0.002974	0.000962	1.000000	-0.000350	0.000064	0.000350	1.000000	-0.000550	-0.000063	0.000550	1.000000
44293	0.107524	0.050243	9.895450	0.000293	0.001647	0.000171	1.000000	-0.000361	0.000077	0.000361	1.000000	-0.000561	-0.000077	0.000561	1.000000
44294	0.107312	0.050419	9.895451	0.003300	0.002654	0.001583	1.000000	-0.000425	0.000078	0.000425	1.000000	-0.000546	-0.000078	0.000546	1.000000
44295	0.115345	0.073041	9.900308	0.000585	0.003293	0.000341	1.000000	-0.000434	0.000075	0.000434	1.000000	-0.000555	-0.000075	0.000555	1.000000
44296	0.106063	0.040051	9.822995	0.001309	0.003086	0.002388	1.000000	-0.000435	0.000073	0.000435	1.000000	-0.000559	-0.000073	0.000559	1.000000
44297	0.092132	0.059968	9.877796	0.002235	0.004621	0.001133	1.000000	-0.000436	0.000057	0.000436	1.000000	-0.000551	-0.000056	0.000551	1.000000
44298	0.109843	0.056822	9.861660	-0.001064	0.001966	-0.000450	1.000000	-0.000444	0.000065	0.000444	1.000000	-0.000575	-0.000065	0.000575	1.000000
44299	0.123688	0.047689	9.879328	0.000244	0.005053	0.001938	1.000000	-0.000437	0.000044	0.000437	1.000000	-0.000588	-0.000044	0.000588	1.000000
44300	0.078991	0.031856	9.906751	0.003641	0.000895	-0.000013	1.000000	-0.000449	0.000066	0.000449	1.000000	-0.000567	-0.000065	0.000568	1.000000
44301	0.094700	0.066531	9.844001	0.005876	0.005516	0.001120	1.000000	-0.000449	0.000040	0.000449	1.000000	-0.000523	-0.000040	0.000523	1.000000
44302	0.122740	0.048720	9.879335	0.001650	0.001327	0.000792	1.000000	-0.000478	0.000054	0.000478	1.000000	-0.000521	-0.000054	0.000521	1.000000
44303	0.104473	0.052035	9.895473	0.000585	0.003294	0.000341	1.000000	-0.000487	0.000051	0.000487	1.000000	-0.000530	-0.000051	0.000530	1.000000
44304	0.104240	0.052113	9.895475	0.001016	0.001440	0.002217	1.000000	-0.000464	0.000068	0.000465	1.000000	-0.000535	-0.000067	0.000535	1.000000
44305	0.103985	0.052092	9.895478	-0.001406	0.003726	0.001146	1.000000	-0.000466	0.000060	0.000466	1.000000	-0.000564	-0.000060	0.000564	1.000000
44306	0.107459	0.058149	9.861678	0.004949	0.003982	0.002375	1.000000	-0.000464	0.000050	0.000464	1.000000	-0.000531	-0.000049	0.000531	1.000000
44307	0.103332	0.052556	9.895482	0.000927	0.001534	-0.001255	1.000000	-0.000490	0.000064	0.000490	1.000000	-0.000536	-0.000064	0.000536	1.000000
44308	0.103077	0.052564	9.895485	-0.000771	0.003613	-0.000280	1.000000	-0.000487	0.000058	0.000487	1.000000	-0.000558	-0.000057	0.000558	1.000000
44309	0.106543	0.058585	9.861686	0.003592	0.004302	0.001754	1.000000	-0.000481	0.000045	0.000481	1.000000	-0.000537	-0.000044	0.000537	1.000000
44310	0.106191	0.058889	9.861688	0.002577	0.002861	-0.000463	1.000000	-0.000504	0.000044	0.000504	1.000000	-0.000525	-0.000044	0.000525	1.000000
44311	0.105887	0.059045	9.861690	0.000586	0.003294	0.000341	1.000000	-0.000513	0.000041	0.000513	1.000000	-0.000534	-0.000040	0.000534	1.000000
44312	0.095776	0.084791	9.882677	0.001601	0.004734	0.002559	1.000000	-0.000488	0.000024	0.000488	1.000000	-0.000533	-0.000024	0.000533	1.000000
44313	0.101229	0.053345	9.895500	-0.000049	0.003407	0.001767	1.000000	-0.000483	0.000020	0.000483	1.000000	-0.000548	-0.000019	0.000548	1.000000
44314	0.086723	0.062492	9.877829	0.001220	0.003181	-0.001084	1.000000	-0.000529	0.000016	0.000529	1.000000	-0.000551	-0.000016	0.000551	1.000000
44315	0.104383	0.059424	9.861704	0.001689	0.004640	0.006031	1.000000	-0.000481	-0.000000	0.000481	1.000000	-0.000550	0.000000	0.000550	1.000000
44316	0.122720	0.067013	9.918037	0.000927	0.001534	-0.001255	1.000000	-0.000514	0.000013	0.000514	1.000000	-0.000556	-0.000013	0.000556	1.000000
44317	0.081966	0.057094	9.911636	0.003387	0.002561	0.005056	1.000000	-0.000476	0.000017	0.000476	1.000000	-0.000537	-0.000017	0.000537	1.000000
44318	0.095263	0.037524	9.856856	0.000586	0.003294	0.000341	1.000000	-0.000485	0.000013	0.000485	1.000000	-0.000546	-0.000012	0.000546	1.000000
44319	0.099516	0.054286	9.895512	0.003641	0.000895	-0.000012	1.000000	-0.000497	0.000033	0.000498	1.000000	-0.000524	-0.000033	0.000524	1.000000
44320	0.103190	0.060405	9.861710	0.001308	0.003087	0.002388	1.000000	-0.000513	0.000029	0.000513	1.000000	-0.000524	-0.000029	0.000524	1.000000
44321	0.084905	0.063664	9.877838	-0.000342	0.001760	0.001596	1.000000	-0.000509	0.000041	0.000509	1.000000	-0.000542	-0.000041	0.000542	1.000000
44322	0.084703	0.063905	9.877838	0.005203	0.002316	-0.002692	1.000000	-0.000567	0.000046	0.000567	1.000000	-0.000506	-0.000046	0.000506	1.000000
44323	0.122397	0.020289	9.892221	-0.001025	0.005280	0.004788	1.000000	-0.000531	0.000023	0.000531	1.000000	-0.000531	-0.000023	0.000531	1.000000
44324	0.102042	0.060889	9.861719	0.000927	0.001534	-0.001255	1.000000	-0.000598	0.000039	0.000598	1.000000	-0.000540	-0.000038	0.000540	1.000000
44325	0.083700	0.064295	9.877844	0.002958	0.004415	0.003180	1.000000	-0.000578	0.000024	0.000578	1.000000	-0.000525	-0.000024	0.000525	1.000000
44326	0.115575	0.052298	9.879403	0.003299	0.002655	0.001585	1.000000	-0.000567	0.000029	0.000567	1.000000	-0.000507	-0.000029	0.000507	1.000000
44327	0.092800	0.039245	9.856873	0.002577	0.002862	-0.000462	1.000000	-0.000584	0.000030	0.000584	1.000000	-0.000496	-0.000030	0.000496	1.000000
44328	0.115004	0.052746	9.879407	0.000673	0.003201	0.003813	1.000000	-0.000581	0.000026	0.000581	1.000000	-0.000504	-0.000026	0.000504	1.000000
44329	0.074208	0.042635	9.872997	-0.000342	0.001760	0.001596	1.000000	-0.000577	0.000038	0.000577	1.000000	-0.000522	-0.000038	0.000522	1.000000
44330	0.104828	0.078584	9.900383	0.003934	0.002542	0.000159	1.000000	-0.000576	0.000045	0.000576	1.000000	-0.000499	-0.000045	0.000499	1.000000
44331	0.087748	0.033732	9.890684	-0.003739	0.005920	0.003544	1.000000	-0.000554	0.000016	0.000554	1.000000	-0.000552	-0.000016	0.000552	1.000000
44332	0.104015	0.078699	9.900390	0.005926	0.002109	-0.000644	1.000000	-0.000592	0.000020	0.000592	1.000000	-0.000504	-0.000019	0.000504	1.000000
44333	0.113500	0.053505	9.879421	0.003299	0.002655	0.001585	1.000000	-0.000588	0.000023	0.000588	1.000000	-0.000486	-0.000023	0.000486	1.000000
44334	0.077117	0.060204	9.911657	0.001943	0.002975	0.000963	1.000000	-0.000593	0.000022	0.000593	1.000000	-0.000480	-0.000021	0.000480	1.000000
44335	0.109124	0.048073	9.913226	0.001650	0.001328	0.000792	1.000000	-0.000597	0.000038	0.000597	1.000000	-0.000478	-0.000038	0.000478	1.000000
44336	0.112783	0.054049	9.879426	0.000586	0.003294	0.000341	1.000000	-0.000609	0.000036	0.000609	1.000000	-0.000487	-0.000035	0.000487	1.000000
44337	0.080193	0.066594	9.877858	0.004227	0.004189	0.000330	1.000000	-0.000618	0.000024	0.000618	1.000000	-0.000459	-0.000023	0.000459	1.000000
44338	0.099806	0.026133	9.908385	-0.001319	0.003634	0.004617	1.000000	-0.000604	0.000016	0.000604	1.000000	-0.000488	-0.000016	0.000488	1.000000
44339	0.101592	0.069376	9.827945	0.001357	-0.000320	0.000622	1.000000	-0.000610	0.000049	0.000610	1.000000	-0.000489	-0.000049	0.000489	1.000000
44340	0.079526	0.066961	9.877861	0.003212	0.002748	-0.001887	1.000000	-0.000634	0.000055	0.000634	1.000000	-0.000473	-0.000055	0.000473	1.000000
44341	0.097375	0.063947	9.861747	0.001015	0.001441	0.002218	1.000000	-0.000624	0.000071	0.000624	1.000000	-0.000477	-0.000070	0.000477	1.000000
44342	0.093347	0.058215	9.895550	0.001650	0.001328	0.000793	1.000000	-0.000612	0.000087	0.000612	1.000000	-0.000473	-0.000087	0.000473	1.000000
44343	0.102929	0.032659	9.874589	0.000380	0.001555	0.003643	1.000000	-0.000588	0.000102	0.000588	1.000000	-0.000484	-0.000101	0.000484	1.000000
44344	0.111039	0.055201	9.879439	0.001943	0.002975	0.000963	1.000000	-0.000577	0.000101	0.000577	1.000000	-0.000477	-0.000101	0.000477	1.000000
44345	0.106242	0.038903	9.840791	0.003592	0.004303	0.001756	1.000000	-0.000572	0.000088	0.000572	1.000000	-0.000456	-0.000087	0.000456	1.000000
44346	0.096129	0.064667	9.861755	-0.001319	0.003635	0.004616	1.000000	-0.000527	0.000082	0.000527	1.000000	-0.000486	-0.000082	0.000486	1.000000
44347	0.092141	0.058758	9.895558	0.000342	-0.001761	-0.001596	1.000000	-0.000556	0.000129	0.000556	1.000000	-0.000497	-0.000129	0.000497	1.000000
44348	0.095816	0.064759	9.861757	0.002529	0.006270	0.001304	1.000000	-0.000568	0.000095	0.000568	1.000000	-0.000489	-0.000095	0.000489	1.000000
44349	0.091450	0.059086	9.895562	0.001221	0.003181	-0.001084	1.000000	-0.000591	0.000093	0.000591	1.000000	-0.000491	-0.000093	0.000491	1.000000
44350	0.109210	0.056047	9.879455	0.002578	0.002862	-0.000462	1.000000	-0.000607	0.000093	0.000607	1.000000	-0.000480	-0.000093	0.000480	1.000000
44351	0.108938	0.056337	9.879456	0.003299	0.002656	0.001585	1.000000	-0.000604	0.000096	0.000604	1.000000	-0.000462	-0.000096	0.000462	1.000000
44352	0.090519	0.059838	9.895566	0.002236	0.004623	0.001134	1.000000	-0.000652	0.000078	0.000652	1.000000	-0.000457	-0.000078	0.000457	1.000000
44353	0.108264	0.056701	9.879462	-0.000342	0.001761	0.001596	1.000000	-0.000649	0.000091	0.000649	1.000000	-0.000475	-0.000090	0.000475	1.000000
44354	0.093826	0.066011	9.861768	0.004949	0.003984	0.002378	1.000000	-0.000645	0.000080	0.000645	1.000000	-0.000441	-0.000079	0.000441	1.000000
44355	0.097879	0.082792	9.900419	-0.000770	0.003614	-0.000281	1.000000	-0.000660	0.000073	0.000661	1.000000	-0.000463	-0.000073	0.000464	1.000000
44356	0.084895	0.043927	9.856924	0.003641	0.000895	-0.000010	1.000000	-0.000682	0.000090	0.000682	1.000000	-0.000440	-0.000089	0.000440	1.000000
44357	0.080731	0.038431	9.890727	0.003592	0.004304	0.001756	1.000000	-0.000676	0.000076	0.000676	1.000000	-0.000419	-0.000076	0.000419	1.000000
44358	0.092615	0.066985	9.861773	0.001943	0.002976	0.000963	1.000000	-0.000706	0.000077	0.000706	1.000000	-0.000419	-0.000077	0.000419	1.000000
44359	0.124615	0.054814	9.863369	0.001014	0.001442	0.002218	1.000000	-0.000696	0.000092	0.000696	1.000000	-0.000423	-0.000092	0.000423	1.000000
44360	0.102418	0.052309	9.913276	0.001307	0.003089	0.002388	1.000000	-0.000686	0.000088	0.000686	1.000000	-0.000424	-0.000088	0.000424	1.000000
44361	0.093236	0.019142	9.835983	-0.001405	0.003728	0.001143	1.000000	-0.000687	0.000080	0.000687	1.000000	-0.000452	-0.000080	0.000452	1.000000
44362	0.091625	0.067379	9.861779	0.004362	0.000689	0.002038	1.000000	-0.000651	0.000104	0.000651	1.000000	-0.000420	-0.000103	0.000420	1.000000
44363	0.091385	0.067802	9.861779	0.004228	0.004190	0.000331	1.000000	-0.000660	0.000092	0.000660	1.000000	-0.000393	-0.000091	0.000393	1.000000
44364	0.100699	0.042175	9.840836	-0.003483	0.004253	-0.001527	1.000000	-0.000667	0.000078	0.000667	1.000000	-0.000439	-0.000078	0.000439	1.000000
44365	0.110586	0.027203	9.892343	0.002664	0.002770	0.003011	1.000000	-0.000649	0.000080	0.000649	1.000000	-0.000427	-0.000080	0.000427	1.000000
44366	0.096148	0.036479	9.874643	0.001307	0.003090	0.002388	1.000000	-0.000614	0.000080	0.000614	1.000000	-0.000428	-0.000079	0.000428	1.000000
44367	0.104159	0.058937	9.879493	-0.000684	0.003523	0.003191	1.000000	-0.000595	0.000074	0.000595	1.000000	-0.000450	-0.000074	0.000450	1.000000
44368	0.095568	0.036486	9.874649	0.000293	0.001648	0.000170	1.000000	-0.000618	0.000086	0.000618	1.000000	-0.000462	-0.000086	0.000462	1.000000
44369	0.103558	0.058874	9.879499	-0.001112	0.005376	0.001314	1.000000	-0.000617	0.000062	0.000617	1.000000	-0.000487	-0.000062	0.000487	1.000000
44370	0.103097	0.059062	9.879503	0.004948	0.003984	0.002380	1.000000	-0.000617	0.000051	0.000617	1.000000	-0.000453	-0.000050	0.000453	1.000000
44371	0.084756	0.062589	9.895600	0.000929	0.001534	-0.001254	1.000000	-0.000643	0.000065	0.000643	1.000000	-0.000458	-0.000065	0.000458	1.000000
44372	0.116735	0.050346	9.897212	0.000672	0.003204	0.003813	1.000000	-0.000595	0.000064	0.000595	1.000000	-0.000464	-0.000064	0.000464	1.000000
44373	0.093950	0.037127	9.874662	0.001943	0.002976	0.000964	1.000000	-0.000598	0.000065	0.000598	1.000000	-0.000460	-0.000064	0.000460	1.000000
44374	0.083924	0.062986	9.895605	0.001943	0.002976	0.000964	1.000000	-0.000589	0.000065	0.000589	1.000000	-0.000454	-0.000064	0.000454	1.000000
44375	0.097351	0.043239	9.840865	-0.000342	0.001762	0.001595	1.000000	-0.000586	0.000077	0.000586	1.000000	-0.000472	-0.000077	0.000472	1.000000
44376	0.101430	0.059850	9.879516	0.000880	0.004943	0.000511	1.000000	-0.000571	0.000059	0.000571	1.000000	-0.000477	-0.000058	0.000477	1.000000
44377	0.101094	0.059873	9.879519	-0.000427	0.001853	-0.001877	1.000000	-0.000603	0.000070	0.000603	1.000000	-0.000495	-0.000069	0.000495	1.000000
44378	0.100937	0.059934	9.879520	0.001649	0.001328	0.000793	1.000000	-0.000614	0.000089	0.000614	1.000000	-0.000497	-0.000089	0.000497	1.000000
44379	0.086584	0.069193	9.861812	0.001943	0.002976	0.000964	1.000000	-0.000617	0.000089	0.000617	1.000000	-0.000492	-0.000089	0.000492	1.000000
44380	0.100421	0.060237	9.879524	0.000671	0.003204	0.003814	1.000000	-0.000604	0.000088	0.000604	1.000000	-0.000503	-0.000088	0.000503	1.000000
44381	0.109771	0.034708	9.858590	0.002236	0.004624	0.001134	1.000000	-0.000605	0.000072	0.000605	1.000000	-0.000495	-0.000072	0.000495	1.000000
44382	0.099721	0.060471	9.879529	-0.000342	0.001762	0.001595	1.000000	-0.000629	0.000083	0.000629	1.000000	-0.000515	-0.000083	0.000515	1.000000
44383	0.107907	0.082963	9.884377	0.001649	0.001328	0.000793	1.000000	-0.000634	0.000100	0.000634	1.000000	-0.000513	-0.000099	0.000513	1.000000
44384	0.095068	0.044241	9.840883	0.004362	0.000689	0.002040	1.000000	-0.000613	0.000122	0.000613	1.000000	-0.000482	-0.000122	0.000482	1.000000
44385	0.129548	0.086143	9.834486	0.001516	0.004829	-0.000913	1.000000	-0.000634	0.000103	0.000634	1.000000	-0.000481	-0.000103	0.000481	1.000000
44386	0.112949	0.052178	9.897246	0.001391	0.002999	0.005861	1.000000	-0.000592	0.000104	0.000592	1.000000	-0.000483	-0.000104	0.000483	1.000000
44387	0.054101	0.045434	9.906865	0.000929	0.001534	-0.001254	1.000000	-0.000617	0.000118	0.000617	1.000000	-0.000488	-0.000118	0.000488	1.000000
44388	0.134448	0.055073	9.847363	0.002956	0.004419	0.003182	1.000000	-0.000618	0.000100	0.000618	1.000000	-0.000473	-0.000100	0.000473	1.000000
44389	0.089588	0.039344	9.874694	0.001307	0.003090	0.002389	1.000000	-0.000607	0.000099	0.000607	1.000000	-0.000475	-0.000099	0.000475	1.000000
44390	0.115802	0.058736	9.863454	0.003005	0.001009	0.001417	1.000000	-0.000593	0.000120	0.000593	1.000000	-0.000459	-0.000120	0.000459	1.000000
44391	0.097449	0.062241	9.879541	0.002236	0.004624	0.001134	1.000000	-0.000594	0.000104	0.000594	1.000000	-0.000451	-0.000104	0.000451	1.000000
44392	0.097058	0.062379	9.879544	0.000587	0.003296	0.000341	0.999999	-0.001313	-0.000041	0.001313	0.999999	-0.000687	0.000042	0.000687	1.000000
44393	0.105105	0.084999	9.884390	0.003299	0.002657	0.001587	0.999999	-0.001309	-0.000038	0.001309	0.999999	-0.000669	0.000039	0.000669	1.000000
44394	0.110667	0.053599	9.897264	-0.001063	0.001967	-0.000453	0.999999	-0.001343	-0.000032	0.001343	0.999999	-0.000696	0.000033	0.000696	1.000000
44395	0.084004	0.034463	9.908506	0.001943	0.002976	0.000964	0.999999	-0.001346	-0.000032	0.001346	0.999999	-0.000692	0.000033	0.000692	1.000000
44396	0.077878	0.065966	9.895635	-0.002041	0.003844	0.002567	0.999999	-0.001330	-0.000040	0.001330	0.999999	-0.000728	0.000040	0.000728	1.000000
44397	0.127763	0.050460	9.881193	0.003592	0.004305	0.001758	0.999999	-0.001324	-0.000053	0.001324	0.999999	-0.000707	0.000054	0.000707	1.000000
44398	0.086840	0.040569	9.874714	0.000587	0.003296	0.000341	0.999999	-0.001338	-0.000057	0.001338	0.999999	-0.000716	0.000057	0.000716	1.000000
44399	0.108977	0.053941	9.897281	-0.000049	0.003410	0.001766	0.999999	-0.001333	-0.000061	0.001333	0.999999	-0.000731	0.000062	0.000731	1.000000
44400	0.068124	0.044002	9.890798	0.003215	0.002748	-0.001885	0.999999	-0.001350	-0.000059	0.001350	0.999999	-0.000712	0.000060	0.000712	1.000000
44401	0.116637	0.076731	9.902131	0.000964	0.004853	0.003984	0.999999	-0.001323	-0.000078	0.001323	0.999999	-0.000718	0.000078	0.000718	1.000000
44402	0.103517	0.037812	9.858646	0.001223	0.003182	-0.001084	0.999999	-0.001353	-0.000081	0.001352	0.999999	-0.000721	0.000082	0.000721	1.000000
44403	0.097461	0.069609	9.845769	0.004655	0.002338	0.002211	0.999999	-0.001342	-0.000074	0.001342	0.999999	-0.000690	0.000075	0.000690	1.000000
44404	0.093139	0.064021	9.879571	0.000244	0.005059	0.001936	0.999999	-0.001347	-0.000098	0.001347	0.999999	-0.000703	0.000098	0.000703	1.000000
44405	0.102567	0.038432	9.858653	0.001649	0.001329	0.000794	0.999999	-0.001352	-0.000081	0.001352	0.999999	-0.000701	0.000082	0.000701	1.000000
44406	0.110696	0.061036	9.863499	0.001943	0.002977	0.000964	0.999999	-0.001349	-0.000080	0.001349	0.999999	-0.000697	0.000081	0.000697	1.000000
44407	0.098175	0.032926	9.892457	0.001013	0.001443	0.002219	0.999999	-0.001339	-0.000065	0.001339	0.999999	-0.000702	0.000066	0.000702	1.000000
44408	0.106277	0.055400	9.897303	-0.000049	0.003411	0.001765	0.999999	-0.001328	-0.000069	0.001328	0.999999	-0.000716	0.000070	0.000716	1.000000
44409	0.101622	0.039055	9.858661	0.005291	0.002223	0.000787	0.999999	-0.001332	-0.000062	0.001332	0.999999	-0.000678	0.000063	0.000678	1.000000
44410	0.105679	0.055718	9.897307	-0.004034	0.004279	0.003367	0.999999	-0.001317	-0.000077	0.001317	0.999999	-0.000732	0.000078	0.000732	1.000000
44411	0.109288	0.061437	9.863512	0.001943	0.002977	0.000965	0.999999	-0.001320	-0.000077	0.001320	0.999999	-0.000728	0.000078	0.000728	1.000000
44412	0.123113	0.052547	9.881241	0.001943	0.002977	0.000965	0.999999	-0.001326	-0.000079	0.001326	0.999999	-0.000722	0.000080	0.000722	1.000000
44413	0.108843	0.061690	9.863515	-0.000636	0.000115	0.001425	0.999999	-0.001325	-0.000050	0.001325	0.999999	-0.000743	0.000051	0.000743	1.000000
44414	0.096379	0.033503	9.892472	0.001943	0.002977	0.000965	0.999999	-0.001327	-0.000049	0.001327	0.999999	-0.000741	0.000050	0.000741	1.000000
44415	0.122537	0.052963	9.881246	0.003935	0.002543	0.000164	0.999999	-0.001338	-0.000045	0.001338	0.999999	-0.000716	0.000046	0.000716	1.000000
44416	0.104237	0.056397	9.897319	-0.000343	0.001763	0.001595	0.999999	-0.001324	-0.000033	0.001324	0.999999	-0.000734	0.000034	0.000734	1.000000
44417	0.122070	0.053118	9.881251	-0.000049	0.003411	0.001765	0.999999	-0.001319	-0.000037	0.001319	0.999999	-0.000749	0.000038	0.000749	1.000000
44418	0.081261	0.043354	9.874749	0.006647	0.001904	0.001412	0.999999	-0.001319	-0.000029	0.001319	0.999999	-0.000697	0.000029	0.000697	1.000000
44419	0.084994	0.049596	9.840950	0.001943	0.002977	0.000965	0.999999	-0.001322	-0.000029	0.001322	0.999999	-0.000692	0.000030	0.000692	1.000000
44420	0.094738	0.034804	9.892484	0.000244	0.005059	0.001936	0.999999	-0.001324	-0.000051	0.001324	0.999999	-0.000707	0.000052	0.000707	1.000000
44421	0.096981	0.088764	9.884440	0.000294	0.001648	0.000170	0.999999	-0.001335	-0.000038	0.001335	0.999999	-0.000719	0.000039	0.000718	1.000000
44422	0.102522	0.057367	9.897331	0.001943	0.002977	0.000965	0.999999	-0.001351	-0.000039	0.001351	0.999999	-0.000717	0.000040	0.000717	1.000000
44423	0.097959	0.041001	9.858690	0.003005	0.001009	0.001418	0.999999	-0.001349	-0.000019	0.001349	0.999999	-0.000702	0.000020	0.000702	1.000000
44424	0.079673	0.044506	9.874757	0.001943	0.002977	0.000965	0.999999	-0.001354	-0.000019	0.001354	0.999999	-0.000698	0.000020	0.000698	1.000000
44425	0.128291	0.077309	9.886109	0.003935	0.002543	0.000164	0.999999	-0.001364	-0.000015	0.001364	0.999999	-0.000674	0.000016	0.000674	1.000000
44426	0.097269	0.041675	9.858694	-0.001062	0.001968	-0.000454	0.999999	-0.001380	-0.000006	0.001380	0.999999	-0.000698	0.000007	0.000698	1.000000
44427	0.109651	0.080742	9.902179	0.001682	0.004651	0.006032	0.999999	-0.001332	-0.000023	0.001332	0.999999	-0.000697	0.000023	0.000697	1.000000
44428	0.104925	0.064369	9.863540	0.003216	0.002747	-0.001884	0.999999	-0.001372	-0.000020	0.001372	0.999999	-0.000682	0.000021	0.000682	1.000000
44429	0.086615	0.067808	9.879605	0.000294	0.001648	0.000170	0.999999	-0.001383	-0.000007	0.001383	0.999999	-0.000694	0.000008	0.000694	1.000000
44430	0.110336	0.033168	9.876438	0.002368	0.001124	0.002843	0.999999	-0.001378	0.000009	0.001378	0.999999	-0.000684	-0.000008	0.000684	1.000000
44431	0.104371	0.064883	9.863543	0.001943	0.002977	0.000965	0.999999	-0.001381	0.000009	0.001381	0.999999	-0.000680	-0.000008	0.000680	1.000000
44432	0.081993	0.062497	9.913407	0.001306	0.003092	0.002389	0.999999	-0.001353	0.000009	0.001353	0.999999	-0.000680	-0.000008	0.000680	1.000000
44433	0.109557	0.033794	9.876445	0.003935	0.002543	0.000165	0.999999	-0.001364	0.000013	0.001364	0.999999	-0.000655	-0.000012	0.000655	1.000000
44434	0.085408	0.068757	9.879609	-0.000049	0.003412	0.001765	0.999999	-0.001364	0.000008	0.001364	0.999999	-0.000673	-0.000007	0.000673	1.000000
44435	0.090821	0.037212	9.892512	-0.000768	0.003616	-0.000284	0.999999	-0.001380	0.000002	0.001380	0.999999	-0.000695	-0.000001	0.000695	1.000000
44436	0.084615	0.069000	9.879614	0.006515	0.005405	-0.000294	0.999999	-0.001402	-0.000023	0.001402	0.999999	-0.000646	0.000024	0.000646	1.000000
44437	0.102445	0.066054	9.863555	0.000000	0.000000	0.000000	0.999999	-0.001402	-0.000023	0.001402	0.999999	-0.000646	0.000024	0.000646	1.000000
44438	0.075856	0.046990	9.874776	0.001943	0.002977	0.000965	0.999999	-0.001391	-0.000021	0.001391	0.999999	-0.000640	0.000021	0.000640	1.000000
44439	0.101924	0.066354	9.863559	0.002237	0.004626	0.001135	0.999999	-0.001392	-0.000037	0.001392	0.999999	-0.000633	0.000038	0.000633	1.000000
44440	0.097554	0.060753	9.897361	0.001943	0.002978	0.000965	0.999999	-0.001407	-0.000041	0.001407	0.999999	-0.000627	0.000042	0.000627	1.000000
44441	0.092884	0.044192	9.858725	-0.000686	0.003527	0.003189	0.999999	-0.001387	-0.000047	0.001387	0.999999	-0.000649	0.000048	0.000649	1.000000
44442	0.125065	0.042870	9.932854	0.004948	0.003987	0.002384	0.999999	-0.001363	-0.000057	0.001363	0.999999	-0.000611	0.000058	0.000611	1.000000
44443	0.092173	0.044737	9.858729	0.001943	0.002978	0.000965	0.999999	-0.001365	-0.000057	0.001365	0.999999	-0.000607	0.000058	0.000607	1.000000
44444	0.091918	0.044746	9.858732	-0.001780	0.002172	-0.002503	0.999999	-0.001411	-0.000053	0.001411	0.999999	-0.000638	0.000054	0.000638	1.000000
44445	0.096025	0.061445	9.897372	0.003298	0.002658	0.001590	0.999999	-0.001407	-0.000050	0.001407	0.999999	-0.000620	0.000050	0.000620	1.000000
44446	0.099760	0.067540	9.863573	0.002661	0.002774	0.003014	0.999999	-0.001387	-0.000046	0.001387	0.999999	-0.000609	0.000047	0.000609	1.000000
44447	0.127760	0.049634	9.899066	0.002286	0.001214	-0.000629	0.999999	-0.001406	-0.000029	0.001406	0.999999	-0.000601	0.000030	0.000601	1.000000
44448	0.089516	0.093675	9.884465	0.001600	0.004742	0.002560	0.999999	-0.001387	-0.000046	0.001387	0.999999	-0.000600	0.000046	0.000600	1.000000
44449	0.098865	0.068016	9.863579	-0.000687	0.003528	0.003189	0.999999	-0.001368	-0.000051	0.001368	0.999999	-0.000622	0.000052	0.000622	1.000000
44450	0.090188	0.045614	9.858744	0.001225	0.003182	-0.001084	0.999999	-0.001408	-0.000056	0.001408	0.999999	-0.000627	0.000057	0.000627	1.000000
44451	0.112358	0.059256	9.881331	0.004654	0.002339	0.002215	0.999999	-0.001398	-0.000050	0.001398	0.999999	-0.000596	0.000050	0.000596	1.000000
44452	0.085543	0.040345	9.892547	0.000244	0.005061	0.001935	0.999999	-0.001408	-0.000073	0.001408	0.999999	-0.000609	0.000074	0.000609	1.000000
44453	0.111641	0.059422	9.881339	-0.001699	0.002083	0.000970	0.999999	-0.001411	-0.000064	0.001411	0.999999	-0.000641	0.000065	0.000641	1.000000
44454	0.084925	0.040216	9.892552	0.000588	0.003297	0.000341	0.999999	-0.001429	-0.000068	0.001429	0.999999	-0.000653	0.000068	0.000653	1.000000
44455	0.106807	0.042816	9.842707	0.001012	0.001445	0.002219	0.999999	-0.001419	-0.000052	0.001419	0.999999	-0.000658	0.000053	0.000658	1.000000
44456	0.110843	0.059603	9.881346	0.002237	0.004627	0.001136	0.999999	-0.001424	-0.000071	0.001424	0.999999	-0.000650	0.000072	0.000650	1.000000
44457	0.106378	0.054058	9.915149	0.002874	0.004511	-0.000288	0.999999	-0.001439	-0.000087	0.001439	0.999999	-0.000636	0.000088	0.000636	1.000000
44458	0.092048	0.063179	9.897399	-0.001912	0.000346	0.004272	0.999999	-0.001422	-0.000062	0.001422	0.999999	-0.000673	0.000063	0.000672	1.000000
44459	0.105496	0.043298	9.842719	0.002531	0.006275	0.001306	0.999999	-0.001421	-0.000095	0.001421	0.999999	-0.000662	0.000096	0.000662	1.000000
44460	0.105456	0.054437	9.915157	0.003642	0.000894	-0.000004	0.999999	-0.001441	-0.000076	0.001441	0.999999	-0.000642	0.000077	0.000642	1.000000
44461	0.086846	0.047155	9.858767	0.001943	0.002978	0.000965	0.999999	-0.001443	-0.000076	0.001443	0.999999	-0.000638	0.000077	0.000638	1.000000
44462	0.123077	0.051625	9.899116	0.001943	0.002978	0.000965	0.999999	-0.001454	-0.000076	0.001454	0.999999	-0.000636	0.000077	0.000636	1.000000
44463	0.094592	0.069897	9.863607	0.000588	0.003298	0.000341	0.999999	-0.001463	-0.000079	0.001463	0.999999	-0.000645	0.000080	0.000645	1.000000
44464	0.104430	0.055140	9.915164	0.001649	0.001329	0.000795	0.999999	-0.001463	-0.000062	0.001463	0.999999	-0.000644	0.000063	0.000644	1.000000
44465	0.085820	0.047823	9.858772	0.003298	0.002659	0.001591	0.999999	-0.001460	-0.000059	0.001460	0.999999	-0.000626	0.000060	0.000626	1.000000
44466	0.107946	0.061270	9.881368	-0.001325	0.003644	0.004613	0.999999	-0.001438	-0.000069	0.001438	0.999999	-0.000654	0.000070	0.000654	1.000000
44467	0.111613	0.066956	9.847574	-0.000767	0.003617	-0.000285	0.999999	-0.001454	-0.000076	0.001453	0.999999	-0.000677	0.000077	0.000677	1.000000
44468	0.080906	0.042163	9.892578	0.003642	0.000894	-0.000004	0.999999	-0.001454	-0.000055	0.001453	0.999999	-0.000653	0.000056	0.000653	1.000000
44469	0.143329	0.055096	9.849295	0.003592	0.004308	0.001761	0.999999	-0.001448	-0.000068	0.001448	0.999999	-0.000632	0.000069	0.000632	1.000000
44470	0.084398	0.048567	9.858781	0.001649	0.001329	0.000795	0.999999	-0.001467	-0.000054	0.001467	0.999999	-0.000632	0.000055	0.000632	1.000000
44471	0.098242	0.039540	9.876542	-0.000687	0.003529	0.003189	0.999999	-0.001448	-0.000059	0.001448	0.999999	-0.000654	0.000060	0.000654	1.000000
44472	0.110291	0.067780	9.847583	0.001225	0.003182	-0.001084	0.999999	-0.001475	-0.000062	0.001475	0.999999	-0.000657	0.000063	0.000657	1.000000
44473	0.087997	0.065340	9.897421	0.000080	-0.000088	0.003473	0.999999	-0.001453	-0.000031	0.001453	0.999999	-0.000672	0.000032	0.000671	1.000000
44474	0.111616	0.030667	9.894310	0.002237	0.004627	0.001136	0.999999	-0.001434	-0.000045	0.001434	0.999999	-0.000662	0.000046	0.000662	1.000000
44475	0.119705	0.053448	9.899147	0.004917	0.000663	-0.002851	0.999999	-0.001475	-0.000022	0.001475	0.999999	-0.000628	0.000023	0.000628	1.000000
44476	0.091261	0.071849	9.863625	0.000244	0.005062	0.001935	0.999999	-0.001473	-0.000046	0.001473	0.999999	-0.000638	0.000047	0.000638	1.000000
44477	0.114865	0.037109	9.860518	0.000717	-0.000204	0.002049	0.999999	-0.001466	-0.000014	0.001466	0.999999	-0.000646	0.000015	0.000646	1.000000
44478	0.095198	0.088633	9.902261	0.001305	0.003094	0.002390	0.999999	-0.001458	-0.000014	0.001458	0.999999	-0.000651	0.000015	0.000651	1.000000
44479	0.087944	0.018160	9.871722	0.000588	0.003298	0.000340	0.999999	-0.001467	-0.000018	0.001467	0.999999	-0.000660	0.000019	0.000660	1.000000
44480	0.108645	0.079745	9.920030	0.001305	0.003094	0.002390	0.999999	-0.001474	-0.000022	0.001474	0.999999	-0.000664	0.000023	0.000664	1.000000
44481	0.081636	0.050042	9.858797	0.004653	0.002340	0.002217	0.999999	-0.001464	-0.000016	0.001464	0.999999	-0.000632	0.000017	0.000632	1.000000
44482	0.113839	0.048835	9.932961	0.001385	0.003007	0.005863	0.999999	-0.001419	-0.000015	0.001419	0.999999	-0.000636	0.000016	0.000636	1.000000
44483	0.089402	0.072790	9.863635	-0.000767	0.003617	-0.000285	0.999999	-0.001435	-0.000022	0.001435	0.999999	-0.000659	0.000023	0.000659	1.000000
44484	0.112985	0.038010	9.860536	0.000932	0.001533	-0.001254	0.999999	-0.001472	-0.000011	0.001472	0.999999	-0.000664	0.000012	0.000664	1.000000
44485	0.111367	0.086361	9.886239	0.003298	0.002659	0.001591	0.999999	-0.001468	-0.000008	0.001468	0.999999	-0.000646	0.000009	0.000646	1.000000
44486	0.076187	0.045073	9.892603	0.002237	0.004628	0.001136	0.999999	-0.001474	-0.000026	0.001474	0.999999	-0.000638	0.000027	0.000638	1.000000
44487	0.106320	0.070160	9.847610	0.001305	0.003095	0.002390	0.999999	-0.001462	-0.000027	0.001462	0.999999	-0.000640	0.000028	0.000640	1.000000
44488	0.107761	0.032961	9.894345	0.000294	0.001649	0.000170	0.999999	-0.001478	-0.000015	0.001478	0.999999	-0.000654	0.000016	0.000654	1.000000
44489	0.093417	0.042323	9.876578	0.005585	0.003873	0.000963	0.999999	-0.001481	-0.000024	0.001481	0.999999	-0.000613	0.000025	0.000613	1.000000
44490	0.127872	0.084087	9.870219	-0.001326	0.003646	0.004612	0.999999	-0.001454	-0.000031	0.001454	0.999999	-0.000645	0.000032	0.000645	1.000000
44491	0.097025	0.059206	9.915216	0.001943	0.002979	0.000966	0.999999	-0.001457	-0.000031	0.001457	0.999999	-0.000641	0.000032	0.000641	1.000000
44492	0.092458	0.042882	9.876584	0.004653	0.002340	0.002217	0.999999	-0.001445	-0.000024	0.001445	0.999999	-0.000610	0.000024	0.000610	1.000000
44493	0.092083	0.043088	9.876587	-0.000472	0.005267	-0.000115	0.999999	-0.001458	-0.000047	0.001458	0.999999	-0.000630	0.000048	0.000630	1.000000
44494	0.140475	0.075591	9.888006	0.000882	0.004947	0.000511	0.999999	-0.001473	-0.000067	0.001473	0.999999	-0.000638	0.000068	0.000638	1.000000
44495	0.099547	0.065704	9.881428	0.002581	0.002863	-0.000458	0.999999	-0.001490	-0.000066	0.001489	0.999999	-0.000627	0.000067	0.000627	1.000000
44496	0.095181	0.060055	9.915228	-0.000050	0.003414	0.001764	0.999999	-0.001482	-0.000071	0.001482	0.999999	-0.000642	0.000072	0.000642	1.000000
44497	0.104655	0.034524	9.894373	0.003936	0.002544	0.000168	0.999999	-0.001492	-0.000067	0.001492	0.999999	-0.000617	0.000068	0.000617	1.000000
44498	0.098682	0.066344	9.881432	0.002660	0.002776	0.003016	0.999999	-0.001470	-0.000064	0.001470	0.999999	-0.000606	0.000065	0.000606	1.000000
44499	0.090013	0.044011	9.876602	-0.000767	0.003618	-0.000286	0.999999	-0.001486	-0.000071	0.001486	0.999999	-0.000628	0.000071	0.000628	1.000000
44500	0.098144	0.066579	9.881436	0.003642	0.000894	-0.000002	0.999999	-0.001497	-0.000049	0.001497	0.999999	-0.000609	0.000050	0.000609	1.000000
44501	0.130129	0.054451	9.883192	0.001226	0.003182	-0.001083	0.999999	-0.001520	-0.000052	0.001520	0.999999	-0.000611	0.000053	0.000611	1.000000
44502	0.079529	0.070342	9.897459	0.003298	0.002660	0.001592	0.999999	-0.001493	-0.000044	0.001493	0.999999	-0.000591	0.000045	0.000591	1.000000
44503	0.084959	0.039106	9.910405	0.001943	0.002979	0.000966	0.999999	-0.001496	-0.000044	0.001496	0.999999	-0.000587	0.000045	0.000587	1.000000
44504	0.097066	0.067425	9.881441	0.000588	0.003299	0.000340	0.999999	-0.001513	-0.000050	0.001513	0.999999	-0.000596	0.000050	0.000596	1.000000
44505	0.102403	0.036169	9.894391	0.004230	0.004193	0.000339	0.999999	-0.001522	-0.000062	0.001522	0.999999	-0.000568	0.000063	0.000568	1.000000
44506	0.096586	0.067924	9.881442	0.001061	-0.001969	0.000456	0.999999	-0.001541	-0.000013	0.001541	0.999999	-0.000576	0.000014	0.000576	1.000000
44507	0.087949	0.045723	9.876613	0.003542	0.007724	0.003526	0.999999	-0.001517	-0.000061	0.001517	0.999999	-0.000556	0.000062	0.000556	1.000000
44508	0.091871	0.062624	9.915244	0.001355	-0.000319	0.000626	0.999999	-0.001539	-0.000031	0.001539	0.999999	-0.000559	0.000032	0.000559	1.000000
44509	0.091501	0.051791	9.842818	-0.000050	0.003415	0.001764	0.999999	-0.001534	-0.000035	0.001534	0.999999	-0.000575	0.000036	0.000575	1.000000
44510	0.095456	0.068478	9.881450	0.000588	0.003299	0.000340	0.999999	-0.001554	-0.000040	0.001554	0.999999	-0.000586	0.000041	0.000586	1.000000
44511	0.082803	0.040398	9.910418	0.001649	0.001330	0.000796	0.999999	-0.001559	-0.000024	0.001558	0.999999	-0.000585	0.000025	0.000585	1.000000
44512	0.127125	0.056440	9.883220	0.002876	0.004512	-0.000287	0.999999	-0.001579	-0.000041	0.001579	0.999999	-0.000571	0.000042	0.000571	1.000000
44513	0.130838	0.062474	9.849425	0.002659	0.002777	0.003016	0.999999	-0.001561	-0.000039	0.001561	0.999999	-0.000559	0.000040	0.000559	1.000000
44514	0.071865	0.055852	9.858842	-0.000050	0.003415	0.001764	0.999999	-0.001551	-0.000044	0.001551	0.999999	-0.000572	0.000045	0.000572	1.000000
44515	0.103806	0.043523	9.860614	0.000933	0.001533	-0.001254	0.999999	-0.001576	-0.000030	0.001576	0.999999	-0.000577	0.000031	0.000577	1.000000
44516	0.093706	0.069311	9.881460	0.000244	0.005065	0.001934	0.999999	-0.001571	-0.000053	0.001571	0.999999	-0.000588	0.000054	0.000588	1.000000
44517	0.117215	0.034573	9.878406	0.001010	0.001447	0.002220	0.999999	-0.001562	-0.000037	0.001562	0.999999	-0.000593	0.000038	0.000593	1.000000
44518	0.084807	0.047058	9.876634	0.001305	0.003096	0.002390	0.999999	-0.001561	-0.000042	0.001561	0.999999	-0.000594	0.000042	0.000594	1.000000
44519	0.106916	0.060575	9.899253	0.001943	0.002980	0.000967	0.999999	-0.001563	-0.000042	0.001563	0.999999	-0.000590	0.000043	0.000590	1.000000
44520	0.110691	0.066461	9.865458	0.000666	0.003213	0.003814	0.999999	-0.001543	-0.000045	0.001543	0.999999	-0.000600	0.000046	0.000600	1.000000
44521	0.083838	0.047584	9.876640	0.004231	0.004193	0.000340	0.999999	-0.001551	-0.000057	0.001551	0.999999	-0.000572	0.000058	0.000572	1.000000
44522	0.109942	0.066841	9.865463	-0.001327	0.003649	0.004611	0.999999	-0.001526	-0.000066	0.001526	0.999999	-0.000602	0.000067	0.000602	1.000000
44523	0.105696	0.061082	9.899263	0.001355	-0.000319	0.000626	0.999999	-0.001532	-0.000034	0.001532	0.999999	-0.000604	0.000034	0.000604	1.000000
44524	0.115209	0.035671	9.878426	0.005241	0.005640	0.002560	0.999999	-0.001512	-0.000060	0.001512	0.999999	-0.000565	0.000060	0.000565	1.000000
44525	0.096819	0.039339	9.894435	0.001993	-0.000436	-0.000797	0.999999	-0.001533	-0.000026	0.001533	0.999999	-0.000560	0.000027	0.000560	1.000000
44526	0.109153	0.067780	9.865466	0.003298	0.002660	0.001593	0.999999	-0.001535	-0.000024	0.001535	0.999999	-0.000543	0.000025	0.000543	1.000000
44527	0.092241	0.023172	9.855810	0.001649	0.001330	0.000797	0.999999	-0.001539	-0.000007	0.001539	0.999999	-0.000542	0.000008	0.000542	1.000000
44528	0.094671	0.077134	9.847677	-0.000689	0.003532	0.003187	0.999999	-0.001533	-0.000016	0.001533	0.999999	-0.000566	0.000017	0.000566	1.000000
44529	0.090208	0.071586	9.881477	0.004869	0.004077	-0.001084	0.999999	-0.001556	-0.000027	0.001556	0.999999	-0.000532	0.000028	0.000532	1.000000
44530	0.136054	0.050314	9.901060	-0.001327	0.003649	0.004611	0.999999	-0.001524	-0.000035	0.001524	0.999999	-0.000559	0.000036	0.000559	1.000000
44531	0.089615	0.071936	9.881480	0.004919	0.000661	-0.002847	0.999999	-0.001565	-0.000012	0.001565	0.999999	-0.000525	0.000013	0.000525	1.000000
44532	0.103366	0.063062	9.899275	-0.001033	0.005299	0.004780	0.999999	-0.001533	-0.000035	0.001533	0.999999	-0.000554	0.000036	0.000554	1.000000
44533	0.094551	0.040479	9.894452	-0.002120	0.003938	-0.000913	0.999999	-0.001554	-0.000045	0.001554	0.999999	-0.000590	0.000046	0.000589	1.000000
44534	0.106663	0.068646	9.865487	0.001943	0.002980	0.000967	0.999999	-0.001557	-0.000046	0.001557	0.999999	-0.000585	0.000047	0.000585	1.000000
44535	0.102458	0.063156	9.899284	0.003348	-0.000755	-0.000170	0.999999	-0.001571	-0.000009	0.001571	0.999999	-0.000567	0.000009	0.000566	1.000000
44536	0.116202	0.043328	9.844657	-0.000050	0.003416	0.001764	0.999999	-0.001558	-0.000012	0.001558	0.999999	-0.000582	0.000013	0.000582	1.000000
44537	0.106195	0.069148	9.865488	0.001726	0.001245	0.004270	0.999999	-0.001528	0.000006	0.001528	0.999999	-0.000580	-0.000005	0.000580	1.000000
44538	0.087849	0.072673	9.881490	0.002505	0.002949	-0.003930	0.999999	-0.001585	0.000005	0.001585	0.999999	-0.000572	-0.000004	0.000572	1.000000
44539	0.101791	0.063934	9.899285	0.004063	-0.000958	0.001880	0.999999	-0.001578	0.000045	0.001578	0.999999	-0.000547	-0.000044	0.000547	1.000000
44540	0.093229	0.041721	9.894460	0.000244	0.005066	0.001933	0.999999	-0.001568	0.000026	0.001568	0.999999	-0.000562	-0.000025	0.000562	1.000000
44541	0.097003	0.047525	9.860665	0.000933	0.001533	-0.001253	0.999999	-0.001593	0.000040	0.001593	0.999999	-0.000567	-0.000040	0.000567	1.000000
44542	0.092598	0.041935	9.894465	0.002238	0.004630	0.001137	0.999999	-0.001588	0.000024	0.001588	0.999999	-0.000558	-0.000023	0.000558	1.000000
44543	0.086554	0.073665	9.881494	0.002659	0.002778	0.003017	0.999999	-0.001570	0.000026	0.001570	0.999999	-0.000547	-0.000025	0.000547	1.000000
44544	0.114172	0.044727	9.844674	-0.000050	0.003416	0.001763	0.999999	-0.001575	0.000019	0.001575	0.999999	-0.000562	-0.000018	0.000562	1.000000
44545	0.099971	0.064820	9.899298	0.001943	0.002980	0.000967	0.999999	-0.001577	0.000018	0.001577	0.999999	-0.000557	-0.000018	0.000557	1.000000
44546	0.095472	0.048182	9.860677	-0.001060	0.001969	-0.000457	0.999999	-0.001590	0.000030	0.001590	0.999999	-0.000583	-0.000029	0.000583	1.000000
44547	0.117656	0.061719	9.883305	0.004652	0.002342	0.002221	0.999999	-0.001580	0.000036	0.001580	0.999999	-0.000552	-0.000035	0.000552	1.000000
44548	0.094988	0.048618	9.860679	0.000665	0.003214	0.003814	0.999999	-0.001561	0.000033	0.001561	0.999999	-0.000564	-0.000032	0.000564	1.000000
44549	0.098914	0.065328	9.899306	-0.000050	0.003417	0.001763	0.999999	-0.001556	0.000028	0.001556	0.999999	-0.000579	-0.000028	0.000580	1.000000
44550	0.098567	0.065287	9.899309	-0.000765	0.003619	-0.000287	0.999999	-0.001569	0.000022	0.001569	0.999999	-0.000601	-0.000021	0.000601	1.000000
44551	0.075846	0.051985	9.876682	0.001943	0.002980	0.000967	0.999999	-0.001571	0.000022	0.001571	0.999999	-0.000597	-0.000021	0.000597	1.000000
44552	0.097946	0.065536	9.899314	0.001943	0.002980	0.000967	0.999999	-0.001569	0.000022	0.001569	0.999999	-0.000591	-0.000021	0.000591	1.000000
44553	0.089262	0.043550	9.894488	0.006940	0.003555	0.001595	0.999999	-0.001565	0.000016	0.001565	0.999999	-0.000537	-0.000016	0.000537	1.000000
44554	0.115659	0.062912	9.883321	-0.001649	-0.001331	-0.000797	0.999999	-0.001589	0.000058	0.001589	0.999999	-0.000568	-0.000057	0.000568	1.000000
44555	0.079082	0.058677	9.842887	0.002953	0.004428	0.003188	0.999999	-0.001570	0.000043	0.001570	0.999999	-0.000553	-0.000042	0.000553	1.000000
44556	0.102501	0.035081	9.912299	0.002532	0.006280	0.001307	0.999999	-0.001573	0.000008	0.001573	0.999999	-0.000541	-0.000007	0.000541	1.000000
44557	0.132679	0.060202	9.867341	0.003222	0.002746	-0.001879	0.999999	-0.001604	0.000010	0.001604	0.999999	-0.000524	-0.000009	0.000524	1.000000
44558	0.082154	0.076157	9.881513	0.001649	0.001331	0.000797	0.999999	-0.001611	0.000025	0.001611	0.999999	-0.000522	-0.000024	0.000522	1.000000
44559	0.100105	0.073074	9.865524	0.003297	0.002661	0.001594	0.999999	-0.001607	0.000028	0.001607	0.999999	-0.000504	-0.000027	0.000504	1.000000
44560	0.105592	0.041897	9.878509	0.003003	0.001012	0.001425	0.999999	-0.001610	0.000045	0.001610	0.999999	-0.000486	-0.000044	0.000486	1.000000
44561	0.113778	0.064664	9.883332	0.003937	0.002544	0.000171	0.999999	-0.001620	0.000049	0.001620	0.999999	-0.000461	-0.000048	0.000461	1.000000
44562	0.109320	0.058924	9.917133	-0.004037	0.004290	0.003355	0.999999	-0.001603	0.000035	0.001603	0.999999	-0.000518	-0.000034	0.000518	1.000000
44563	0.113084	0.064551	9.883341	0.001943	0.002981	0.000967	0.999999	-0.001606	0.000035	0.001606	0.999999	-0.000514	-0.000034	0.000514	1.000000
44564	0.086278	0.045647	9.894505	0.001943	0.002981	0.000967	0.999999	-0.001609	0.000035	0.001609	0.999999	-0.000510	-0.000034	0.000510	1.000000
44565	0.086120	0.045708	9.894506	-0.000715	0.000202	-0.002051	0.999999	-0.001642	0.000062	0.001642	0.999999	-0.000532	-0.000061	0.000532	1.000000
44566	0.122273	0.039144	9.862536	0.002658	0.002779	0.003018	0.999999	-0.001625	0.000063	0.001625	0.999999	-0.000519	-0.000062	0.000520	1.000000
44567	0.098259	0.074170	9.865534	0.001649	0.001331	0.000797	0.999999	-0.001630	0.000080	0.001630	0.999999	-0.000518	-0.000079	0.000518	1.000000
44568	0.112174	0.065370	9.883346	0.003642	0.000894	0.000002	0.999999	-0.001651	0.000098	0.001651	0.999999	-0.000497	-0.000097	0.000497	1.000000
44569	0.113484	0.017418	9.857717	0.001009	0.001448	0.002221	0.999999	-0.001641	0.000113	0.001641	0.999999	-0.000502	-0.000112	0.000502	1.000000
44570	0.093548	0.069203	9.899331	0.004526	0.005844	0.000511	0.999999	-0.001646	0.000084	0.001646	0.999999	-0.000471	-0.000083	0.000471	1.000000
44571	0.116923	0.034706	9.896343	0.001943	0.002981	0.000967	0.999999	-0.001649	0.000084	0.001649	0.999999	-0.000466	-0.000083	0.000466	1.000000
44572	0.102535	0.044005	9.878532	0.002952	0.004429	0.003188	0.999999	-0.001633	0.000068	0.001633	0.999999	-0.000453	-0.000067	0.000453	1.000000
44573	0.078436	0.079046	9.881520	0.001574	0.001415	-0.002676	0.999999	-0.001672	0.000083	0.001672	0.999999	-0.000451	-0.000083	0.000452	1.000000
44574	0.088004	0.053429	9.860719	0.001304	0.003099	0.002390	0.999999	-0.001662	0.000081	0.001662	0.999999	-0.000453	-0.000080	0.000453	1.000000
44575	0.110082	0.066921	9.883359	0.001304	0.003099	0.002390	0.999999	-0.001651	0.000080	0.001651	0.999999	-0.000455	-0.000079	0.000455	1.000000
44576	0.109799	0.067147	9.883360	0.003297	0.002662	0.001595	0.999999	-0.001647	0.000083	0.001647	0.999999	-0.000439	-0.000083	0.000439	1.000000
44577	0.101065	0.044960	9.878542	0.001524	0.004833	-0.000914	0.999999	-0.001668	0.000064	0.001668	0.999999	-0.000438	-0.000064	0.000439	1.000000
44578	0.095025	0.076584	9.865547	0.001378	0.003015	0.005864	0.999999	-0.001624	0.000065	0.001624	0.999999	-0.000442	-0.000064	0.000442	1.000000
44579	0.100352	0.045128	9.878549	-0.000765	0.003619	-0.000288	0.999999	-0.001639	0.000058	0.001639	0.999999	-0.000464	-0.000058	0.000465	1.000000
44580	0.112633	0.073416	9.849574	0.003642	0.000894	0.000002	0.999999	-0.001646	0.000080	0.001647	0.999999	-0.000443	-0.000080	0.000444	1.000000
44581	0.099841	0.045494	9.878553	0.000884	0.004951	0.000509	0.999999	-0.001654	0.000060	0.001654	0.999999	-0.000449	-0.000060	0.000450	1.000000
44582	0.085424	0.054656	9.860735	0.001229	0.003183	-0.001083	0.999999	-0.001681	0.000057	0.001681	0.999998	-0.000453	-0.000057	0.000453	1.000000
44583	0.121414	0.048038	9.828787	-0.000050	0.003418	0.001763	0.999999	-0.001675	0.000053	0.001675	0.999998	-0.000468	-0.000052	0.000468	1.000000
44584	0.107177	0.068239	9.883382	0.003297	0.002662	0.001595	0.999999	-0.001673	0.000053	0.001673	0.999999	-0.000445	-0.000052	0.000445	1.000000
44585	0.080274	0.049328	9.894538	0.000244	0.005068	0.001932	0.999999	-0.001666	0.000032	0.001666	0.999999	-0.000458	-0.000031	0.000458	1.000000
44586	0.102133	0.051960	9.844771	0.004946	0.003993	0.002393	0.999999	-0.001663	0.000019	0.001663	0.999999	-0.000424	-0.000018	0.000424	1.000000
44587	0.101858	0.063289	9.917186	0.001943	0.002981	0.000968	0.999999	-0.001665	0.000019	0.001665	0.999999	-0.000420	-0.000018	0.000420	1.000000
44588	0.123883	0.065920	9.867419	0.003223	0.002746	-0.001878	0.999999	-0.001702	0.000019	0.001702	0.999998	-0.000403	-0.000018	0.000403	1.000000
44589	0.111064	0.037937	9.896399	-0.000050	0.003418	0.001763	0.999999	-0.001697	0.000014	0.001697	0.999998	-0.000418	-0.000014	0.000418	1.000000
44590	0.099524	0.100910	9.870388	0.000295	0.001650	0.000170	0.999999	-0.001716	0.000026	0.001716	0.999998	-0.000433	-0.000025	0.000433	1.000000
44591	0.088190	0.024591	9.873759	-0.000050	0.003418	0.001763	0.999999	-0.001711	0.000021	0.001711	0.999998	-0.000448	-0.000020	0.000448	1.000000
44592	0.127074	0.082952	9.906045	0.003002	0.001012	0.001426	0.999998	-0.001941	-0.000053	0.001941	0.999998	-0.000579	0.000054	0.000579	1.000000
44593	0.100121	0.053111	9.844786	0.001819	0.006484	-0.000744	0.999998	-0.001961	-0.000088	0.001961	0.999998	-0.000576	0.000090	0.000576	1.000000
44594	0.077335	0.050897	9.894554	0.001377	0.003016	0.005865	0.999998	-0.001915	-0.000089	0.001915	0.999998	-0.000578	0.000090	0.000578	1.000000
44595	0.095172	0.047581	9.878589	-0.000764	0.003620	-0.000289	0.999998	-0.001930	-0.000096	0.001930	0.999998	-0.000601	0.000097	0.000601	1.000000
44596	0.089472	0.079175	9.865579	0.003053	-0.002406	-0.000336	0.999998	-0.001948	-0.000043	0.001948	0.999998	-0.000585	0.000044	0.000585	1.000000
44597	0.085214	0.073759	9.899374	0.002952	0.004431	0.003189	0.999998	-0.001928	-0.000058	0.001928	0.999998	-0.000571	0.000059	0.000571	1.000000
44598	0.076356	0.040585	9.822146	0.002238	0.004632	0.001138	0.999998	-0.001932	-0.000075	0.001932	0.999998	-0.000562	0.000076	0.000562	1.000000
44599	0.126359	0.036047	9.880460	0.001943	0.002982	0.000968	0.999998	-0.001934	-0.000075	0.001934	0.999998	-0.000558	0.000077	0.000558	1.000000
44600	0.092336	0.085811	9.831787	0.001598	0.004750	0.002561	0.999998	-0.001923	-0.000094	0.001923	0.999998	-0.000557	0.000095	0.000557	1.000000
44601	0.101871	0.071173	9.883417	0.001008	0.001449	0.002221	0.999998	-0.001913	-0.000079	0.001913	0.999998	-0.000562	0.000080	0.000562	1.000000
44602	0.079285	0.057979	9.860767	0.002510	0.002947	-0.003929	0.999998	-0.001966	-0.000081	0.001966	0.999998	-0.000552	0.000082	0.000552	1.000000
44603	0.092911	0.049129	9.878603	0.001671	0.004667	0.006035	0.999998	-0.001918	-0.000098	0.001918	0.999998	-0.000551	0.000099	0.000551	1.000000
44604	0.092709	0.049340	9.878604	0.002634	-0.000555	-0.002217	0.999998	-0.001953	-0.000063	0.001953	0.999998	-0.000541	0.000064	0.000541	1.000000
44605	0.096788	0.066286	9.917217	0.001943	0.002982	0.000968	0.999998	-0.001956	-0.000063	0.001955	0.999998	-0.000537	0.000064	0.000537	1.000000
44606	0.060030	0.062109	9.876733	0.000884	0.004952	0.000509	0.999998	-0.001964	-0.000084	0.001964	0.999998	-0.000544	0.000085	0.000544	1.000000
44607	0.100204	0.072402	9.883425	0.004651	0.002344	0.002225	0.999998	-0.001953	-0.000078	0.001953	0.999998	-0.000513	0.000079	0.000513	1.000000
44608	0.095771	0.067024	9.917222	0.001943	0.002982	0.000968	0.999998	-0.001951	-0.000077	0.001951	0.999998	-0.000511	0.000078	0.000510	1.000000
44609	0.091265	0.050426	9.878612	0.000590	0.003301	0.000339	0.999998	-0.001960	-0.000080	0.001960	0.999998	-0.000520	0.000081	0.000520	1.000000
44610	0.113269	0.064070	9.901267	0.004945	0.003995	0.002395	0.999998	-0.001950	-0.000092	0.001950	0.999998	-0.000485	0.000093	0.000485	1.000000
44611	0.099000	0.073413	9.883430	0.000935	0.001532	-0.001253	0.999998	-0.001975	-0.000078	0.001975	0.999998	-0.000491	0.000079	0.000490	1.000000
44612	0.108581	0.047778	9.862659	0.001943	0.002982	0.000968	0.999998	-0.001975	-0.000077	0.001974	0.999998	-0.000487	0.000078	0.000487	1.000000
44613	0.084548	0.082685	9.865594	-0.000346	0.001769	0.001592	0.999998	-0.001971	-0.000065	0.001971	0.999998	-0.000505	0.000066	0.000505	1.000000
44614	0.108032	0.047947	9.862664	0.002238	0.004633	0.001138	0.999998	-0.001971	-0.000082	0.001971	0.999998	-0.000500	0.000083	0.000500	1.000000
44615	0.111861	0.064945	9.901277	0.003297	0.002663	0.001597	0.999998	-0.001967	-0.000079	0.001967	0.999998	-0.000482	0.000080	0.000482	1.000000
44616	0.093554	0.057465	9.844826	0.000640	-0.000118	-0.001423	0.999998	-0.001990	-0.000046	0.001990	0.999998	-0.000492	0.000047	0.000492	1.000000
44617	0.089168	0.051976	9.878623	0.003592	0.004314	0.001767	0.999998	-0.001985	-0.000060	0.001985	0.999998	-0.000471	0.000061	0.000471	1.000000
44618	0.102882	0.043183	9.896466	0.001648	0.001332	0.000798	0.999998	-0.001986	-0.000041	0.001986	0.999998	-0.000472	0.000042	0.000472	1.000000
44619	0.088563	0.052262	9.878627	-0.001037	0.005307	0.004777	0.999998	-0.001951	-0.000064	0.001951	0.999998	-0.000498	0.000065	0.000498	1.000000
44620	0.101994	0.043346	9.896474	0.003814	0.006047	-0.001538	0.999998	-0.001982	-0.000097	0.001982	0.999998	-0.000473	0.000098	0.000473	1.000000
44621	0.087699	0.052554	9.878633	-0.000641	0.000118	0.001423	0.999998	-0.001981	-0.000068	0.001981	0.999998	-0.000495	0.000069	0.000494	1.000000
44622	0.081946	0.084192	9.865603	0.003937	0.002545	0.000175	0.999998	-0.001990	-0.000065	0.001990	0.999998	-0.000471	0.000066	0.000471	1.000000
44623	0.105449	0.049550	9.862684	-0.000051	0.003420	0.001762	0.999998	-0.001985	-0.000069	0.001985	0.999998	-0.000487	0.000070	0.000487	1.000000
44624	0.087024	0.052919	9.878637	0.000295	0.001651	0.000170	0.999998	-0.001996	-0.000056	0.001996	0.999998	-0.000501	0.000057	0.000501	1.000000
44625	0.105036	0.049590	9.862688	0.000295	0.001651	0.000170	0.999998	-0.002007	-0.000043	0.002007	0.999998	-0.000513	0.000044	0.000513	1.000000
44626	0.096348	0.027225	9.857877	0.000957	0.004870	0.003983	0.999998	-0.001980	-0.000063	0.001980	0.999998	-0.000522	0.000064	0.000522	1.000000
44627	0.104330	0.049790	9.862694	0.001943	0.002983	0.000968	0.999998	-0.001982	-0.000063	0.001982	0.999998	-0.000518	0.000064	0.000518	1.000000
44628	0.085859	0.053340	9.878645	0.001943	0.002983	0.000968	0.999998	-0.001986	-0.000065	0.001986	0.999998	-0.000516	0.000066	0.000516	1.000000
44629	0.126004	0.063494	9.885362	0.000957	0.004870	0.003983	0.999998	-0.001958	-0.000084	0.001958	0.999998	-0.000522	0.000085	0.000522	1.000000
44630	0.085167	0.053608	9.878649	0.001648	0.001332	0.000799	0.999998	-0.001968	-0.000070	0.001967	0.999998	-0.000519	0.000071	0.000519	1.000000
44631	0.093287	0.076043	9.883466	-0.001404	0.003739	0.001133	0.999998	-0.001969	-0.000078	0.001969	0.999998	-0.000548	0.000079	0.000548	1.000000
44632	0.084596	0.053679	9.878654	0.002656	0.002782	0.003020	0.999998	-0.001948	-0.000075	0.001948	0.999998	-0.000534	0.000076	0.000534	1.000000
44633	0.102589	0.050594	9.862709	0.003002	0.001013	0.001428	0.999998	-0.001946	-0.000055	0.001946	0.999998	-0.000519	0.000056	0.000519	1.000000
44634	0.074262	0.080115	9.899413	0.004528	0.005847	0.000514	0.999998	-0.001952	-0.000083	0.001952	0.999998	-0.000487	0.000084	0.000487	1.000000
44635	0.093415	0.028726	9.857901	-0.000763	0.003621	-0.000290	0.999998	-0.001967	-0.000090	0.001967	0.999998	-0.000510	0.000091	0.000509	1.000000
44636	0.101491	0.051340	9.862716	0.004650	0.002345	0.002227	0.999998	-0.001957	-0.000084	0.001956	0.999998	-0.000480	0.000085	0.000480	1.000000
44637	0.077341	0.086451	9.865620	0.000885	0.004953	0.000509	0.999998	-0.001964	-0.000104	0.001964	0.999998	-0.000486	0.000105	0.000486	1.000000
44638	0.132902	0.039336	9.864634	0.001943	0.002983	0.000969	0.999998	-0.001970	-0.000107	0.001970	0.999998	-0.000481	0.000108	0.000481	1.000000
44639	0.068211	0.064403	9.860810	0.002879	0.004515	-0.000284	0.999998	-0.001985	-0.000122	0.001985	0.999998	-0.000467	0.000123	0.000467	1.000000
44640	0.081797	0.055493	9.878667	-0.000051	0.003421	0.001762	0.999998	-0.001981	-0.000128	0.001981	0.999998	-0.000483	0.000129	0.000483	1.000000
44641	0.113723	0.043155	9.880585	0.001648	0.001332	0.000799	0.999998	-0.001986	-0.000112	0.001986	0.999998	-0.000482	0.000113	0.000482	1.000000
44642	0.095305	0.046600	9.896526	-0.000051	0.003421	0.001762	0.999998	-0.001979	-0.000117	0.001979	0.999998	-0.000497	0.000118	0.000496	1.000000
44643	0.081013	0.055741	9.878672	0.001943	0.002983	0.000969	0.999998	-0.001982	-0.000117	0.001982	0.999998	-0.000492	0.000118	0.000492	1.000000
44644	0.104477	0.020959	9.875781	-0.000763	0.003621	-0.000290	0.999998	-0.001996	-0.000124	0.001996	0.999998	-0.000517	0.000125	0.000516	1.000000
44645	0.080290	0.055906	9.878677	0.002951	0.004434	0.003190	0.999998	-0.001976	-0.000139	0.001976	0.999998	-0.000502	0.000140	0.000502	1.000000
44646	0.098111	0.052778	9.862743	0.001943	0.002983	0.000969	0.999998	-0.001976	-0.000138	0.001976	0.999998	-0.000500	0.000139	0.000500	1.000000
44647	0.093603	0.047288	9.896539	0.001943	0.002983	0.000969	0.999998	-0.001979	-0.000139	0.001979	0.999998	-0.000496	0.000140	0.000496	1.000000
44648	0.105976	0.075568	9.867558	0.001648	0.001332	0.000799	0.999998	-0.001988	-0.000125	0.001988	0.999998	-0.000494	0.000126	0.000494	1.000000
44649	0.097301	0.053301	9.862748	0.001526	0.004835	-0.000913	0.999998	-0.002009	-0.000144	0.002009	0.999998	-0.000493	0.000145	0.000493	1.000000
44650	0.097100	0.053542	9.862749	0.003347	-0.000757	-0.000163	0.999998	-0.002025	-0.000107	0.002025	0.999998	-0.000475	0.000108	0.000475	1.000000
44651	0.096958	0.053670	9.862749	-0.000763	0.003621	-0.000290	0.999998	-0.002040	-0.000114	0.002040	0.999998	-0.000497	0.000115	0.000497	1.000000
44652	0.096704	0.053679	9.862752	0.000936	0.001532	-0.001253	0.999998	-0.002069	-0.000101	0.002069	0.999998	-0.000501	0.000102	0.000501	1.000000
44653	0.096420	0.053904	9.862753	0.003662	0.004234	0.005243	0.999998	-0.002029	-0.000114	0.002029	0.999998	-0.000480	0.000115	0.000480	1.000000
44654	0.086248	0.079973	9.883499	0.001943	0.002983	0.000969	0.999998	-0.002037	-0.000117	0.002037	0.999998	-0.000475	0.000118	0.000475	1.000000
44655	0.109893	0.045258	9.880619	0.000641	-0.000119	-0.001422	0.999998	-0.002064	-0.000087	0.002064	0.999998	-0.000484	0.000088	0.000484	1.000000
44656	0.122241	0.073400	9.851638	0.000244	0.005072	0.001931	0.999998	-0.002058	-0.000109	0.002058	0.999998	-0.000499	0.000110	0.000499	1.000000
44657	0.077012	0.057842	9.878692	0.002238	0.004635	0.001139	0.999998	-0.002059	-0.000126	0.002059	0.999998	-0.000492	0.000127	0.000491	1.000000
44658	0.095001	0.054680	9.862763	0.002065	-0.000519	0.002682	0.999998	-0.002047	-0.000093	0.002047	0.999998	-0.000489	0.000094	0.000489	1.000000
44659	0.135544	0.065096	9.869506	0.006349	0.000257	0.001267	0.999998	-0.002046	-0.000066	0.002046	0.999998	-0.000441	0.000067	0.000441	1.000000
44660	0.080890	0.064546	9.844894	0.001943	0.002984	0.000969	0.999998	-0.002048	-0.000065	0.002048	0.999998	-0.000436	0.000066	0.000436	1.000000
44661	0.094491	0.055740	9.862762	0.002950	0.004435	0.003191	0.999998	-0.002028	-0.000079	0.002028	0.999998	-0.000422	0.000080	0.000422	1.000000
44662	0.094142	0.056046	9.862763	0.003296	0.002665	0.001599	0.999998	-0.002025	-0.000077	0.002025	0.999998	-0.000405	0.000078	0.000405	1.000000
44663	0.089640	0.050637	9.896559	0.002014	0.002903	0.004443	0.999998	-0.001993	-0.000077	0.001993	0.999998	-0.000400	0.000077	0.000400	1.000000
44664	0.093662	0.056483	9.862765	0.001648	0.001332	0.000799	0.999998	-0.001998	-0.000061	0.001998	0.999998	-0.000399	0.000062	0.000399	1.000000
44665	0.093379	0.056708	9.862767	0.002950	0.004435	0.003191	0.999998	-0.001978	-0.000076	0.001978	0.999998	-0.000385	0.000077	0.000385	1.000000
44666	0.101399	0.079405	9.867576	0.002655	0.002784	0.003021	0.999998	-0.001960	-0.000075	0.001960	0.999998	-0.000374	0.000076	0.000374	1.000000
44667	0.106865	0.048132	9.880638	0.001353	-0.000319	0.000630	0.999998	-0.001966	-0.000042	0.001966	0.999998	-0.000375	0.000043	0.000375	1.000000
44668	0.088561	0.051744	9.896563	0.003367	0.002584	0.005073	0.999998	-0.001932	-0.000041	0.001932	0.999998	-0.000355	0.000042	0.000355	1.000000
44669	0.133051	0.067661	9.869522	0.001944	0.002984	0.000969	0.999998	-0.001934	-0.000042	0.001934	0.999998	-0.000350	0.000042	0.000350	1.000000
44670	0.074136	0.061325	9.878693	0.003643	0.000894	0.000007	0.999998	-0.001948	-0.000023	0.001948	0.999998	-0.000332	0.000024	0.000332	1.000000
44671	0.106190	0.049192	9.880641	0.002360	0.001133	0.002852	0.999998	-0.001932	-0.000005	0.001932	0.999998	-0.000324	0.000005	0.000324	1.000000
44672	0.114358	0.071793	9.885447	0.001302	0.003103	0.002391	0.999998	-0.001920	-0.000007	0.001920	0.999998	-0.000328	0.000008	0.000328	1.000000
44673	0.087489	0.052596	9.896568	-0.004545	0.002888	-0.007248	0.999998	-0.002005	-0.000007	0.002005	0.999998	-0.000387	0.000008	0.000387	1.000000
44674	0.105730	0.049063	9.880646	0.001474	-0.003821	0.002344	0.999998	-0.001994	0.000060	0.001994	0.999998	-0.000389	-0.000059	0.000390	1.000000
44675	0.091874	0.058161	9.862773	-0.000346	0.001771	0.001592	0.999998	-0.001991	0.000072	0.001991	0.999998	-0.000408	-0.000071	0.000408	1.000000
44676	0.105792	0.049298	9.880644	0.004059	-0.000957	0.001890	0.999998	-0.001980	0.000112	0.001980	0.999998	-0.000385	-0.000111	0.000385	1.000000
44677	0.106339	0.049854	9.880636	0.007142	-0.010129	-0.005437	0.999998	-0.002047	0.000242	0.002047	0.999998	-0.000328	-0.000242	0.000328	1.000000
44678	0.120791	0.041482	9.898499	0.006419	0.000177	0.004742	0.999998	-0.002013	0.000269	0.002013	0.999998	-0.000280	-0.000268	0.000281	1.000000
44679	0.119427	0.079230	9.851628	0.006419	0.000177	0.004742	0.999998	-0.001977	0.000297	0.001977	0.999998	-0.000232	-0.000296	0.000232	1.000000
44680	0.074660	0.063870	9.878673	-0.000501	-0.000040	0.008371	0.999998	-0.001902	0.000331	0.001902	0.999998	-0.000250	-0.000330	0.000251	1.000000
44681	0.119485	0.079307	9.851626	-0.003503	-0.001054	0.006942	0.999998	-0.001845	0.000371	0.001846	0.999998	-0.000301	-0.000371	0.000302	1.000000
44682	0.088714	0.054289	9.896548	-0.003067	0.000439	0.014060	0.999998	-0.001724	0.000394	0.001724	0.999998	-0.000350	-0.000393	0.000351	1.000000
44683	0.106799	0.050658	9.880627	-0.001489	0.001851	0.011385	0.999999	-0.001622	0.000405	0.001623	0.999999	-0.000381	-0.000405	0.000382	1.000000
44684	0.098337	0.028164	9.875826	0.000210	-0.000239	0.010424	0.999999	-0.001535	0.000434	0.001535	0.999999	-0.000396	-0.000434	0.000397	1.000000
44685	0.092695	0.059906	9.862754	0.005572	0.001908	0.014706	0.999999	-0.001400	0.000446	0.001400	0.999999	-0.000357	-0.000445	0.000358	1.000000
44686	0.106544	0.051343	9.880626	0.004634	0.000377	0.015959	0.999999	-0.001253	0.000472	0.001253	0.999999	-0.000328	-0.000472	0.000328	1.000000
44687	0.096864	0.077478	9.901345	0.002048	-0.002486	0.016413	0.999999	-0.001101	0.000527	0.001101	0.999999	-0.000324	-0.000527	0.000325	1.000000
44688	0.106878	0.051677	9.880620	-0.001229	-0.001805	0.020050	0.999999	-0.000918	0.000574	0.000918	1.000000	-0.000355	-0.000574	0.000356	1.000000
44689	0.101449	0.083022	9.867546	-0.000863	-0.000232	0.023695	1.000000	-0.000693	0.000607	0.000694	1.000000	-0.000381	-0.000607	0.000382	1.000000
44690	0.107031	0.051472	9.880620	-0.000222	-0.000351	0.022273	1.000000	-0.000483	0.000641	0.000483	1.000000	-0.000402	-0.000641	0.000402	1.000000
44691	0.103713	0.045553	9.914408	-0.004908	-0.018114	0.016307	1.000000	-0.000334	0.000853	0.000335	1.000000	-0.000468	-0.000852	0.000468	1.000000
44692	0.121948	0.078652	9.851601	-0.006981	-0.008863	0.006890	0.999999	-0.000278	0.000971	0.000279	1.000000	-0.000554	-0.000971	0.000554	0.999999
44693	0.109822	0.050238	9.880596	-0.000156	-0.001808	0.006781	0.999999	-0.000223	0.001019	0.000224	1.000000	-0.000571	-0.001019	0.000571	0.999999
44694	0.128170	0.046725	9.864664	-0.001509	-0.001488	0.006151	0.999999	-0.000169	0.001067	0.000170	1.000000	-0.000603	-0.001066	0.000603	0.999999
44695	0.101414	0.027776	9.875796	0.002314	0.004555	0.004613	0.999999	-0.000135	0.001051	0.000136	1.000000	-0.000595	-0.001051	0.000595	0.999999
44696	0.095376	0.059526	9.862731	0.003323	0.006007	0.006835	0.999999	-0.000082	0.001019	0.000083	1.000000	-0.000577	-0.001019	0.000577	0.999999
44697	0.126517	0.047455	9.864682	0.005520	0.014063	0.009734	1.000000	0.000004	0.000908	-0.000003	1.000000	-0.000538	-0.000908	0.000538	0.999999
44698	0.088556	0.055058	9.896545	0.009758	0.018257	0.010080	1.000000	0.000091	0.000753	-0.000091	1.000000	-0.000457	-0.000753	0.000457	1.000000
44699	0.113748	0.074716	9.885432	0.004423	0.010729	0.017770	1.000000	0.000257	0.000676	-0.000257	1.000000	-0.000430	-0.000676	0.000430	1.000000
44700	0.104603	0.052737	9.880639	0.004517	0.003882	0.014248	1.000000	0.000389	0.000668	-0.000388	1.000000	-0.000401	-0.000668	0.000401	1.000000
44701	0.086125	0.056598	9.896558	0.004288	0.002154	0.017555	1.000000	0.000552	0.000677	-0.000552	1.000000	-0.000375	-0.000677	0.000375	1.000000
44702	0.104252	0.053464	9.880639	0.002271	-0.000750	0.013111	1.000000	0.000674	0.000716	-0.000674	1.000000	-0.000372	-0.000716	0.000371	1.000000
44703	0.103018	0.101855	9.906148	0.000919	-0.000430	0.012480	0.999999	0.000786	0.000751	-0.000786	1.000000	-0.000379	-0.000751	0.000378	1.000000
44704	0.113063	0.076011	9.885430	-0.000477	-0.005415	0.020347	0.999999	0.000977	0.000837	-0.000977	0.999999	-0.000402	-0.000837	0.000401	1.000000
44705	0.105292	0.053382	9.880628	-0.003778	-0.008075	0.018748	0.999999	0.001151	0.000948	-0.001151	0.999999	-0.000457	-0.000949	0.000455	0.999999
44706	0.113720	0.075902	9.885424	0.006557	0.008747	0.004960	0.999999	0.001191	0.000890	-0.001190	0.999999	-0.000408	-0.000890	0.000407	1.000000
44707	0.104046	0.054106	9.880638	0.005618	0.015947	-0.000523	0.999999	0.001174	0.000760	-0.001174	0.999999	-0.000367	-0.000760	0.000366	1.000000
44708	0.102916	0.054376	9.880648	-0.000159	0.006925	0.000046	0.999999	0.001164	0.000721	-0.001164	0.999999	-0.000384	-0.000721	0.000383	1.000000
44709	0.106680	0.059992	9.846857	0.000024	0.003348	0.005237	0.999999	0.001204	0.000717	-0.001204	0.999999	-0.000399	-0.000718	0.000398	1.000000
44710	0.114870	0.093369	9.924046	-0.003070	0.000457	0.014065	0.999999	0.001336	0.000745	-0.001336	0.999999	-0.000447	-0.000746	0.000446	1.000000
44711	0.243784	0.042233	9.931912	-0.014162	-0.009951	0.065506	0.999998	0.001976	0.000878	-0.001976	0.999998	-0.000612	-0.000879	0.000610	0.999999
44712	0.139694	0.092678	9.874329	-0.022877	-0.025977	0.112814	0.999995	0.003089	0.001173	-0.003088	0.999995	-0.000871	-0.001176	0.000868	0.999999
44713	0.065583	0.028572	9.801491	-0.014491	-0.005348	0.105069	0.999991	0.004125	0.001262	-0.004124	0.999991	-0.001044	-0.001266	0.001038	0.999999
44714	0.100357	0.043020	9.914454	0.000536	0.036630	0.068069	0.999988	0.004794	0.000929	-0.004793	0.999988	-0.001061	-0.000934	0.001057	0.999999
44715	0.051239	0.074281	9.967049	-0.032647	0.027138	0.064355	0.999985	0.005423	0.000690	-0.005422	0.999984	-0.001410	-0.000698	0.001406	0.999999
44716	0.008967	0.171108	10.050080	-0.100296	0.048774	0.017361	0.999984	0.005577	0.000232	-0.005576	0.999981	-0.002433	-0.000246	0.002432	0.999997
44717	-0.001696	0.128746	9.939260	-0.193880	0.080960	-0.086461	0.999989	0.004682	-0.000551	-0.004684	0.999979	-0.004378	0.000530	0.004380	0.999990
44718	0.227062	0.508450	9.790581	-0.113259	0.128880	-0.138865	0.999993	0.003265	-0.001815	-0.003275	0.999979	-0.005510	0.001797	0.005516	0.999983
44719	-0.070828	0.033143	10.238338	-0.004699	0.081539	-0.143690	0.999995	0.001816	-0.002602	-0.001831	0.999983	-0.005560	0.002592	0.005565	0.999981
44720	0.011680	0.309274	10.279721	-0.022313	0.011242	-0.213732	0.999996	-0.000333	-0.002686	0.000318	0.999983	-0.005783	0.002688	0.005782	0.999980
44721	-0.180685	0.118141	10.397949	0.060568	-0.050504	-0.225805	0.999994	-0.002598	-0.002154	0.002587	0.999983	-0.005174	0.002168	0.005168	0.999984
44722	0.326127	0.175791	10.467909	0.275734	-0.217055	-0.200013	0.999989	-0.004590	0.000039	0.004590	0.999987	-0.002410	-0.000028	0.002410	0.999997
44723	0.420745	0.365735	10.326564	0.227189	-0.239683	-0.137060	0.999979	-0.005962	0.002458	0.005962	0.999982	-0.000137	-0.002457	0.000151	0.999997
44724	0.287938	-0.573294	9.864477	0.173800	-0.192552	0.021242	0.999974	-0.005751	0.004418	0.005744	0.999982	0.001580	-0.004427	-0.001555	0.999989
44725	0.530131	0.085827	10.035610	0.094526	0.087228	-0.005769	0.999977	-0.005804	0.003574	0.005795	0.999980	0.002511	-0.003589	-0.002491	0.999990
44726	0.181057	0.393422	10.516919	0.220959	0.036590	0.195488	0.999987	-0.003836	0.003258	0.003821	0.999982	0.004681	-0.003275	-0.004668	0.999984
44727	0.220030	0.590171	10.636675	0.250908	0.008985	0.224719	0.999994	-0.001574	0.003226	0.001551	0.999973	0.007143	-0.003237	-0.007138	0.999969
44728	0.304341	0.546377	10.564405	0.282185	0.083476	0.197571	0.999997	0.000425	0.002448	-0.000450	0.999951	0.009930	-0.002444	-0.009931	0.999948
44729	0.021897	0.241520	10.741978	0.243209	0.145919	0.054406	0.999999	0.001008	0.001029	-0.001021	0.999923	0.012340	-0.001016	-0.012341	0.999923
44730	-0.162920	0.202363	10.744154	0.283345	0.038098	-0.031070	1.000000	0.000720	0.000669	-0.000730	0.999885	0.015163	-0.000658	-0.015163	0.999885
44731	0.099137	0.148020	10.535364	0.257785	-0.073352	-0.004531	0.999999	0.000672	0.001431	-0.000698	0.999843	0.017726	-0.001419	-0.017727	0.999842
44732	0.419345	-0.026549	10.263924	0.180378	-0.064929	0.050289	0.999997	0.001157	0.002118	-0.001198	0.999809	0.019515	-0.002095	-0.019518	0.999807
44733	0.393447	-0.200085	10.197428	0.097679	-0.043275	0.104392	0.999994	0.002186	0.002608	-0.002239	0.999788	0.020463	-0.002563	-0.020469	0.999787
44734	0.416179	-0.239374	10.262950	0.021519	-0.110898	0.167891	0.999986	0.003819	0.003789	-0.003896	0.999779	0.020648	-0.003709	-0.020662	0.999780
44735	0.404409	-0.111738	10.347236	-0.007962	-0.247335	0.227314	0.999962	0.006009	0.006352	-0.006138	0.999771	0.020518	-0.006227	-0.020556	0.999769
44736	0.722703	0.211393	10.444538	0.053098	-0.328178	0.278175	0.999915	0.008687	0.009734	-0.008889	0.999740	0.020991	-0.009549	-0.021076	0.999732
44737	0.874914	0.490855	10.582663	0.113541	-0.291711	0.313735	0.999850	0.011739	0.012768	-0.012018	0.999685	0.022043	-0.012505	-0.022193	0.999675
44738	0.755619	0.554289	10.622019	0.177040	-0.254185	0.321344	0.999770	0.014880	0.015433	-0.015243	0.999602	0.023718	-0.015074	-0.023948	0.999600
44739	0.801704	0.546824	10.722921	0.240604	-0.194366	0.354653	0.999678	0.018374	0.017517	-0.018827	0.999484	0.026012	-0.017030	-0.026333	0.999508
44740	0.599650	0.158091	10.692047	0.246015	-0.174435	0.367705	0.999569	0.022001	0.019414	-0.022546	0.999344	0.028349	-0.018778	-0.028774	0.999410
44741	0.600820	0.149482	10.754775	0.217500	-0.146959	0.313296	0.999464	0.025087	0.021025	-0.025720	0.999207	0.030411	-0.020245	-0.030935	0.999316
44742	0.368151	0.034824	10.883735	0.176703	-0.178448	0.296463	0.999345	0.027984	0.022950	-0.028713	0.999073	0.032065	-0.022031	-0.032703	0.999222
44743	0.434129	0.156966	10.969950	0.200294	-0.320994	0.307063	0.999175	0.030928	0.026308	-0.031814	0.998917	0.033943	-0.025230	-0.034752	0.999077
44744	0.605467	0.166566	10.858213	0.186462	-0.371540	0.363385	0.998952	0.034405	0.030199	-0.035475	0.998734	0.035650	-0.028934	-0.036684	0.998908
44745	0.508676	0.130616	10.870469	0.156069	-0.339728	0.356219	0.998714	0.037814	0.033774	-0.039061	0.998550	0.037043	-0.032324	-0.038314	0.998743
44746	0.569289	0.341701	10.912445	0.150313	-0.278200	0.322059	0.998488	0.040903	0.036724	-0.042309	0.998367	0.038382	-0.035094	-0.039877	0.998588
44747	0.480898	0.387190	10.850934	0.126520	-0.192940	0.332343	0.998271	0.044128	0.038831	-0.045659	0.998177	0.039470	-0.037019	-0.041174	0.998466
44748	0.524357	0.228139	10.674850	0.140390	-0.101371	0.338938	0.998071	0.047461	0.040031	-0.049087	0.997965	0.040687	-0.038019	-0.042573	0.998370
44749	0.653050	0.351702	10.630018	0.096282	0.097970	0.311677	0.997947	0.050615	0.039231	-0.052236	0.997773	0.041476	-0.037045	-0.043440	0.998369
44750	0.621979	0.258384	10.792480	0.064823	0.233580	0.253429	0.997893	0.053252	0.037052	-0.054796	0.997615	0.041984	-0.034728	-0.043926	0.998431
44751	0.620964	0.363045	10.789940	0.100230	0.265347	0.279475	0.997823	0.056170	0.034570	-0.057632	0.997418	0.042839	-0.032074	-0.044738	0.998484
44752	0.614570	0.081623	10.864840	0.081924	0.177537	0.369593	0.997656	0.059940	0.033011	-0.061350	0.997169	0.043477	-0.030312	-0.045400	0.998509
44753	0.418274	-0.120587	10.665903	0.120126	0.100734	0.275449	0.997511	0.062738	0.032174	-0.064139	0.996946	0.044542	-0.029282	-0.046495	0.998489
44754	0.445406	-0.083475	10.917441	0.119631	0.059616	0.202181	0.997395	0.064782	0.031714	-0.066192	0.996763	0.045635	-0.028655	-0.047615	0.998455
44755	0.394048	-0.119868	10.731320	0.241819	-0.099420	0.295671	0.997164	0.067684	0.032894	-0.069216	0.996451	0.047907	-0.029535	-0.050048	0.998310
44756	0.471664	0.207692	10.699699	0.297604	-0.120598	0.394781	0.996845	0.071561	0.034349	-0.073249	0.996025	0.050687	-0.030585	-0.053043	0.998124
44757	0.737560	0.364400	10.668767	0.229313	-0.069449	0.413729	0.996509	0.075647	0.035313	-0.077448	0.995599	0.052772	-0.031165	-0.055323	0.997982
44758	0.451484	0.264322	10.730469	0.164077	0.026015	0.487821	0.996125	0.080519	0.035377	-0.082362	0.995129	0.054170	-0.030843	-0.056873	0.997905
44759	0.436710	0.420055	10.776592	0.239756	0.017567	0.387015	0.995801	0.084390	0.035471	-0.086302	0.994673	0.056368	-0.030525	-0.059193	0.997780
44760	0.862470	0.569963	10.745962	0.233704	0.072968	0.334061	0.995526	0.087768	0.034988	-0.089712	0.994246	0.058530	-0.029649	-0.061407	0.997672
44761	0.831625	0.617222	10.674828	0.312711	0.107674	0.496070	0.995096	0.092790	0.034275	-0.094766	0.993604	0.061409	-0.028358	-0.064356	0.997524
44762	0.806013	0.317102	10.781638	0.415551	0.065657	0.608624	0.994513	0.098907	0.034078	-0.100968	0.992747	0.065264	-0.027376	-0.068347	0.997286
44763	0.563437	0.152950	10.494534	0.327107	0.069608	0.422095	0.994092	0.103167	0.033725	-0.105277	0.992093	0.068322	-0.026410	-0.071469	0.997093
44764	0.565993	0.072729	10.434684	0.208263	0.049909	0.353769	0.993724	0.106719	0.033526	-0.108857	0.991574	0.070226	-0.025749	-0.073435	0.996968
44765	0.681491	0.138606	10.242350	0.158091	-0.015843	0.430847	0.993240	0.110976	0.034048	-0.113179	0.990992	0.071596	-0.025796	-0.074965	0.996852
44766	0.384986	0.051120	10.513734	0.146018	-0.154030	0.507129	0.992611	0.115869	0.036012	-0.118242	0.990312	0.072804	-0.027227	-0.076524	0.996696
44767	0.686073	0.360251	10.529307	0.090277	-0.356374	0.453804	0.991963	0.120056	0.039953	-0.122743	0.989715	0.073469	-0.030722	-0.077783	0.996497
44768	0.877448	0.585308	10.626343	0.161479	-0.445971	0.487270	0.991080	0.125508	0.044818	-0.128611	0.988870	0.074806	-0.034930	-0.079903	0.996190
44769	0.844649	0.805539	10.921902	0.227377	-0.502783	0.428030	0.990333	0.129304	0.050206	-0.132912	0.988147	0.076808	-0.039679	-0.082739	0.995781
44770	0.877983	0.866298	10.723925	0.272452	-0.548137	0.408900	0.989422	0.133809	0.056037	-0.138005	0.987256	0.079246	-0.044719	-0.086141	0.995279
44771	0.892881	0.762185	10.583357	0.250090	-0.485058	0.303402	0.988771	0.136356	0.061155	-0.141103	0.986634	0.081511	-0.049223	-0.089224	0.994795
44772	0.934342	0.581109	10.408957	0.209184	-0.345772	0.208437	0.988160	0.139068	0.064808	-0.144238	0.986020	0.083423	-0.052301	-0.091783	0.994405
44773	0.792754	0.253836	10.387451	0.274356	-0.246700	0.243853	0.987671	0.141237	0.067513	-0.146791	0.985426	0.085949	-0.054390	-0.094799	0.994009
44774	0.718736	0.026961	10.363079	0.223487	-0.228596	0.195467	0.987115	0.143890	0.069997	-0.149792	0.984794	0.087999	-0.056270	-0.097350	0.993658
44775	0.809944	0.047703	10.245233	0.160025	-0.248302	0.201198	0.986668	0.145611	0.072683	-0.151855	0.984350	0.089411	-0.058527	-0.099256	0.993339
44776	1.018786	0.384171	10.204148	0.161992	-0.247008	0.316491	0.985903	0.149327	0.075471	-0.155923	0.983593	0.090737	-0.060683	-0.101225	0.993011
44777	0.916669	0.842929	10.767249	0.193029	-0.294896	0.433112	0.985034	0.153266	0.078852	-0.160296	0.982748	0.092259	-0.063351	-0.103518	0.992608
44778	1.105517	1.055294	10.816161	0.255239	-0.386292	0.518911	0.983787	0.158856	0.083232	-0.166469	0.981527	0.094302	-0.066714	-0.106628	0.992058
44779	1.066979	1.122756	10.528222	0.313999	-0.332974	0.557245	0.982613	0.163952	0.087133	-0.172155	0.980296	0.096868	-0.069534	-0.110184	0.991476
44780	0.824451	0.775590	10.471885	0.274203	-0.215271	0.450598	0.981528	0.168951	0.089768	-0.177598	0.979098	0.099124	-0.071144	-0.113235	0.991018
44781	0.965599	0.527603	10.500454	0.242372	-0.146167	0.415279	0.980672	0.172844	0.091688	-0.181845	0.978117	0.101089	-0.072209	-0.115809	0.990643
44782	1.071169	0.529269	10.416513	0.258631	-0.071957	0.438848	0.979661	0.177855	0.092909	-0.187140	0.976899	0.103183	-0.072411	-0.118471	0.990314
44783	1.160433	0.833332	10.533013	0.232265	0.040988	0.408512	0.978911	0.181901	0.092986	-0.191317	0.975891	0.105043	-0.071637	-0.120618	0.990111
44784	1.117692	0.679547	10.438187	0.173719	0.097333	0.433005	0.977995	0.186983	0.092539	-0.196419	0.974741	0.106299	-0.070326	-0.122136	0.990019
44785	0.397285	-0.030759	10.215462	-0.046906	-0.287467	0.626708	0.976541	0.192692	0.096114	-0.202468	0.973626	0.105166	-0.073314	-0.122159	0.989799
44786	0.808450	0.590222	10.220400	0.086264	-0.150455	0.610914	0.975022	0.199163	0.098314	-0.209205	0.972181	0.105347	-0.074598	-0.123283	0.989564
44787	0.907274	0.828294	10.350153	0.163078	-0.150548	0.692723	0.973432	0.205690	0.100610	-0.216064	0.970588	0.106184	-0.075810	-0.125101	0.989243
44788	0.822284	1.105165	10.537083	0.271156	-0.164966	0.690844	0.971621	0.212914	0.103057	-0.223724	0.968642	0.108073	-0.076815	-0.128062	0.988787
44789	1.054286	1.092342	10.387445	0.346660	-0.155253	0.692923	0.969918	0.219420	0.105426	-0.230724	0.966703	0.110688	-0.077628	-0.131682	0.988248
44790	0.877342	0.984142	10.490006	0.353279	-0.134988	0.677191	0.968050	0.226502	0.107594	-0.238285	0.964556	0.113368	-0.078102	-0.135383	0.987710
44791	0.729233	0.720520	10.420517	0.308230	-0.222482	0.615522	0.966382	0.232124	0.110565	-0.244480	0.962732	0.115660	-0.079597	-0.138802	0.987116
44792	0.953481	0.361842	10.094241	0.239760	-0.306172	0.600872	0.964468	0.238168	0.114354	-0.251170	0.960813	0.117271	-0.081943	-0.141827	0.986494
44793	0.922458	0.188519	10.068426	0.215696	-0.368251	0.694554	0.962390	0.244282	0.118877	-0.258020	0.958845	0.118502	-0.085037	-0.144718	0.985812
44794	1.055979	0.525907	10.207460	0.298691	-0.435672	0.847136	0.959604	0.252425	0.124265	-0.267092	0.956131	0.120312	-0.088444	-0.148642	0.984928
44795	1.256137	1.160073	10.465196	0.414634	-0.490022	0.903025	0.956701	0.260290	0.130276	-0.276107	0.953207	0.123135	-0.092129	-0.153773	0.983802
44796	1.702959	1.547858	10.361851	0.473399	-0.415016	0.894606	0.953604	0.268816	0.135562	-0.285758	0.949917	0.126489	-0.094770	-0.159358	0.982661
44797	1.701296	1.379725	10.175619	0.427607	-0.366837	0.849033	0.950779	0.276269	0.140336	-0.294250	0.946926	0.129413	-0.097135	-0.164337	0.981610
44798	1.648741	1.143870	9.889036	0.310274	-0.337487	0.727257	0.948074	0.283240	0.144672	-0.302117	0.944181	0.131329	-0.099399	-0.168217	0.980726
44799	1.510221	0.835802	9.864150	0.227540	-0.354699	0.719787	0.945513	0.289400	0.149172	-0.309140	0.941753	0.132414	-0.102163	-0.171314	0.979905
44800	1.442919	0.963631	10.007693	0.200676	-0.403858	0.683300	0.942727	0.295833	0.154106	-0.316505	0.939184	0.133258	-0.105312	-0.174402	0.979027
44801	1.362620	1.296707	10.146248	0.282386	-0.396181	0.700759	0.940057	0.301685	0.158995	-0.323385	0.936611	0.134838	-0.108238	-0.178173	0.978028
44802	1.424596	1.182331	9.949691	0.316401	-0.476611	0.734310	0.936882	0.308413	0.164726	-0.331346	0.933561	0.136651	-0.111637	-0.182607	0.976827
44803	1.380116	0.587116	9.507091	0.552171	-0.334521	1.047606	0.932961	0.317552	0.169541	-0.341768	0.929273	0.140163	-0.113041	-0.188710	0.975505
44804	1.318070	0.446409	9.175352	0.436846	-0.562976	1.166020	0.928007	0.327952	0.176779	-0.353793	0.924441	0.142265	-0.116765	-0.194566	0.973915
44805	1.515953	0.764863	9.171129	0.361871	-0.574140	1.229701	0.922893	0.338125	0.184229	-0.365574	0.919665	0.143427	-0.120932	-0.199717	0.972362
44806	1.714750	1.390930	9.495401	0.361047	-0.579246	1.235621	0.917296	0.349002	0.191742	-0.378106	0.914420	0.144470	-0.124912	-0.205021	0.970754
44807	1.849258	1.904233	9.905253	0.489238	-0.560528	1.292872	0.911603	0.359598	0.199171	-0.390530	0.908852	0.146540	-0.128322	-0.211369	0.968946
44808	1.924586	2.215638	10.060485	0.607941	-0.525479	1.295292	0.905480	0.370877	0.206290	-0.403765	0.902541	0.149645	-0.130685	-0.218794	0.966980
44809	2.255319	2.136650	9.880131	0.615233	-0.500544	1.249829	0.899676	0.380998	0.213127	-0.415854	0.896499	0.152820	-0.132844	-0.226119	0.964999
44810	2.062598	1.558532	9.713054	0.503586	-0.503503	1.212318	0.893557	0.391378	0.219954	-0.428106	0.890353	0.154907	-0.135209	-0.232582	0.963132
44811	1.894406	1.342299	9.859497	0.355374	-0.474492	1.158431	0.887875	0.400514	0.226420	-0.438885	0.884966	0.155610	-0.138050	-0.237535	0.961519
44812	2.148326	1.202454	9.916335	0.315737	-0.490642	1.209929	0.881499	0.410627	0.233120	-0.450652	0.879012	0.155726	-0.140970	-0.242328	0.959898
44813	2.272061	1.405994	9.746081	0.314667	-0.466830	1.299221	0.874891	0.420828	0.239729	-0.462478	0.872883	0.155528	-0.143805	-0.246939	0.958301
44814	2.142356	1.727522	9.805779	0.340649	-0.381558	1.380650	0.867534	0.432486	0.245644	-0.475611	0.865842	0.155282	-0.145531	-0.251543	0.956842
44815	2.216555	1.823356	10.009108	0.448360	-0.325245	1.463818	0.859975	0.444257	0.251153	-0.488895	0.858323	0.155766	-0.146370	-0.256743	0.955332
44816	2.210932	2.038152	10.067664	0.571364	-0.326595	1.518448	0.851605	0.456985	0.256774	-0.503341	0.849671	0.157186	-0.146342	-0.263105	0.953603
44817	2.382294	2.428370	10.044028	0.607664	-0.326251	1.531483	0.843279	0.469052	0.262432	-0.517207	0.840995	0.158822	-0.146208	-0.269663	0.951790
44818	2.110215	2.183465	9.880679	0.566980	-0.340374	1.526868	0.834425	0.481443	0.268231	-0.531401	0.831876	0.159984	-0.146111	-0.276033	0.949978
44819	2.569585	2.093291	9.507790	0.669104	-0.456401	1.450623	0.825921	0.492156	0.275022	-0.544420	0.822976	0.162224	-0.146497	-0.283712	0.947653
44820	2.716864	2.265293	9.669508	0.610322	-0.503037	1.477287	0.816701	0.503287	0.282314	-0.557948	0.813568	0.163713	-0.147286	-0.291221	0.945250
44821	2.472893	1.767362	9.586991	0.561814	-0.620574	1.421989	0.807738	0.512930	0.290625	-0.570310	0.804731	0.164784	-0.149352	-0.298849	0.942541
44822	2.468221	1.824609	9.584152	0.459155	-0.626040	1.301419	0.799006	0.521848	0.298772	-0.581859	0.796350	0.165126	-0.151756	-0.305779	0.939930
44823	2.317728	1.582520	9.614581	0.400862	-0.655179	1.143328	0.791286	0.528843	0.306907	-0.591532	0.789155	0.165302	-0.154778	-0.312346	0.937275
44824	2.672288	1.909135	9.488700	0.371152	-0.703815	1.056712	0.783583	0.535318	0.315330	-0.600839	0.782077	0.165373	-0.158085	-0.319045	0.934462
44825	2.559287	2.114556	9.465082	0.329493	-0.649873	0.987902	0.776567	0.540873	0.323112	-0.609035	0.775750	0.165189	-0.161308	-0.325066	0.931832
44826	2.448054	2.143700	9.410688	0.524605	-0.682175	0.915706	0.769589	0.546013	0.331061	-0.617290	0.768814	0.166968	-0.163358	-0.332857	0.928720
44827	2.751219	2.686351	9.037969	0.763718	-0.764210	0.955302	0.762372	0.550721	0.339846	-0.625853	0.761025	0.170727	-0.164608	-0.342852	0.924855
44828	2.960707	2.804943	8.932559	0.892928	-0.690195	1.125951	0.753911	0.557074	0.348263	-0.636112	0.751500	0.174955	-0.164257	-0.353435	0.920925
44829	3.146811	2.547789	8.985388	0.922973	-0.599136	1.178303	0.745328	0.563718	0.355963	-0.646466	0.741613	0.179144	-0.163000	-0.363639	0.917168
44830	3.188102	2.324354	8.954964	0.934695	-0.504312	1.272759	0.735935	0.571518	0.362996	-0.657710	0.730713	0.182966	-0.160678	-0.373397	0.913650
44831	3.326088	1.858619	8.932670	0.871072	-0.400063	1.388843	0.726028	0.580070	0.369326	-0.669263	0.719457	0.185658	-0.158020	-0.381969	0.910565
44832	2.788288	1.572278	8.778713	0.851043	-0.509801	1.298148	0.716227	0.587594	0.376499	-0.680205	0.708399	0.188394	-0.156013	-0.391029	0.907059
44833	2.814640	1.913187	8.955217	0.773335	-0.807610	1.006219	0.708053	0.591451	0.385807	-0.688571	0.699443	0.191439	-0.156623	-0.401205	0.902499
44834	3.048958	2.225212	8.607520	0.677621	-1.036107	0.821307	0.700542	0.593128	0.396786	-0.695618	0.691657	0.194233	-0.159235	-0.412080	0.897126
44835	3.230321	2.287904	8.287346	0.761083	-1.061373	0.657498	0.694238	0.593186	0.407633	-0.701408	0.684614	0.198319	-0.161431	-0.423598	0.891350
44836	3.361532	2.316224	8.303014	0.842829	-1.011321	0.565441	0.688456	0.592841	0.417813	-0.706844	0.677495	0.203401	-0.162482	-0.435361	0.885472
44837	3.467322	2.327692	8.218252	0.807419	-1.013260	0.604974	0.682495	0.592422	0.428062	-0.712299	0.670380	0.207896	-0.163802	-0.446796	0.879513
44838	3.602453	2.398998	8.057479	0.758038	-1.095124	0.686429	0.675653	0.592141	0.439161	-0.718325	0.662784	0.211486	-0.165839	-0.458351	0.873162
44839	3.938874	2.528252	7.972186	0.698601	-1.146430	0.762625	0.668231	0.591799	0.450822	-0.724591	0.655081	0.214093	-0.168625	-0.469726	0.866558
44840	4.012382	2.602263	7.798534	0.658168	-1.176226	0.754723	0.660621	0.591206	0.462661	-0.730826	0.647401	0.216253	-0.171677	-0.480986	0.859755
44841	4.231118	2.809936	7.715060	0.645378	-1.238980	0.726845	0.653145	0.589799	0.474909	-0.736686	0.640028	0.218305	-0.175199	-0.492444	0.852528
44842	4.271884	3.239542	7.980427	0.648327	-1.331488	0.685584	0.645599	0.587610	0.487767	-0.742389	0.632662	0.220447	-0.179055	-0.504433	0.844682
44843	4.191639	3.136530	8.147500	0.600600	-1.423363	0.642440	0.638250	0.584323	0.501203	-0.747560	0.625900	0.222270	-0.183825	-0.516543	0.836296
44844	4.472603	2.993823	7.775091	0.584128	-1.466575	0.674442	0.630385	0.580891	0.514956	-0.752980	0.618869	0.223655	-0.188772	-0.528741	0.827525
44845	4.997286	3.382475	7.647014	0.657671	-1.319587	0.810440	0.621751	0.578756	0.527700	-0.759269	0.610726	0.224778	-0.192189	-0.540422	0.819151
44846	5.063982	2.717359	8.526676	0.572347	-1.188659	1.001461	0.611814	0.578273	0.539708	-0.766512	0.601894	0.224017	-0.195304	-0.550749	0.811500
44847	5.734597	2.876508	8.747374	0.475941	-1.118519	1.151279	0.600749	0.578856	0.551386	-0.774380	0.592687	0.221491	-0.198588	-0.560043	0.804310
44848	5.608578	2.880452	8.595638	0.184781	-1.182872	1.433893	0.587230	0.580506	0.564069	-0.783192	0.583469	0.214880	-0.204378	-0.567959	0.797278
44849	5.606503	2.724101	8.299642	-0.013407	-1.205255	1.656948	0.571713	0.583074	0.577208	-0.792671	0.574070	0.205221	-0.211699	-0.574864	0.790389
44850	5.733111	2.160019	7.459743	-0.168587	-1.130844	1.782126	0.555116	0.586545	0.589755	-0.802245	0.564802	0.193397	-0.219658	-0.580486	0.784083
44851	5.630085	1.756015	7.511507	-0.273673	-0.991967	1.889367	0.537703	0.591197	0.601134	-0.811849	0.555460	0.179905	-0.227546	-0.584765	0.778635
44852	6.116206	1.959495	7.495938	-0.418408	-1.123248	1.902257	0.519544	0.595007	0.613222	-0.820898	0.546713	0.165022	-0.237067	-0.589128	0.772481
44853	5.679235	2.062950	7.309963	-0.322942	-1.124086	1.825224	0.501835	0.598100	0.624851	-0.829326	0.537931	0.151154	-0.245722	-0.594060	0.765973
44854	6.176072	2.362351	8.018005	-0.062567	-1.148298	1.657306	0.485148	0.599997	0.636109	-0.837312	0.528459	0.140143	-0.252072	-0.600612	0.758765
44855	6.722495	1.822161	8.477375	0.117189	-1.243271	1.617023	0.468414	0.600816	0.647772	-0.845233	0.518204	0.130560	-0.257236	-0.608675	0.750563
44856	6.152239	1.783855	8.251122	0.315015	-1.408802	1.441102	0.452483	0.599507	0.660190	-0.852672	0.507663	0.123407	-0.261171	-0.618765	0.740891
44857	5.540948	1.436078	7.312354	0.451747	-1.372449	1.370399	0.437164	0.597721	0.672025	-0.859886	0.496774	0.117524	-0.263598	-0.629242	0.731144
44858	5.472678	0.811969	6.875567	0.676291	-1.139226	1.354364	0.422432	0.597073	0.681950	-0.867455	0.484474	0.113167	-0.262818	-0.639366	0.722591
44859	6.142432	0.006358	7.388062	0.761129	-1.044046	1.216614	0.409075	0.596095	0.690890	-0.874467	0.472406	0.110183	-0.260701	-0.649233	0.714515
44860	6.560320	-0.267890	6.903126	0.695039	-1.116775	1.125714	0.396262	0.593983	0.700115	-0.880779	0.461232	0.107204	-0.259238	-0.659128	0.705936
44861	6.482018	0.144158	6.350872	0.521831	-1.021119	1.132796	0.383603	0.592296	0.708544	-0.886503	0.451157	0.102812	-0.258769	-0.667565	0.698137
44862	6.671938	0.114358	5.945327	0.307645	-1.067614	0.963896	0.372299	0.589350	0.716980	-0.890887	0.443520	0.098033	-0.260219	-0.675246	0.690166
44863	6.928871	0.423666	5.932137	0.093646	-1.053962	0.831758	0.362159	0.585775	0.725057	-0.894133	0.438110	0.092661	-0.263376	-0.681856	0.682426
44864	6.724061	0.310492	5.311796	-0.174515	-1.067635	0.809618	0.352163	0.581886	0.733069	-0.896480	0.434741	0.085582	-0.268896	-0.687320	0.674749
44865	5.598872	-0.370675	4.482430	-0.004026	-0.909532	0.635306	0.344047	0.578280	0.739746	-0.898632	0.431183	0.080876	-0.272197	-0.692585	0.668009
44866	7.171884	-0.250646	5.286625	0.102555	-1.036641	0.271129	0.338891	0.572134	0.746871	-0.899755	0.429081	0.079567	-0.274945	-0.698965	0.660192
44867	6.709308	-0.258429	5.144469	0.246264	-1.101199	0.022070	0.335701	0.564444	0.754127	-0.900483	0.427271	0.081051	-0.276468	-0.706288	0.651708
44868	6.250497	-0.078070	4.845724	0.399880	-1.194544	-0.026175	0.332738	0.555767	0.761846	-0.901431	0.424722	0.083868	-0.276961	-0.714657	0.642306
44869	6.275742	-0.153907	4.435898	0.689588	-1.288783	-0.101479	0.330113	0.546036	0.769981	-0.902989	0.420334	0.089055	-0.275022	-0.724682	0.631822
44870	7.151029	-0.000810	4.768575	0.886851	-1.357350	-0.094172	0.327346	0.535660	0.778404	-0.905031	0.414522	0.095343	-0.271594	-0.735690	0.620481
44871	8.180937	0.103475	5.353755	0.842357	-1.206518	0.202519	0.322247	0.527523	0.786051	-0.907950	0.407235	0.098922	-0.267924	-0.745573	0.610195
44872	8.721404	0.662607	5.517724	0.551897	-0.976687	0.607640	0.314221	0.522535	0.792605	-0.911248	0.400166	0.097441	-0.266258	-0.752877	0.601899
44873	8.478928	1.049380	4.979823	0.137042	-0.877934	0.877493	0.303895	0.519301	0.798733	-0.914279	0.394671	0.091259	-0.267846	-0.757998	0.594725
44874	8.412370	0.942179	4.787872	-0.068813	-0.636333	1.091928	0.292306	0.518599	0.803500	-0.917226	0.389819	0.082080	-0.270653	-0.760984	0.589619
44875	8.712594	0.756232	5.271051	-0.325466	-0.468437	1.344604	0.278716	0.520123	0.807335	-0.920111	0.385476	0.069308	-0.275160	-0.762155	0.586009
44876	8.715991	0.722951	5.169919	-0.600789	-0.547332	1.492905	0.263623	0.521484	0.811515	-0.922320	0.382675	0.053710	-0.282538	-0.762636	0.581857
44877	8.276742	1.109754	4.492431	-0.622121	-0.510259	1.407245	0.249241	0.522823	0.815190	-0.924073	0.380257	0.038653	-0.289773	-0.762929	0.577902
44878	7.374348	1.209213	3.880324	-0.407059	-0.449180	1.148115	0.237360	0.523633	0.818211	-0.925615	0.377508	0.026924	-0.294783	-0.763739	0.574288
44879	7.448435	1.076180	4.241878	0.006157	-0.525343	0.805410	0.228366	0.522556	0.821453	-0.927468	0.373349	0.020337	-0.296061	-0.766516	0.569914
44880	7.749737	0.878939	4.604319	0.360150	-0.657119	0.572418	0.221251	0.519507	0.825325	-0.929692	0.367914	0.017643	-0.294483	-0.771202	0.564383
44881	8.185299	0.716504	4.728446	0.647658	-0.845718	0.343410	0.215565	0.514168	0.830159	-0.932321	0.361162	0.018404	-0.290359	-0.777942	0.557224
44882	8.247681	0.504324	4.317743	0.822870	-0.884951	0.288214	0.210467	0.508182	0.835138	-0.935179	0.353579	0.020525	-0.284857	-0.785324	0.549658
44883	8.704871	0.455586	3.879403	0.735592	-0.605888	0.387897	0.205085	0.504728	0.838564	-0.938050	0.345849	0.021251	-0.279290	-0.790973	0.544389
44884	9.094128	0.377872	5.078413	0.344977	-0.363711	0.501601	0.199483	0.503466	0.840671	-0.939915	0.340886	0.018880	-0.277068	-0.793926	0.541217
44885	9.130119	1.244819	5.806181	0.068655	-0.500698	0.697126	0.191553	0.501774	0.843523	-0.941436	0.336927	0.013365	-0.277499	-0.796683	0.536927
44886	8.812852	1.222906	5.270804	-0.093118	-0.707645	0.958431	0.180592	0.499239	0.847436	-0.942914	0.333001	0.004763	-0.279819	-0.799919	0.530877
44887	8.477330	0.960302	5.080323	-0.227144	-0.764769	1.048109	0.168605	0.496474	0.851520	-0.944054	0.329748	-0.005331	-0.283434	-0.802982	0.524295
44888	8.472246	0.261414	5.154097	-0.225776	-1.083744	0.998994	0.156153	0.490915	0.857099	-0.944980	0.326785	-0.015006	-0.287454	-0.807598	0.514933
44889	8.174491	-0.106276	3.722799	-0.076160	-1.169112	0.745858	0.145797	0.483772	0.862965	-0.945844	0.323891	-0.021772	-0.290039	-0.813056	0.504795
44890	7.458833	-0.584759	3.008548	0.234035	-1.056934	0.424596	0.138755	0.476450	0.868183	-0.947101	0.320018	-0.024255	-0.289391	-0.818892	0.495651
44891	7.766894	-0.662385	3.013328	0.702190	-1.055617	0.030569	0.135437	0.467836	0.873376	-0.949150	0.314117	-0.021074	-0.284201	-0.826111	0.486590
44892	8.521533	0.035925	4.325046	1.058032	-0.997656	-0.293577	0.135401	0.458648	0.878242	-0.951723	0.306664	-0.013420	-0.275481	-0.834026	0.478028
44893	8.980289	0.965307	4.645100	1.184810	-0.907315	-0.268327	0.135451	0.450241	0.882574	-0.954575	0.297920	-0.005482	-0.265405	-0.841740	0.470142
44894	8.732450	1.085014	4.351188	1.419118	-0.807612	-0.137014	0.134583	0.443020	0.886352	-0.958080	0.286493	0.002278	-0.252925	-0.849503	0.463006
44895	8.966973	0.900574	4.384638	1.616072	-0.743768	-0.056783	0.133189	0.436523	0.889780	-0.961986	0.272910	0.010108	-0.238418	-0.857303	0.456278
44896	9.120371	0.792629	4.008248	1.313739	-0.748110	0.116279	0.130246	0.430385	0.893199	-0.965199	0.261088	0.014941	-0.226773	-0.864061	0.449413
44897	9.066546	-0.039055	4.079379	0.949977	-0.642980	0.348198	0.125393	0.425671	0.896148	-0.967754	0.251390	0.016003	-0.218470	-0.869257	0.443467
44898	8.507849	0.173416	3.949627	0.724577	-0.629103	0.450727	0.119639	0.421258	0.899015	-0.969856	0.243210	0.015103	-0.212287	-0.873722	0.437657
44899	8.335982	-0.441981	3.108567	0.632205	-0.613845	0.385481	0.114585	0.416761	0.901765	-0.971623	0.236102	0.014345	-0.206930	-0.877819	0.431989
44900	8.179472	-0.834312	3.219301	0.415944	-0.680242	0.239907	0.110862	0.411296	0.904735	-0.972737	0.231489	0.013959	-0.203695	-0.881617	0.425747
44901	7.913041	-1.339547	2.560375	0.085223	-0.660177	0.077123	0.108806	0.405603	0.907550	-0.972986	0.230461	0.013653	-0.203617	-0.884519	0.419722
44902	7.853197	-0.822107	2.938401	0.075098	-0.565685	-0.061567	0.108291	0.400420	0.909910	-0.973066	0.230067	0.014563	-0.203509	-0.886980	0.414549
44903	7.545365	0.098481	2.701154	0.277591	-0.406428	-0.253567	0.109943	0.396216	0.911551	-0.973352	0.228604	0.018031	-0.201240	-0.889243	0.410791
44904	9.449502	0.991211	5.217081	0.674448	0.010852	-0.213325	0.111982	0.395831	0.911470	-0.974459	0.223415	0.022696	-0.194652	-0.890732	0.410740
44905	9.432707	0.666878	6.704004	0.570942	-1.343090	-0.234765	0.111720	0.383284	0.916849	-0.975294	0.219232	0.027193	-0.190580	-0.897235	0.398307
44906	8.751056	0.618613	3.877103	0.627577	-1.174554	-0.051295	0.110031	0.372573	0.921457	-0.976414	0.213793	0.030150	-0.185768	-0.903040	0.387309
44907	8.212016	-0.688418	2.508116	0.834603	-0.992123	0.042522	0.107791	0.363649	0.925279	-0.977979	0.206090	0.032934	-0.178715	-0.908453	0.377856
44908	8.502124	-1.024768	2.791437	1.016956	-0.860985	-0.114813	0.107375	0.355563	0.928464	-0.979630	0.197226	0.037763	-0.169690	-0.913606	0.369498
44909	8.853741	-0.654521	3.001536	0.978007	-0.943987	-0.104327	0.106804	0.346698	0.931876	-0.981139	0.188625	0.042274	-0.161119	-0.918815	0.360305
44910	9.383886	-0.405399	2.749097	0.926997	-0.784206	0.014681	0.105392	0.339482	0.934689	-0.982611	0.180040	0.045405	-0.152867	-0.923221	0.352554
44911	9.742345	0.845477	3.688863	0.989283	-0.353537	0.231506	0.102517	0.336589	0.936054	-0.984319	0.170123	0.046629	-0.143549	-0.926156	0.348752
44912	9.246369	1.977807	3.992728	0.960783	-0.133300	0.500335	0.097315	0.336135	0.936773	-0.986152	0.159568	0.045189	-0.134289	-0.928198	0.347009
44913	9.056383	1.623201	3.728739	1.025511	-0.102842	0.512848	0.092024	0.335924	0.937383	-0.987963	0.148351	0.043826	-0.124339	-0.930133	0.345532
44914	8.637103	1.147793	3.236460	0.781499	-0.199754	0.408272	0.087685	0.334609	0.938269	-0.989271	0.139741	0.042616	-0.116854	-0.931938	0.343272
44915	8.984727	0.555397	3.193500	0.421975	-0.394297	0.355854	0.083698	0.331371	0.939781	-0.990055	0.134666	0.040691	-0.113073	-0.933841	0.339346
44916	8.854388	0.282620	2.815148	0.000036	-0.702802	0.347019	0.079520	0.325210	0.942293	-0.990328	0.133593	0.037467	-0.113700	-0.936158	0.332687
44917	8.566769	0.062086	2.393135	-0.313054	-0.936495	0.329461	0.075276	0.316811	0.945497	-0.990207	0.135552	0.033415	-0.117577	-0.938753	0.323912
44918	9.124054	0.377422	2.426598	-0.289714	-1.095101	0.274291	0.071363	0.306830	0.949085	-0.990048	0.137496	0.029992	-0.121293	-0.941780	0.313588
44919	9.269410	0.595988	2.659494	-0.051132	-1.030627	0.199767	0.068209	0.297330	0.952335	-0.990115	0.137435	0.028007	-0.122557	-0.944831	0.303765
44920	9.055934	0.449583	1.983090	0.176878	-0.820563	0.094971	0.066314	0.289657	0.954830	-0.990388	0.135519	0.027672	-0.121382	-0.947488	0.295860
44921	9.039722	1.031871	2.406510	0.284465	-0.372165	-0.044471	0.066311	0.286043	0.955920	-0.990699	0.132961	0.028937	-0.118823	-0.948947	0.292199
44922	9.305191	1.090677	2.890989	0.236199	-0.019749	-0.099099	0.067258	0.285706	0.955954	-0.990911	0.131002	0.030564	-0.116500	-0.949321	0.291920
44923	9.369855	0.536195	2.828711	0.175857	0.018936	-0.001970	0.067288	0.285856	0.955907	-0.991112	0.129350	0.031085	-0.114761	-0.949502	0.292019
44924	9.113993	0.391895	2.795564	-0.134102	-0.186852	0.109825	0.066021	0.284186	0.956493	-0.991024	0.130346	0.029677	-0.116241	-0.949868	0.290241
44925	9.736681	0.790451	2.962238	-0.570527	-0.719677	0.308552	0.062220	0.277691	0.958653	-0.990528	0.134981	0.025189	-0.122405	-0.951140	0.283459
44926	9.652776	0.511462	2.662857	-1.096851	-1.218951	0.525191	0.055660	0.266730	0.962163	-0.989410	0.144116	0.017285	-0.134052	-0.952935	0.271927
44927	10.106689	-0.136338	2.119372	-1.499409	-1.425970	0.570130	0.048256	0.253885	0.966030	-0.987554	0.157072	0.008051	-0.149692	-0.954396	0.258305
44928	10.452518	-0.280956	1.148664	-1.937519	-1.357351	0.470170	0.041752	0.241601	0.969477	-0.984650	0.174536	-0.001091	-0.169472	-0.954550	0.245179
44929	10.597378	-0.149032	0.642660	-2.328942	-0.909000	0.324583	0.037222	0.233427	0.971662	-0.980539	0.196094	-0.009546	-0.192765	-0.952397	0.236183
44930	9.786851	-0.039697	-0.648829	-2.204278	-0.397262	0.239195	0.034334	0.230045	0.972574	-0.976118	0.216592	-0.016772	-0.214510	-0.948771	0.231988
44931	8.801839	0.257300	-0.952424	-1.462145	-0.108501	0.199427	0.032312	0.229383	0.972800	-0.972930	0.230059	-0.021931	-0.228832	-0.945757	0.230607
44932	10.689646	-1.546416	-3.446895	0.590176	-0.994992	0.373034	0.026436	0.220746	0.974973	-0.974362	0.223680	-0.024225	-0.223429	-0.949336	0.221000
44933	10.803476	-0.787554	2.707814	1.345431	-1.517146	0.489864	0.018320	0.207306	0.978105	-0.977378	0.209874	-0.026176	-0.210705	-0.955498	0.206461
44934	8.821436	-0.566488	5.448626	1.091562	-0.389569	0.315433	0.014348	0.204189	0.978826	-0.979664	0.198807	-0.027112	-0.200134	-0.958532	0.202889
44935	11.352363	-1.364399	3.849422	1.024587	-0.141403	0.144280	0.012564	0.203090	0.979079	-0.981677	0.188693	-0.026543	-0.190136	-0.960807	0.201740
44936	10.890542	-1.233685	3.125043	1.047174	-0.493011	0.256050	0.009064	0.198783	0.980002	-0.983636	0.178127	-0.027034	-0.179939	-0.963720	0.197145
44937	10.081734	-0.663145	2.595979	0.829892	-0.229454	0.177711	0.006845	0.196850	0.980410	-0.985104	0.169791	-0.027214	-0.171822	-0.965620	0.195080
44938	10.143411	-0.453784	1.050039	0.704452	0.145764	0.104018	0.005989	0.198408	0.980101	-0.986293	0.162790	-0.026928	-0.164893	-0.966506	0.196664
44939	10.638656	-0.709038	-0.015779	0.479096	0.207427	0.035093	0.005923	0.200447	0.979687	-0.987071	0.158097	-0.026379	-0.160173	-0.966864	0.198792
44940	10.792521	-0.816176	0.059384	0.394683	0.008044	-0.084986	0.006743	0.200374	0.979696	-0.987690	0.154449	-0.024790	-0.156280	-0.967469	0.198948
44941	10.005305	-0.358682	1.168575	0.557431	-0.137880	-0.159797	0.008070	0.198784	0.980010	-0.988534	0.149362	-0.022156	-0.150781	-0.968595	0.197710
44942	9.209449	0.209860	2.128530	0.853450	-0.255592	-0.153694	0.009154	0.196072	0.980547	-0.989773	0.141377	-0.019030	-0.142358	-0.970345	0.195361
44943	8.564624	0.834744	2.317502	1.382875	-0.242460	-0.043542	0.009135	0.193648	0.981029	-0.991643	0.128014	-0.016035	-0.128691	-0.972683	0.193199
44944	6.569081	2.069866	1.831528	1.157435	-0.279581	0.329505	0.005426	0.191288	0.981519	-0.993085	0.116140	-0.017145	-0.117274	-0.974639	0.190596
44945	7.622474	1.083278	2.548592	0.889875	-0.341342	0.616050	-0.001147	0.188582	0.982057	-0.994094	0.106357	-0.021585	-0.108520	-0.976281	0.187346
44946	7.878993	0.651686	3.550007	0.915901	-0.551521	0.824129	-0.009971	0.183948	0.982885	-0.994990	0.095961	-0.028053	-0.099479	-0.978241	0.182070
44947	8.962486	0.217775	3.295485	1.010461	-0.687747	0.845317	-0.019092	0.177897	0.983864	-0.995811	0.084630	-0.034626	-0.089424	-0.980403	0.175536
44948	10.014815	-0.335093	1.746935	1.076849	-0.667183	0.785799	-0.027541	0.171892	0.984731	-0.996523	0.072772	-0.040574	-0.078635	-0.982424	0.169290
44949	10.859966	-1.058284	-0.506564	1.007626	-0.623069	0.571375	-0.033753	0.166088	0.985533	-0.997082	0.061964	-0.044591	-0.068474	-0.984162	0.163512
44950	11.050641	-1.422309	-0.519414	0.538511	-0.478661	0.215441	-0.036229	0.161459	0.986214	-0.997358	0.056342	-0.045862	-0.062970	-0.985270	0.158992
44951	10.297314	-1.133540	0.807426	0.337400	-0.352040	-0.086787	-0.035580	0.157919	0.986811	-0.997595	0.053160	-0.044476	-0.059483	-0.986020	0.155647
44952	8.985758	-0.461371	0.541185	0.281866	-0.367594	-0.224168	-0.033548	0.154161	0.987476	-0.997837	0.050720	-0.041819	-0.056531	-0.986743	0.152126
44953	8.010182	0.131817	-0.066599	0.097889	-0.525084	-0.186399	-0.031946	0.148865	0.988341	-0.997954	0.050036	-0.039793	-0.055377	-0.987591	0.146962
44954	7.533324	0.408411	0.993799	-0.045264	-0.436918	-0.091104	-0.031232	0.144476	0.989015	-0.997959	0.050627	-0.038910	-0.055692	-0.988212	0.142600
44955	8.514841	-0.580444	2.687417	0.464436	-0.381813	0.019756	-0.031646	0.140681	0.989549	-0.998200	0.046022	-0.038465	-0.050953	-0.988985	0.138972
44956	9.398586	-0.929303	3.113387	0.675200	-0.357845	-0.049959	-0.031351	0.137094	0.990062	-0.998535	0.039414	-0.037077	-0.044105	-0.989774	0.135658
44957	9.854287	-1.299592	1.794767	0.222420	-0.416550	-0.169962	-0.029817	0.132886	0.990683	-0.998683	0.037440	-0.035080	-0.041753	-0.990424	0.131595
44958	8.974844	-0.780413	1.116313	-0.139689	-0.494718	-0.230299	-0.027665	0.127880	0.991404	-0.998692	0.039121	-0.032914	-0.042993	-0.991018	0.126631
44959	8.625030	-0.661244	1.376980	-0.120996	-0.477949	-0.218880	-0.025630	0.123038	0.992071	-0.998700	0.040593	-0.030836	-0.044065	-0.991571	0.121838
44960	8.498921	-0.670659	0.766601	0.279284	-0.364046	-0.203055	-0.023749	0.119331	0.992570	-0.998870	0.038062	-0.028476	-0.041177	-0.992125	0.118293
44961	8.872424	-0.716714	-0.055622	0.200741	-0.200961	-0.197909	-0.021849	0.117247	0.992862	-0.998996	0.036298	-0.026270	-0.039119	-0.992439	0.116337
44962	8.801620	-0.848497	-0.458492	0.068437	-0.357379	-0.148278	-0.020476	0.113626	0.993313	-0.999054	0.035791	-0.024688	-0.038357	-0.992879	0.112785
44963	8.218162	-0.525082	-0.784794	-0.005337	-0.394911	-0.130596	-0.019284	0.109635	0.993785	-0.999079	0.035995	-0.023358	-0.038332	-0.993320	0.108840
44964	7.776351	-0.477846	-0.622677	0.329999	-0.429614	-0.066872	-0.018766	0.105317	0.994262	-0.999213	0.032795	-0.022334	-0.034958	-0.993898	0.104619
44965	7.930520	-0.276924	0.188004	0.842386	-0.457149	0.028000	-0.019234	0.100750	0.994726	-0.999465	0.024403	-0.021797	-0.026471	-0.994612	0.100227
44966	8.467487	-0.729520	0.559092	0.735800	-0.466694	0.075365	-0.020127	0.096087	0.995169	-0.999616	0.017026	-0.021861	-0.019045	-0.995227	0.095707
44967	8.760089	-0.798222	1.285921	0.482722	-0.446976	0.032863	-0.020540	0.091611	0.995583	-0.999689	0.012208	-0.021748	-0.014146	-0.995720	0.091332
44968	9.137500	-1.151229	0.952808	0.219786	-0.414741	-0.040515	-0.020105	0.087453	0.995966	-0.999721	0.010606	-0.021112	-0.012410	-0.996112	0.087215
44969	9.506554	-1.624984	-0.072381	0.301595	-0.542799	-0.090554	-0.019242	0.082013	0.996445	-0.999772	0.007684	-0.019939	-0.009292	-0.996602	0.081846
44970	8.692271	-0.972993	0.323713	0.479577	-0.591276	-0.184116	-0.017441	0.076090	0.996948	-0.999838	0.003043	-0.017724	-0.004383	-0.997096	0.076024
44971	8.261030	-0.524599	0.670002	0.523726	-0.529795	-0.236965	-0.015089	0.070791	0.997377	-0.999886	-0.002017	-0.014983	0.000951	-0.997489	0.070814
44972	8.478302	-0.300676	0.074514	0.212858	-0.520172	-0.210339	-0.012950	0.065591	0.997763	-0.999911	-0.004004	-0.012715	0.003161	-0.997839	0.065637
44973	8.693241	-0.397379	-0.135563	-0.170375	-0.472542	-0.125020	-0.011627	0.060858	0.998079	-0.999931	-0.002219	-0.011513	0.001514	-0.998144	0.060880
44974	8.683492	-0.580149	0.050616	-0.363453	-0.480772	-0.051936	-0.011025	0.056030	0.998368	-0.999937	0.001452	-0.011124	-0.002073	-0.998428	0.056011
44975	9.007728	-0.532432	-0.267125	-0.414187	-0.437301	-0.107675	-0.009881	0.051638	0.998617	-0.999932	0.005654	-0.010186	-0.006172	-0.998650	0.051578
44976	9.439633	-0.615821	0.696437	-0.440172	-0.354248	0.027872	-0.010106	0.048067	0.998793	-0.999893	0.010057	-0.010601	-0.010554	-0.998793	0.047960
44977	9.542729	-0.786684	0.296319	-0.331875	-0.270590	0.014821	-0.010222	0.045335	0.998920	-0.999852	0.013384	-0.010839	-0.013861	-0.998882	0.045191
44978	9.666676	-0.851382	0.644051	-0.016908	-0.226313	0.055074	-0.010775	0.043045	0.999015	-0.999844	0.013550	-0.011368	-0.014026	-0.998981	0.042893
44979	9.386270	-0.352830	1.142387	0.339488	-0.284447	0.147972	-0.012295	0.040182	0.999117	-0.999868	0.010127	-0.012711	-0.010629	-0.999141	0.040052
44980	9.378873	-0.264277	1.099232	0.357864	-0.376601	0.287684	-0.015206	0.036392	0.999222	-0.999860	0.006486	-0.015452	-0.007043	-0.999317	0.036288
44981	9.708886	-0.133176	0.241989	0.301227	-0.310521	0.209640	-0.017318	0.033256	0.999297	-0.999842	0.003440	-0.017442	-0.004018	-0.999441	0.033191
44982	10.389782	-0.398554	0.417690	-0.000120	-0.221140	0.238907	-0.019689	0.031006	0.999325	-0.999798	0.003405	-0.019804	-0.004017	-0.999513	0.030933
44983	10.713083	-0.595634	0.293625	-0.465244	-0.217994	0.259860	-0.022224	0.028795	0.999338	-0.999715	0.008023	-0.022464	-0.008664	-0.999553	0.028609
44984	10.448944	-0.533797	-0.063258	-0.681947	-0.169552	0.205396	-0.024203	0.027078	0.999340	-0.999587	0.014821	-0.024610	-0.015477	-0.999523	0.026708
44985	9.953496	-0.546099	-0.102052	-0.679461	-0.239195	0.261419	-0.026761	0.024686	0.999337	-0.999394	0.021589	-0.027295	-0.022248	-0.999462	0.024093
44986	9.769205	-0.797487	-0.073132	-0.351893	-0.345457	0.306077	-0.029831	0.021251	0.999329	-0.999224	0.025085	-0.030362	-0.025713	-0.999459	0.020486
44987	9.914371	-1.250104	0.647858	0.127594	-0.392984	0.254278	-0.032446	0.017338	0.999323	-0.999177	0.023802	-0.032854	-0.024356	-0.999566	0.016552
44988	10.002969	-0.896341	0.501263	0.196859	-0.451585	0.064726	-0.033179	0.012802	0.999367	-0.999201	0.021847	-0.033453	-0.022262	-0.999679	0.012067
44989	9.580005	-0.458844	-0.071394	0.020661	-0.393176	-0.051331	-0.032717	0.008834	0.999426	-0.999224	0.021656	-0.032902	-0.021934	-0.999726	0.008119
44990	9.301153	-0.299963	-0.112094	-0.000605	-0.339120	-0.104812	-0.031711	0.005396	0.999483	-0.999259	0.021674	-0.031821	-0.021834	-0.999751	0.004704
44991	9.589010	-0.363445	-0.030490	0.153401	-0.330529	-0.168555	-0.030079	0.002037	0.999545	-0.999343	0.020143	-0.030114	-0.020195	-0.999795	0.001430
44992	9.610499	-0.446347	0.079951	-0.011167	-0.339400	-0.092882	-0.029185	-0.001401	0.999573	-0.999370	0.020260	-0.029151	-0.020211	-0.999794	-0.001991
44993	9.495478	-0.430640	0.097005	-0.201875	-0.361338	0.025074	-0.029455	-0.005040	0.999553	-0.999321	0.022297	-0.029336	-0.022139	-0.999739	-0.005694
44994	9.473164	-0.718764	-0.168168	-0.296614	-0.482078	0.132729	-0.030822	-0.009870	0.999476	-0.999213	0.025300	-0.030564	-0.024985	-0.999631	-0.010642
44995	9.300006	-0.842650	0.372953	-0.462043	-0.834263	0.164016	-0.032571	-0.018206	0.999304	-0.999038	0.029971	-0.032016	-0.029368	-0.999385	-0.019165
44996	10.304424	-1.040978	-0.199656	-1.046830	-0.843635	0.052640	-0.033211	-0.026658	0.999093	-0.998665	0.040458	-0.032117	-0.039566	-0.998826	-0.027966
44997	9.723140	-0.999239	-0.543317	-1.485148	-0.320108	0.107012	-0.034239	-0.029848	0.998968	-0.997937	0.055337	-0.032551	-0.054308	-0.998021	-0.031681
44998	9.628323	-1.462029	-0.491094	-1.470206	-0.267561	0.051142	-0.034733	-0.032531	0.998867	-0.997019	0.070033	-0.032388	-0.068900	-0.997014	-0.034867
44999	9.402334	-1.167074	-0.371832	-1.318121	-0.248971	-0.051607	-0.034240	-0.035091	0.998797	-0.996047	0.083153	-0.031224	-0.081958	-0.995919	-0.037799
45000	10.382808	-0.127713	-1.210852	-1.203041	-0.155712	-0.018780	-0.034046	-0.036700	0.998746	-0.995000	0.095130	-0.030422	-0.093894	-0.994788	-0.039756
45001	9.663268	-1.820727	-0.994930	-1.047495	0.240220	0.209322	-0.035786	-0.034156	0.998776	-0.993888	0.105652	-0.031997	-0.104430	-0.993816	-0.037728
45002	9.533496	-0.601656	0.151914	-1.162973	-0.088327	-0.132389	-0.034434	-0.035219	0.998786	-0.992658	0.117153	-0.030091	-0.115951	-0.992489	-0.038994
45003	9.717781	-0.850930	-1.382687	-1.007285	-0.340479	-0.190298	-0.032818	-0.038862	0.998706	-0.991510	0.127062	-0.027637	-0.125823	-0.991133	-0.042702
45004	9.516406	-0.673650	-1.749388	-0.345924	-0.573777	-0.255607	-0.030935	-0.044902	0.998512	-0.991154	0.130367	-0.024845	-0.129058	-0.990448	-0.048538
45005	8.408817	-1.310343	-7.058929	1.564626	-1.378884	-0.755668	-0.025167	-0.059464	0.997913	-0.993267	0.114404	-0.018232	-0.113081	-0.991653	-0.061943
45006	9.921362	0.080987	4.886989	1.531863	-1.246729	-0.635321	-0.020236	-0.072496	0.997163	-0.995028	0.098741	-0.013014	-0.097517	-0.992469	-0.074133
45007	8.268769	-1.350754	0.075509	0.789734	-0.955768	-0.224586	-0.018904	-0.082208	0.996436	-0.995811	0.090721	-0.011407	-0.089460	-0.992478	-0.083578
45008	9.036264	-0.470139	0.151301	0.915734	-0.948434	-0.272659	-0.017021	-0.091867	0.995626	-0.996637	0.081385	-0.009529	-0.080154	-0.992440	-0.092943
45009	10.132732	-0.158842	-0.068648	0.687240	-1.026628	-0.404613	-0.013767	-0.102371	0.994651	-0.997228	0.074144	-0.006172	-0.073116	-0.991979	-0.103108
45010	10.893968	-0.019571	-0.015919	0.513754	-0.921408	-0.360928	-0.010805	-0.111775	0.993675	-0.997637	0.068640	-0.003127	-0.067856	-0.991360	-0.112252
45011	10.467815	-0.185305	-0.436964	0.241073	-0.548428	-0.237495	-0.008779	-0.117385	0.993048	-0.997821	0.065965	-0.001024	-0.065386	-0.990893	-0.117708
45012	9.477243	-0.361778	-1.352444	0.101248	-0.251715	-0.230958	-0.006627	-0.120046	0.992746	-0.997905	0.064678	0.001159	-0.064348	-0.990659	-0.120223
45013	9.214399	-0.349732	-1.668866	0.156168	-0.079376	-0.251558	-0.004167	-0.121005	0.992643	-0.998019	0.062816	0.003468	-0.062774	-0.990662	-0.121027
45014	9.139828	-0.429371	-1.980075	0.305326	0.024783	-0.280491	-0.001382	-0.120942	0.992659	-0.998215	0.059442	0.005852	-0.059714	-0.990878	-0.120808
45015	9.370233	-0.129176	-1.429208	0.752413	-0.072167	-0.298728	0.001497	-0.121829	0.992550	-0.998636	0.051614	0.007841	-0.052185	-0.991208	-0.121585
45016	9.826757	0.309729	-0.610265	1.012359	-0.292318	-0.265054	0.003922	-0.124859	0.992167	-0.999107	0.041251	0.009141	-0.042070	-0.991317	-0.124586
45017	9.831022	0.512914	0.161825	1.058049	-0.489211	-0.125984	0.004932	-0.129772	0.991532	-0.999491	0.030614	0.008979	-0.031520	-0.991071	-0.129555
45018	9.976275	0.415053	-0.110959	1.084615	-0.656796	-0.028187	0.004975	-0.136313	0.990653	-0.999773	0.019853	0.007752	-0.020724	-0.990467	-0.136183
45019	10.283276	0.453627	-0.760131	0.986522	-0.563910	0.051919	0.004311	-0.141920	0.989869	-0.999931	0.010185	0.005815	-0.010907	-0.989826	-0.141867
45020	10.313733	0.491500	-1.087066	0.734297	-0.367391	0.143625	0.002799	-0.145584	0.989342	-0.999990	0.003164	0.003295	-0.003610	-0.989341	-0.145574
45021	9.993215	0.305671	-1.553485	0.493209	-0.241325	0.220612	0.000567	-0.148013	0.988985	-0.999999	-0.001349	0.000371	0.001280	-0.988985	-0.148013
45022	9.368676	-0.198738	-2.144237	0.386894	-0.090446	0.236963	-0.001830	-0.148959	0.988842	-0.999985	-0.004778	-0.002570	0.005107	-0.988832	-0.148948
45023	9.411767	-0.162630	-2.138129	0.370342	0.075858	0.171663	-0.003583	-0.148260	0.988942	-0.999955	-0.008147	-0.004844	0.008775	-0.988915	-0.148224
45024	10.024786	0.002601	-1.577920	0.208184	0.236996	0.153694	-0.005175	-0.145969	0.989276	-0.999928	-0.009942	-0.006698	0.010813	-0.989239	-0.145907
45025	10.258158	-0.044379	-1.556478	0.203346	0.198582	0.170235	-0.006923	-0.144064	0.989544	-0.999894	-0.011671	-0.008694	0.012801	-0.989500	-0.143968
45026	9.994144	-0.140965	-1.662310	0.218725	0.075537	0.137855	-0.008334	-0.143372	0.989634	-0.999853	-0.013603	-0.010391	0.014951	-0.989575	-0.143238
45027	9.582422	-0.177297	-1.781921	0.038788	0.016505	0.101798	-0.009346	-0.143258	0.989641	-0.999839	-0.013816	-0.011443	0.015312	-0.989589	-0.143106
45028	8.745375	-0.259006	-2.071983	-0.227769	-0.040288	-0.008976	-0.009218	-0.143684	0.989581	-0.999873	-0.011565	-0.010994	0.013024	-0.989556	-0.143559
45029	8.716566	-0.190994	-1.974083	-0.433455	-0.172694	-0.115013	-0.007979	-0.145403	0.989340	-0.999930	-0.007450	-0.009160	0.008702	-0.989345	-0.145333
45030	9.003136	-0.176721	-1.660265	-0.532754	-0.269623	-0.179552	-0.006088	-0.148078	0.988957	-0.999976	-0.002458	-0.006524	0.003397	-0.988973	-0.148060
45031	9.382720	-0.599860	-1.376450	-0.361734	-0.365183	-0.216292	-0.003844	-0.151702	0.988419	-0.999993	0.000774	-0.003770	-0.000193	-0.988426	-0.151704
45032	10.211238	-0.407526	-1.498162	-0.075552	-0.347200	-0.232901	-0.001482	-0.155149	0.987890	-0.999998	0.001149	-0.001319	-0.000931	-0.987890	-0.155151
45033	10.428071	-0.192618	-1.790337	0.125193	-0.231343	-0.196976	0.000502	-0.157451	0.987527	-1.000000	-0.000403	0.000444	0.000328	-0.987527	-0.157451
45034	10.253717	-0.277232	-2.479511	0.214448	-0.055810	-0.169048	0.002178	-0.158018	0.987434	-0.999995	-0.002787	0.001760	0.002474	-0.987432	-0.158024
45035	9.755589	-0.648466	-2.936218	0.446083	0.153115	-0.274201	0.004867	-0.156503	0.987665	-0.999964	-0.007630	0.003719	0.006954	-0.987648	-0.156535
45036	9.897129	-0.289372	-2.098116	0.818958	0.133455	-0.422272	0.008982	-0.155139	0.987852	-0.999844	-0.016390	0.006517	0.015180	-0.987757	-0.155262
45037	9.814793	0.041248	-1.526615	0.746929	0.123721	-0.274455	0.011627	-0.153874	0.988022	-0.999675	-0.024194	0.007996	0.022674	-0.987794	-0.154105
45038	9.298352	-0.313351	-1.827889	0.714505	0.131883	-0.196921	0.013480	-0.152536	0.988206	-0.999464	-0.031546	0.008764	0.029837	-0.987794	-0.152880
45039	9.109597	0.242151	-2.978356	-0.243181	0.167254	-0.176945	0.015228	-0.150847	0.988440	-0.999508	-0.029419	0.010909	0.027434	-0.988119	-0.151220
45040	8.908273	-0.520536	-0.630535	0.490466	0.233700	-0.193866	0.017031	-0.148496	0.988766	-0.999331	-0.034551	0.012024	0.032377	-0.988309	-0.148985
45041	9.625263	0.098772	-0.944016	0.361702	0.342531	-0.118578	0.018051	-0.145090	0.989254	-0.999187	-0.038290	0.012616	0.036048	-0.988677	-0.145664
45042	10.372815	-0.259605	-0.230653	0.791629	0.400930	-0.123561	0.019017	-0.141101	0.989812	-0.998849	-0.046276	0.012594	0.044027	-0.988913	-0.141819
45043	10.428880	-0.157621	-0.169102	0.718714	0.361848	-0.096193	0.019719	-0.137502	0.990305	-0.998490	-0.053500	0.012453	0.051269	-0.989056	-0.138349
45044	10.166791	-0.096507	-0.502133	0.582774	0.187428	-0.091658	0.020461	-0.135624	0.990549	-0.998158	-0.059372	0.012489	0.057117	-0.988980	-0.136589
45045	9.853737	0.056936	-0.790093	0.453839	0.068776	-0.122397	0.021602	-0.134892	0.990625	-0.997864	-0.064017	0.013043	0.061658	-0.988790	-0.135987
45046	9.535594	0.003906	-1.775164	0.463775	-0.023044	-0.144233	0.023011	-0.135046	0.990572	-0.997536	-0.068789	0.013795	0.066278	-0.988449	-0.136296
45047	9.043439	0.264172	-1.983786	0.438819	-0.019562	-0.193622	0.024924	-0.135120	0.990516	-0.997189	-0.073388	0.015080	0.070655	-0.988108	-0.136570
45048	8.919734	0.620109	-1.378164	0.304956	-0.080840	-0.087399	0.025829	-0.135878	0.990389	-0.996948	-0.076509	0.015504	0.073667	-0.987767	-0.137440
45049	9.253322	0.630910	-1.688650	0.202889	-0.189192	0.085943	0.025120	-0.137848	0.990135	-0.996821	-0.078371	0.014379	0.075616	-0.987348	-0.139378
45050	9.192451	0.569790	-1.959672	0.134591	-0.197305	0.162474	0.023655	-0.139963	0.989874	-0.996760	-0.079441	0.012587	0.076875	-0.986965	-0.141388
45051	9.688808	0.554058	-1.341717	0.007983	-0.083151	0.150642	0.022238	-0.140940	0.989768	-0.996791	-0.079280	0.011106	0.076904	-0.986839	-0.142251
45052	10.555848	0.180851	-0.448517	-0.027214	-0.048337	0.163210	0.020660	-0.141585	0.989710	-0.996849	-0.078749	0.009543	0.076587	-0.986789	-0.142766
45053	10.619018	0.001753	-0.590081	-0.078632	-0.067422	0.081370	0.019928	-0.142347	0.989616	-0.996926	-0.077838	0.008879	0.075766	-0.986752	-0.143460
45054	10.199072	0.117404	-0.739503	-0.240375	-0.095312	0.037005	0.019667	-0.143343	0.989478	-0.997114	-0.075398	0.008896	0.073329	-0.986797	-0.144412
45055	9.692733	0.226803	-0.923021	-0.347450	-0.173460	0.099057	0.018867	-0.145159	0.989228	-0.997382	-0.071810	0.008485	0.069805	-0.986799	-0.146134
45056	9.467219	0.327983	-1.218349	-0.428229	-0.206118	0.158708	0.017487	-0.147336	0.988932	-0.997702	-0.067329	0.007611	0.065462	-0.986792	-0.148175
45057	9.331915	0.281144	-1.449662	-0.665638	-0.326533	0.248501	0.015318	-0.150755	0.988452	-0.998157	-0.060365	0.006262	0.058724	-0.986726	-0.151402
45058	8.965300	-0.093752	-1.941488	-0.770829	-0.456419	0.253373	0.013156	-0.155438	0.987758	-0.998616	-0.052348	0.005063	0.050920	-0.986458	-0.155912
45059	8.964405	0.071623	-1.844037	-0.573525	-0.505498	0.219096	0.011320	-0.160569	0.986960	-0.998919	-0.046325	0.003920	0.045092	-0.985937	-0.160920
45060	9.142835	0.092269	-1.837374	-0.363958	-0.497492	0.184662	0.009766	-0.165591	0.986146	-0.999096	-0.042414	0.002772	0.041368	-0.985282	-0.165855
45061	9.035931	-0.123362	-2.673878	-0.165104	-0.486439	0.167443	0.008354	-0.170488	0.985324	-0.999179	-0.040485	0.001467	0.039641	-0.984528	-0.170686
45062	8.992880	-0.188843	-3.214952	-0.142135	-0.324095	0.090177	0.007620	-0.173746	0.984761	-0.999242	-0.038913	0.000866	0.038169	-0.984021	-0.173911
45063	8.965304	-0.105121	-2.407086	-0.080851	-0.202091	0.070809	0.007024	-0.175794	0.984402	-0.999279	-0.037978	0.000348	0.037324	-0.983694	-0.175934
45064	9.317935	-0.224202	-1.761263	-0.161020	-0.185232	0.124787	0.005878	-0.177698	0.984067	-0.999346	-0.036151	-0.000559	0.035674	-0.983421	-0.177795
45065	9.129678	-0.331228	-2.193082	-0.245852	-0.172942	0.138867	0.004601	-0.179484	0.983750	-0.999439	-0.033465	-0.001431	0.033178	-0.983192	-0.179537
45066	9.055994	-0.174545	-1.906993	-0.243026	-0.123430	0.148763	0.003191	-0.180783	0.983518	-0.999523	-0.030783	-0.002416	0.030713	-0.983041	-0.180795
45067	9.190270	-0.290051	-1.898458	-0.137871	-0.094271	0.190176	0.001353	-0.181807	0.983333	-0.999570	-0.029055	-0.003996	0.029297	-0.982905	-0.181768
45068	9.185009	-0.292630	-1.964451	0.041860	-0.076831	0.196640	-0.000586	-0.182662	0.983176	-0.999559	-0.029072	-0.005997	0.029679	-0.982746	-0.182564
45069	9.399406	-0.454742	-1.698380	0.181169	-0.059392	0.167426	-0.002243	-0.183335	0.983048	-0.999503	-0.030514	-0.007971	0.031458	-0.982577	-0.183176
45070	9.528750	-0.483306	-1.352490	0.272375	-0.041762	0.101964	-0.003273	-0.183815	0.982955	-0.999411	-0.032971	-0.009493	0.034154	-0.982408	-0.183599
45071	9.620675	-0.376833	-1.187348	0.334309	-0.023571	0.030631	-0.003591	-0.184089	0.982903	-0.999291	-0.036177	-0.010426	0.037478	-0.982244	-0.183829
45072	9.763115	-0.249639	-1.050284	0.187903	0.019364	-0.016580	-0.003452	-0.183922	0.982935	-0.999220	-0.038035	-0.010627	0.039341	-0.982205	-0.183647
45073	9.986687	-0.215233	-1.001434	-0.118985	0.019159	-0.050095	-0.002934	-0.183739	0.982971	-0.999268	-0.036954	-0.009890	0.038142	-0.982280	-0.183497
45074	9.963076	-0.346775	-1.341616	-0.319428	-0.018409	-0.054237	-0.002350	-0.183924	0.982938	-0.999387	-0.033912	-0.008735	0.034940	-0.982355	-0.183732
45075	9.731227	-0.332819	-1.588299	-0.378854	-0.014064	-0.095412	-0.001337	-0.184053	0.982915	-0.999514	-0.030371	-0.007046	0.031149	-0.982447	-0.183922
45076	9.761429	-0.218883	-1.160659	-0.235585	-0.093471	-0.102007	-0.000258	-0.184961	0.982746	-0.999585	-0.028246	-0.005579	0.028790	-0.982340	-0.184877
45077	9.865496	-0.363827	-1.270158	-0.060801	-0.195327	-0.021351	0.000044	-0.186900	0.982379	-0.999603	-0.027682	-0.005222	0.028170	-0.981989	-0.186827
45078	9.710272	-0.339977	-1.649328	0.136144	-0.303736	0.070117	-0.000564	-0.189932	0.981797	-0.999564	-0.028864	-0.006158	0.029508	-0.981373	-0.189833
45079	9.650701	-0.081212	-1.681704	0.275577	-0.335676	0.131776	-0.001771	-0.193302	0.981138	-0.999479	-0.031288	-0.007968	0.032238	-0.980640	-0.193145
45080	9.789778	-0.175327	-1.863032	0.244618	-0.298143	0.153006	-0.003206	-0.196310	0.980537	-0.999394	-0.033355	-0.009946	0.034658	-0.979974	-0.196084
45081	9.875314	-0.399896	-2.067038	0.195679	-0.218393	0.107035	-0.004190	-0.198521	0.980088	-0.999321	-0.035036	-0.011369	0.036595	-0.979470	-0.198240
45082	9.713472	-0.396163	-2.043671	0.038402	-0.226452	0.047628	-0.004573	-0.200784	0.979625	-0.999306	-0.035298	-0.011899	0.036968	-0.978999	-0.200483
45083	9.432151	-0.511293	-2.345311	-0.088702	-0.338737	0.042622	-0.004829	-0.204144	0.978929	-0.999337	-0.034334	-0.012090	0.036079	-0.978339	-0.203843
45084	9.182303	-0.531915	-2.768274	-0.143935	-0.400012	0.036750	-0.005014	-0.208095	0.978096	-0.999387	-0.032840	-0.012110	0.034641	-0.977557	-0.207802
45085	9.320621	-0.448836	-2.365757	-0.172637	-0.401756	0.043608	-0.005256	-0.212064	0.977242	-0.999444	-0.031055	-0.012114	0.032917	-0.976762	-0.211783
45086	9.931170	-0.362871	-1.650927	-0.117672	-0.380676	0.031856	-0.005415	-0.215818	0.976419	-0.999481	-0.029827	-0.012136	0.031742	-0.975978	-0.215544
45087	9.452697	-0.608045	-2.610660	-0.024417	-0.315063	0.035886	-0.005637	-0.218932	0.975724	-0.999488	-0.029500	-0.012394	0.031497	-0.975294	-0.218654
45088	9.197570	-0.514938	-2.488539	0.223293	-0.249801	-0.049409	-0.005072	-0.221376	0.975175	-0.999418	-0.031774	-0.012411	0.033732	-0.974671	-0.221086
45089	9.163670	-0.618655	-2.336730	0.236870	-0.231977	-0.108540	-0.003903	-0.223622	0.974668	-0.999340	-0.034320	-0.011876	0.036107	-0.974072	-0.223340
45090	9.440894	-0.421551	-2.217619	0.241002	-0.085824	-0.184767	-0.002048	-0.224407	0.974493	-0.999256	-0.037080	-0.010639	0.038522	-0.973790	-0.224164
