// General information: 
//  MT Manager version: 2019.2.0 
//  XDA version: 2019.2.0 build 3853 rev 94535 built on 2019-09-09
// Device information: 
//  DeviceId: 00B44112
//  ProductCode: MTW2-3A7G6
//  Firmware Version: 4.3.5
//  Hardware Version: 1.1.0
// Device settings: 
//  Filter Profile: human(46.1)
//  Option Flags: Orientation Smoother Disabled, AHS Disabled, ICC Disabled
// Coordinate system: ENU
PacketCounter	Acc_X	Acc_Y	Acc_Z	Gyr_X	Gyr_Y	Gyr_Z	Mat[1][1]	Mat[2][1]	Mat[3][1]	Mat[1][2]	Mat[2][2]	Mat[3][2]	Mat[1][3]	Mat[2][3]	Mat[3][3]
16372	0.163225	0.051181	10.027814	0.000082	-0.000604	0.002389	1.000000	-0.000479	-0.000407	0.000479	1.000000	0.000081	0.000407	-0.000081	1.000000
16373	0.172019	0.053408	10.017369	-0.001651	-0.000102	0.003905	1.000000	-0.000462	-0.000407	0.000462	1.000000	0.000070	0.000407	-0.000070	1.000000
16374	0.160436	0.042242	10.023530	-0.001580	0.000637	0.003448	1.000000	-0.000453	-0.000423	0.000453	1.000000	0.000060	0.000423	-0.000060	1.000000
16375	0.165893	0.058542	10.032109	-0.000825	0.000852	0.004721	1.000000	-0.000410	-0.000444	0.000410	1.000000	0.000068	0.000444	-0.000068	1.000000
16376	0.171604	0.052429	10.017382	-0.000958	0.000566	0.003387	1.000000	-0.000410	-0.000461	0.000410	1.000000	0.000077	0.000461	-0.000077	1.000000
16377	0.172257	0.047672	10.025954	0.000102	-0.000755	0.002986	1.000000	-0.000418	-0.000443	0.000418	1.000000	0.000111	0.000443	-0.000111	1.000000
16378	0.154255	0.047164	10.038270	-0.002181	0.000558	0.004106	1.000000	-0.000400	-0.000456	0.000400	1.000000	0.000089	0.000456	-0.000089	1.000000
16379	0.175000	0.055373	10.030246	-0.000316	0.000343	0.003923	1.000000	-0.000378	-0.000465	0.000378	1.000000	0.000110	0.000465	-0.000110	1.000000
16380	0.168536	0.065531	10.036408	-0.002365	-0.000619	0.003827	1.000000	-0.000356	-0.000451	0.000356	1.000000	0.000079	0.000451	-0.000079	1.000000
16381	0.153536	0.050533	10.029706	-0.002222	0.000860	0.002912	1.000000	-0.000361	-0.000474	0.000361	1.000000	0.000053	0.000474	-0.000053	1.000000
16382	0.171373	0.050348	10.017396	-0.000978	0.000717	0.002790	1.000000	-0.000375	-0.000492	0.000376	1.000000	0.000061	0.000492	-0.000061	1.000000
16383	0.171476	0.050061	10.017396	-0.001194	-0.001502	0.004162	1.000000	-0.000346	-0.000455	0.000346	1.000000	0.000060	0.000455	-0.000060	1.000000
16384	0.171559	0.049773	10.017396	-0.000999	0.000868	0.002193	1.000000	-0.000364	-0.000481	0.000364	1.000000	0.000063	0.000481	-0.000063	1.000000
16385	0.161602	0.056187	10.010700	-0.002345	-0.000770	0.004424	1.000000	-0.000338	-0.000465	0.000338	1.000000	0.000036	0.000465	-0.000036	1.000000
16386	0.168789	0.040592	10.013109	-0.001091	0.000279	0.002053	1.000000	-0.000366	-0.000472	0.000366	1.000000	0.000040	0.000472	-0.000040	1.000000
16387	0.171598	0.048540	10.017401	-0.001652	-0.000102	0.003906	1.000000	-0.000349	-0.000470	0.000349	1.000000	0.000029	0.000470	-0.000029	1.000000
16388	0.159499	0.041924	10.014984	-0.002406	-0.000317	0.002633	1.000000	-0.000364	-0.000466	0.000364	1.000000	-0.000000	0.000466	0.000000	1.000000
16389	0.162404	0.049707	10.019277	-0.001632	-0.000254	0.004503	1.000000	-0.000328	-0.000462	0.000328	1.000000	-0.000012	0.000462	0.000012	1.000000
16390	0.153107	0.051643	10.021150	-0.000449	0.000056	0.002589	1.000000	-0.000343	-0.000463	0.000343	1.000000	0.000008	0.000463	-0.000008	1.000000
16391	0.162349	0.049321	10.019280	-0.000357	0.000644	0.002729	1.000000	-0.000360	-0.000480	0.000360	1.000000	0.000032	0.000480	-0.000032	1.000000
16392	0.165155	0.057361	10.023573	-0.001612	-0.000405	0.005100	1.000000	-0.000306	-0.000470	0.000306	1.000000	0.000019	0.000470	-0.000019	1.000000
16393	0.168865	0.038269	10.013117	-0.000449	0.000056	0.002589	1.000000	-0.000315	-0.000472	0.000315	1.000000	0.000036	0.000472	-0.000036	1.000000
16394	0.165888	0.052155	10.032144	-0.001765	-0.000540	0.003169	1.000000	-0.000317	-0.000461	0.000317	1.000000	0.000024	0.000461	-0.000024	1.000000
16395	0.155420	0.063290	10.016879	-0.001030	-0.000175	0.003845	1.000000	-0.000306	-0.000459	0.000306	1.000000	0.000030	0.000459	-0.000030	1.000000
16396	0.168392	0.041980	10.004549	-0.001091	0.000279	0.002053	1.000000	-0.000335	-0.000470	0.000335	1.000000	0.000034	0.000470	-0.000034	1.000000
16397	0.177550	0.061871	10.025998	-0.001765	-0.000540	0.003169	1.000000	-0.000336	-0.000454	0.000336	1.000000	0.000020	0.000454	-0.000020	1.000000
16398	0.153472	0.049315	10.021156	-0.001215	-0.001351	0.003565	1.000000	-0.000328	-0.000422	0.000328	1.000000	0.000021	0.000422	-0.000021	1.000000
16399	0.160041	0.061042	10.038309	-0.000501	-0.000835	0.003644	1.000000	-0.000313	-0.000404	0.000313	1.000000	0.000037	0.000404	-0.000037	1.000000
16400	0.168254	0.067827	10.019298	-0.001652	-0.000102	0.003906	1.000000	-0.000297	-0.000402	0.000298	1.000000	0.000027	0.000402	-0.000027	1.000000
16401	0.162673	0.050864	10.010711	-0.001143	-0.000612	0.003108	1.000000	-0.000299	-0.000387	0.000299	1.000000	0.000028	0.000387	-0.000028	1.000000
16402	0.165699	0.058788	10.015004	-0.001725	-0.000842	0.004363	1.000000	-0.000273	-0.000365	0.000273	1.000000	0.000017	0.000365	-0.000017	1.000000
16403	0.157132	0.055909	10.025447	-0.001805	-0.000237	0.001975	1.000000	-0.000298	-0.000359	0.000298	1.000000	0.000001	0.000359	-0.000001	1.000000
16404	0.172836	0.042901	10.017406	-0.000244	0.001081	0.003467	1.000000	-0.000290	-0.000388	0.000290	1.000000	0.000024	0.000388	-0.000025	1.000000
16405	0.163336	0.044866	10.019284	-0.001713	0.000352	0.002115	1.000000	-0.000322	-0.000398	0.000322	1.000000	0.000015	0.000398	-0.000015	1.000000
16406	0.165954	0.052826	10.023585	-0.000906	0.001456	0.002333	1.000000	-0.000346	-0.000434	0.000346	1.000000	0.000024	0.000434	-0.000024	1.000000
16407	0.174468	0.054837	10.013149	-0.002294	0.000121	0.003370	1.000000	-0.000338	-0.000439	0.000338	1.000000	-0.000004	0.000439	0.000004	1.000000
16408	0.175295	0.049723	10.021715	-0.001329	-0.001789	0.002828	1.000000	-0.000347	-0.000396	0.000347	1.000000	-0.000008	0.000396	0.000008	1.000000
16409	0.146853	0.060586	10.018772	-0.002202	0.000710	0.003510	1.000000	-0.000341	-0.000414	0.000341	1.000000	-0.000032	0.000414	0.000032	1.000000
16410	0.157918	0.043843	10.042602	-0.002295	0.000121	0.003370	1.000000	-0.000341	-0.000416	0.000340	1.000000	-0.000057	0.000416	0.000057	1.000000
16411	0.178273	0.056618	10.026016	-0.000502	-0.000836	0.003644	1.000000	-0.000323	-0.000399	0.000323	1.000000	-0.000042	0.000399	0.000042	1.000000
16412	0.168544	0.063273	10.019323	-0.001124	-0.000763	0.003705	1.000000	-0.000310	-0.000380	0.000310	1.000000	-0.000040	0.000380	0.000040	1.000000
16413	0.161071	0.051277	10.046898	-0.000978	0.000716	0.002791	1.000000	-0.000314	-0.000398	0.000314	1.000000	-0.000036	0.000398	0.000036	1.000000
16414	0.159190	0.064959	10.021202	-0.001011	-0.000327	0.004442	1.000000	-0.000283	-0.000392	0.000283	1.000000	-0.000031	0.000392	0.000031	1.000000
16415	0.172383	0.061407	10.040762	-0.001415	0.001965	0.003132	1.000000	-0.000278	-0.000444	0.000278	1.000000	-0.000039	0.000444	0.000038	1.000000
16416	0.158635	0.064421	10.021214	-0.000224	0.000929	0.004064	1.000000	-0.000251	-0.000465	0.000251	1.000000	-0.000016	0.000465	0.000015	1.000000
16417	0.175596	0.042026	10.030301	-0.002388	-0.000467	0.003230	1.000000	-0.000253	-0.000454	0.000253	1.000000	-0.000044	0.000454	0.000044	1.000000
16418	0.168701	0.056824	10.027907	-0.000483	-0.000988	0.004241	1.000000	-0.000226	-0.000429	0.000226	1.000000	-0.000026	0.000429	0.000026	1.000000
16419	0.153174	0.046834	10.012619	-0.001693	0.000200	0.002712	1.000000	-0.000236	-0.000434	0.000236	1.000000	-0.000039	0.000434	0.000038	1.000000
16420	0.156143	0.054825	10.016917	-0.000635	-0.001122	0.002310	1.000000	-0.000251	-0.000409	0.000251	1.000000	-0.000027	0.000409	0.000027	1.000000
16421	0.159771	0.058245	10.029781	-0.001032	-0.000175	0.003845	1.000000	-0.000232	-0.000406	0.000232	1.000000	-0.000024	0.000406	0.000024	1.000000
16422	0.166878	0.042793	10.032172	-0.001051	-0.000024	0.003248	1.000000	-0.000230	-0.000408	0.000230	1.000000	-0.000020	0.000408	0.000020	1.000000
16423	0.159350	0.062321	10.021216	-0.001237	-0.001200	0.002968	1.000000	-0.000237	-0.000380	0.000237	1.000000	-0.000020	0.000380	0.000020	1.000000
16424	0.165844	0.051350	10.015042	-0.002242	0.001013	0.002316	1.000000	-0.000259	-0.000405	0.000259	1.000000	-0.000045	0.000405	0.000045	1.000000
16425	0.166276	0.046441	10.023611	0.000285	0.000419	0.003266	1.000000	-0.000259	-0.000414	0.000259	1.000000	-0.000007	0.000414	0.000006	1.000000
16426	0.169141	0.054454	10.027913	-0.002388	-0.000466	0.003230	1.000000	-0.000259	-0.000405	0.000259	1.000000	-0.000036	0.000405	0.000036	1.000000
16427	0.168037	0.063224	10.010785	-0.001786	-0.000388	0.002572	1.000000	-0.000274	-0.000399	0.000274	1.000000	-0.000050	0.000399	0.000050	1.000000
16428	0.160595	0.051135	10.038355	-0.001052	-0.000024	0.003248	1.000000	-0.000269	-0.000402	0.000269	1.000000	-0.000048	0.000402	0.000048	1.000000
16429	0.165835	0.049637	10.015051	-0.001071	0.000128	0.002651	1.000000	-0.000287	-0.000409	0.000287	1.000000	-0.000043	0.000409	0.000043	1.000000
16430	0.171468	0.065792	10.023658	-0.002182	0.000558	0.004108	1.000000	-0.000267	-0.000427	0.000267	1.000000	-0.000065	0.000427	0.000065	1.000000
16431	0.165697	0.048702	10.015058	-0.001826	-0.000084	0.001378	1.000000	-0.000313	-0.000426	0.000313	1.000000	-0.000079	0.000426	0.000079	1.000000
16432	0.172032	0.060237	10.032228	-0.001224	-0.000006	0.000719	1.000000	-0.000372	-0.000427	0.000372	1.000000	-0.000080	0.000427	0.000080	1.000000
16433	0.155775	0.055087	10.008373	0.000324	0.000115	0.004461	1.000000	-0.000340	-0.000431	0.000340	1.000000	-0.000042	0.000431	0.000041	1.000000
16434	0.162731	0.039731	10.010760	-0.001600	0.000789	0.002853	1.000000	-0.000343	-0.000453	0.000343	1.000000	-0.000053	0.000453	0.000053	1.000000
16435	0.158986	0.058214	10.021246	-0.000939	0.000412	0.003986	1.000000	-0.000317	-0.000462	0.000317	1.000000	-0.000049	0.000462	0.000049	1.000000
16436	0.158348	0.062684	10.012685	-0.000430	-0.000097	0.003187	1.000000	-0.000468	-0.000428	0.000468	1.000000	0.000036	0.000428	-0.000036	1.000000
16437	0.158952	0.057829	10.021249	-0.001072	0.000128	0.002651	1.000000	-0.000487	-0.000432	0.000487	1.000000	0.000041	0.000432	-0.000041	1.000000
16438	0.155434	0.053857	10.008385	-0.001541	0.000334	0.004644	1.000000	-0.000448	-0.000439	0.000448	1.000000	0.000032	0.000439	-0.000032	1.000000
16439	0.187325	0.045595	10.024190	-0.002374	0.000729	0.000982	1.000000	-0.000512	-0.000459	0.000512	1.000000	0.000006	0.000459	-0.000007	1.000000
16440	0.158504	0.056584	10.021263	-0.000733	0.001437	0.004864	1.000000	-0.000481	-0.000498	0.000481	1.000000	0.000021	0.000498	-0.000022	1.000000
16441	0.170382	0.062236	10.023699	-0.002242	0.001014	0.002317	1.000000	-0.000497	-0.000523	0.000497	1.000000	-0.000006	0.000523	0.000006	1.000000
16442	0.154709	0.052137	10.008406	-0.001126	-0.000764	0.003705	1.000000	-0.000489	-0.000509	0.000489	1.000000	-0.000002	0.000509	0.000001	1.000000
16443	0.149597	0.053052	10.031711	-0.001185	-0.000309	0.001914	1.000000	-0.000524	-0.000504	0.000524	1.000000	0.000001	0.000504	-0.000001	1.000000
16444	0.161308	0.063368	10.025578	-0.001748	-0.000691	0.003767	1.000000	-0.000513	-0.000490	0.000513	1.000000	-0.000011	0.000490	0.000011	1.000000
16445	0.164341	0.048938	10.006529	-0.000318	0.000339	0.003925	1.000000	-0.000490	-0.000502	0.000490	1.000000	0.000009	0.000502	-0.000009	1.000000
16446	0.161325	0.062753	10.025582	-0.002276	-0.000030	0.003968	1.000000	-0.000472	-0.000502	0.000472	1.000000	-0.000017	0.000502	0.000017	1.000000
16447	0.167657	0.051967	10.019402	0.000378	0.001005	0.003407	1.000000	-0.000466	-0.000528	0.000466	1.000000	0.000023	0.000528	-0.000023	1.000000
16448	0.161719	0.057822	10.034149	-0.000411	-0.000250	0.003785	1.000000	-0.000453	-0.000523	0.000453	1.000000	0.000043	0.000523	-0.000043	1.000000
16449	0.167700	0.051585	10.019404	-0.002351	-0.000769	0.004425	1.000000	-0.000426	-0.000508	0.000426	1.000000	0.000016	0.000508	-0.000016	1.000000
16450	0.149007	0.055670	10.023160	-0.000885	0.001304	0.002932	1.000000	-0.000428	-0.000546	0.000428	1.000000	0.000023	0.000546	-0.000023	1.000000
16451	0.167472	0.050831	10.019411	-0.001674	0.000049	0.003310	1.000000	-0.000425	-0.000552	0.000425	1.000000	0.000011	0.000552	-0.000012	1.000000
16452	0.157542	0.057389	10.012729	-0.001072	0.000127	0.002652	1.000000	-0.000432	-0.000557	0.000432	1.000000	0.000013	0.000557	-0.000013	1.000000
16453	0.167527	0.050262	10.019413	-0.000525	-0.000686	0.003047	1.000000	-0.000437	-0.000541	0.000437	1.000000	0.000032	0.000541	-0.000032	1.000000
16454	0.178054	0.038486	10.034659	-0.000959	0.000564	0.003389	1.000000	-0.000435	-0.000559	0.000435	1.000000	0.000040	0.000559	-0.000040	1.000000
16455	0.160961	0.060111	10.025604	-0.002805	0.000632	0.004170	1.000000	-0.000411	-0.000578	0.000411	1.000000	-0.000000	0.000578	-0.000000	1.000000
16456	0.154512	0.047731	10.008431	-0.000920	0.000260	0.004584	1.000000	-0.000372	-0.000589	0.000372	1.000000	0.000005	0.000589	-0.000005	1.000000
16457	0.170219	0.057094	10.023733	-0.001147	-0.000613	0.003108	1.000000	-0.000371	-0.000579	0.000371	1.000000	0.000006	0.000579	-0.000006	1.000000
16458	0.158159	0.050695	10.021300	-0.001788	-0.000387	0.002572	1.000000	-0.000387	-0.000574	0.000387	1.000000	-0.000007	0.000574	0.000007	1.000000
16459	0.166978	0.052641	10.010864	-0.001788	-0.000387	0.002572	1.000000	-0.000401	-0.000566	0.000401	1.000000	-0.000022	0.000566	0.000021	1.000000
16460	0.176328	0.050013	10.008988	-0.001072	0.000127	0.002652	1.000000	-0.000412	-0.000572	0.000412	1.000000	-0.000018	0.000572	0.000018	1.000000
16461	0.161208	0.057777	10.025614	-0.001788	-0.000387	0.002572	1.000000	-0.000431	-0.000568	0.000431	1.000000	-0.000031	0.000568	0.000030	1.000000
16462	0.168357	0.042118	10.027985	-0.001769	-0.000539	0.003170	1.000000	-0.000433	-0.000558	0.000433	1.000000	-0.000044	0.000558	0.000043	1.000000
16463	0.153091	0.049905	10.044614	-0.000904	0.001455	0.002336	1.000000	-0.000450	-0.000596	0.000450	1.000000	-0.000037	0.000596	0.000037	1.000000
16464	0.165386	0.055787	10.047046	-0.000052	-0.002240	0.003900	1.000000	-0.000426	-0.000542	0.000426	1.000000	-0.000011	0.000542	0.000010	1.000000
16465	0.152840	0.054360	10.036051	-0.000489	0.000358	0.001396	1.000000	-0.000471	-0.000557	0.000471	1.000000	0.000009	0.000557	-0.000009	1.000000
16466	0.162252	0.051793	10.034173	-0.001863	-0.001127	0.003029	1.000000	-0.000479	-0.000531	0.000479	1.000000	-0.000006	0.000531	0.000006	1.000000
16467	0.168886	0.040864	10.027982	-0.001166	-0.000461	0.002511	1.000000	-0.000497	-0.000524	0.000497	1.000000	-0.000004	0.000524	0.000004	1.000000
16468	0.149177	0.054264	10.014622	-0.002410	-0.000313	0.002634	1.000000	-0.000512	-0.000522	0.000512	1.000000	-0.000034	0.000522	0.000033	1.000000
16469	0.162563	0.050495	10.034175	-0.001092	0.000279	0.002055	1.000000	-0.000534	-0.000534	0.000534	1.000000	-0.000032	0.000535	0.000032	1.000000
16470	0.171963	0.048003	10.032295	-0.000658	-0.000970	0.001712	1.000000	-0.000578	-0.000516	0.000578	1.000000	-0.000015	0.000516	0.000015	1.000000
16471	0.158484	0.050904	10.012749	-0.002617	0.001808	0.004452	1.000000	-0.000556	-0.000566	0.000556	1.000000	-0.000048	0.000566	0.000047	1.000000
16472	0.162444	0.049359	10.034182	-0.001109	-0.000917	0.004303	1.000000	-0.000535	-0.000547	0.000535	1.000000	-0.000043	0.000547	0.000043	1.000000
16473	0.161903	0.053752	10.025625	-0.000959	0.000563	0.003390	1.000000	-0.000534	-0.000565	0.000534	1.000000	-0.000035	0.000565	0.000034	1.000000
16474	0.158586	0.049692	10.012754	-0.002560	-0.001793	0.003547	1.000000	-0.000527	-0.000522	0.000527	1.000000	-0.000067	0.000522	0.000067	1.000000
16475	0.172288	0.045882	10.032300	-0.001128	-0.000765	0.003706	1.000000	-0.000515	-0.000507	0.000515	1.000000	-0.000065	0.000507	0.000065	1.000000
16476	0.153151	0.054877	10.027502	-0.000470	0.000205	0.001994	1.000000	-0.000547	-0.000520	0.000547	1.000000	-0.000045	0.000520	0.000045	1.000000
16477	0.159019	0.048791	10.012751	-0.001167	-0.000461	0.002511	1.000000	-0.000571	-0.000512	0.000571	1.000000	-0.000042	0.000512	0.000041	1.000000
16478	0.165346	0.060307	10.029940	-0.001600	0.000789	0.002854	1.000000	-0.000584	-0.000532	0.000584	1.000000	-0.000049	0.000532	0.000048	1.000000
16479	0.171235	0.054066	10.015190	-0.001242	-0.001201	0.002968	1.000000	-0.000590	-0.000505	0.000590	1.000000	-0.000049	0.000505	0.000049	1.000000
16480	0.159183	0.047844	10.012753	-0.000451	0.000053	0.002591	1.000000	-0.000601	-0.000507	0.000601	1.000000	-0.000031	0.000507	0.000030	1.000000
16481	0.165625	0.059503	10.029940	-0.001148	-0.000613	0.003109	1.000000	-0.000606	-0.000497	0.000606	1.000000	-0.000028	0.000497	0.000028	1.000000
16482	0.160036	0.042648	10.021308	-0.001280	-0.000896	0.001774	1.000000	-0.000639	-0.000478	0.000639	1.000000	-0.000030	0.000478	0.000029	1.000000
16483	0.155976	0.065919	10.023263	-0.000337	0.000489	0.003329	1.000000	-0.000632	-0.000493	0.000632	1.000000	-0.000009	0.000493	0.000008	1.000000
16484	0.162202	0.055289	10.017071	-0.000243	0.001077	0.003470	1.000000	-0.000628	-0.000523	0.000628	1.000000	0.000017	0.000523	-0.000017	1.000000
16485	0.170724	0.057521	10.006639	-0.000959	0.000563	0.003390	1.000000	-0.000622	-0.000542	0.000622	1.000000	0.000022	0.000542	-0.000022	1.000000
16486	0.174893	0.056314	10.028065	0.000001	-0.001349	0.002846	1.000000	-0.000634	-0.000507	0.000634	1.000000	0.000054	0.000507	-0.000054	1.000000
16487	0.172202	0.047654	10.023748	-0.003032	-0.000238	0.002696	1.000000	-0.000644	-0.000501	0.000644	1.000000	0.000008	0.000501	-0.000009	1.000000
16488	0.162938	0.049639	10.025629	0.000793	-0.000095	0.002468	1.000000	-0.000657	-0.000503	0.000657	1.000000	0.000057	0.000503	-0.000057	1.000000
16489	0.156974	0.055258	10.040386	-0.002711	0.001221	0.004312	1.000000	-0.000633	-0.000537	0.000633	1.000000	0.000020	0.000537	-0.000020	1.000000
16490	0.155595	0.064205	10.023280	-0.000338	0.000488	0.003329	1.000000	-0.000629	-0.000552	0.000629	1.000000	0.000041	0.000551	-0.000042	1.000000
16491	0.168985	0.038084	10.019443	-0.002411	-0.000312	0.002634	1.000000	-0.000644	-0.000547	0.000644	1.000000	0.000013	0.000547	-0.000013	1.000000
16492	0.158564	0.049187	10.004214	-0.001657	-0.000103	0.003908	1.000000	-0.000626	-0.000548	0.000626	1.000000	0.000000	0.000548	-0.000001	1.000000
16493	0.184173	0.051381	10.026200	-0.001657	-0.000103	0.003908	1.000000	-0.000611	-0.000551	0.000611	1.000000	-0.000011	0.000551	0.000011	1.000000
16494	0.178295	0.056909	10.040956	-0.000960	0.000563	0.003390	1.000000	-0.000610	-0.000568	0.000610	1.000000	-0.000003	0.000568	0.000003	1.000000
16495	0.153193	0.049131	10.027531	-0.002768	0.000329	0.005366	1.000000	-0.000557	-0.000576	0.000557	1.000000	-0.000041	0.000576	0.000041	1.000000
16496	0.158961	0.043335	10.012778	0.003544	0.000172	0.004894	1.000000	-0.000516	-0.000585	0.000516	1.000000	0.000077	0.000585	-0.000078	1.000000
16497	0.165590	0.051329	10.038525	0.002262	0.002297	-0.046060	0.999998	-0.001760	-0.000652	0.001760	0.999998	0.000189	0.000651	-0.000191	1.000000
16498	0.147669	0.078114	10.020946	-0.003508	0.000870	-0.006544	0.999998	-0.002008	-0.000674	0.002008	0.999998	0.000138	0.000673	-0.000139	1.000000
16499	0.191025	-0.125774	10.029052	0.004357	0.005048	-0.058243	0.999993	-0.003544	-0.000813	0.003544	0.999994	0.000304	0.000812	-0.000307	1.000000
16500	0.124811	0.147055	10.037276	-0.001478	-0.000687	-0.149016	0.999973	-0.007346	-0.000823	0.007347	0.999973	0.000359	0.000821	-0.000365	1.000000
16501	0.123197	-0.359126	10.017182	0.002714	0.000444	-0.181433	0.999928	-0.011960	-0.000862	0.011961	0.999928	0.000533	0.000856	-0.000543	0.999999
16502	0.055432	-0.225310	10.027835	0.002135	0.000907	-0.216201	0.999848	-0.017438	-0.000918	0.017439	0.999848	0.000705	0.000906	-0.000721	0.999999
16503	0.303234	0.627805	9.994124	-0.005662	0.000533	-0.197864	0.999747	-0.022464	-0.000962	0.022465	0.999747	0.000674	0.000947	-0.000696	0.999999
16504	0.167386	0.188101	10.021388	-0.000145	0.002566	-0.211666	0.999612	-0.027831	-0.001064	0.027832	0.999612	0.000786	0.001042	-0.000816	0.999999
16505	0.132191	0.025965	10.025049	-0.003514	-0.001689	-0.134259	0.999511	-0.031263	-0.001045	0.031264	0.999511	0.000783	0.001020	-0.000815	0.999999
16506	0.160765	-0.025231	10.017362	-0.004508	-0.000279	-0.149689	0.999384	-0.035080	-0.001063	0.035080	0.999384	0.000760	0.001035	-0.000796	0.999999
16507	0.166822	0.178576	10.038534	-0.000001	0.001396	-0.089857	0.999300	-0.037401	-0.001113	0.037402	0.999300	0.000827	0.001081	-0.000868	0.999999
16508	0.160867	0.059541	10.030017	-0.001697	-0.004544	-0.067699	0.999232	-0.039170	-0.001013	0.039171	0.999232	0.000842	0.000979	-0.000881	0.999999
16509	0.164738	0.169639	10.034215	-0.005532	-0.000987	-0.039219	0.999190	-0.040236	-0.000997	0.040237	0.999190	0.000753	0.000966	-0.000793	0.999999
16510	0.104748	0.093839	10.056155	-0.023635	-0.009306	-0.012016	0.999174	-0.040626	-0.000766	0.040627	0.999174	0.000199	0.000758	-0.000230	1.000000
16511	0.057780	0.185721	10.196133	-0.237906	-0.000657	-0.054427	0.999111	-0.042153	-0.000757	0.042148	0.999095	-0.005699	0.000996	0.005662	0.999983
16512	0.321426	-0.001045	9.742285	-0.045698	0.000117	-0.119242	0.998976	-0.045229	-0.000762	0.045223	0.998954	-0.006761	0.001067	0.006720	0.999977
16513	-0.073553	0.395659	10.186962	-0.087517	-0.014191	0.000395	0.998972	-0.045338	-0.000409	0.045333	0.998932	-0.008916	0.000812	0.008888	0.999960
16514	0.483528	0.170946	10.225796	-0.076683	-0.231042	-0.059824	0.998884	-0.046928	0.005378	0.046983	0.998838	-0.010765	-0.004867	0.011006	0.999928
16515	-0.002370	-0.557026	10.154014	-0.091046	-0.340097	-0.174674	0.998584	-0.051338	0.013910	0.051517	0.998589	-0.012893	-0.013229	0.013591	0.999820
16516	0.756910	-0.149114	10.357183	-0.166457	-0.356982	-0.040791	0.998364	-0.052409	0.022848	0.052802	0.998461	-0.016979	-0.021923	0.018157	0.999595
16517	0.568214	0.304276	10.236673	-0.315114	-0.065876	0.261800	0.998641	-0.046063	0.024392	0.046674	0.998595	-0.025077	-0.023202	0.026181	0.999388
16518	0.503356	-0.006691	10.083040	-0.187180	-0.152781	0.076202	0.998624	-0.044229	0.028166	0.045065	0.998540	-0.029797	-0.026807	0.031026	0.999159
16519	0.681238	-1.099292	10.971232	-0.117271	-0.340614	-0.364246	0.997901	-0.053211	0.036911	0.054409	0.997998	-0.032236	-0.035122	0.034176	0.998798
16520	0.363141	-0.369299	10.107549	-0.448680	-0.153861	0.135497	0.997923	-0.049965	0.040648	0.051729	0.997710	-0.043579	-0.038377	0.045591	0.998223
16521	0.533471	0.130293	9.700084	-0.329958	-0.066436	0.269919	0.998174	-0.043384	0.042025	0.045555	0.997599	-0.052156	-0.039662	0.053975	0.997754
16522	0.409191	-0.983149	10.466607	-0.139600	-0.194898	-0.095430	0.997850	-0.045663	0.047014	0.048250	0.997295	-0.055441	-0.044355	0.057590	0.997355
16523	0.454756	-1.134810	10.640706	-0.409694	-0.205070	0.032780	0.997637	-0.044804	0.052095	0.048189	0.996678	-0.065659	-0.048980	0.068014	0.996481
16524	0.677489	-0.601238	10.043177	-0.581118	-0.190528	0.000839	0.997378	-0.044775	0.056861	0.049259	0.995571	-0.080074	-0.053024	0.082665	0.995166
16525	0.488816	-0.398559	9.741024	-0.530488	-0.189893	0.330207	0.997476	-0.036461	0.060935	0.042092	0.994698	-0.093835	-0.057191	0.096163	0.993721
16526	0.297066	-1.354867	10.370569	-0.313137	-0.223600	-0.263701	0.996831	-0.042699	0.067117	0.049365	0.993658	-0.101028	-0.062377	0.104021	0.992617
16527	0.937378	-1.408080	10.771560	-0.507028	-0.256699	-0.421837	0.995816	-0.052791	0.074586	0.061011	0.991764	-0.112617	-0.068026	0.116696	0.990835
16528	1.128966	-1.277356	10.185640	-0.845268	-0.244316	0.114636	0.995530	-0.049640	0.080347	0.060117	0.989194	-0.133722	-0.072841	0.137954	0.987756
16529	1.307845	-0.887573	9.760227	-0.693897	-0.300998	0.469909	0.995577	-0.037329	0.086210	0.050169	0.987116	-0.151937	-0.079427	0.155590	0.984623
16530	0.495789	-1.703338	9.993697	-0.353670	-0.306652	-0.164820	0.994712	-0.040436	0.094412	0.055263	0.985547	-0.160135	-0.086573	0.164505	0.982570
16531	1.314120	-2.083721	10.621437	-0.503282	-0.342091	-0.216641	0.993603	-0.044644	0.103728	0.062110	0.983175	-0.171785	-0.094314	0.177129	0.979658
16532	1.237905	-1.940923	10.560599	-0.914656	-0.310546	0.210834	0.993133	-0.038505	0.110468	0.059615	0.979051	-0.194693	-0.100657	0.199941	0.974624
16533	1.379695	-1.583389	9.852186	-0.721564	-0.305024	0.110169	0.992478	-0.034635	0.117422	0.059180	0.975365	-0.212510	-0.107169	0.217861	0.970078
16534	0.775393	-1.821349	10.254794	-0.487702	-0.648498	-0.502691	0.989767	-0.043618	0.135860	0.073375	0.972184	-0.222431	-0.122379	0.230123	0.965436
16535	1.406830	-2.241403	9.656054	-0.464603	-0.540962	-0.828379	0.986264	-0.060884	0.153545	0.095622	0.968434	-0.230199	-0.134683	0.241719	0.960954
16536	1.603340	-2.010492	9.491734	-0.579946	-0.427710	-0.695555	0.982917	-0.075412	0.167889	0.115089	0.963696	-0.240922	-0.143626	0.256129	0.955913
16537	2.060697	-2.673116	10.330734	-0.629185	-0.624371	-0.645759	0.978523	-0.087237	0.186767	0.133659	0.958275	-0.252674	-0.156931	0.272210	0.949355
16538	1.831860	-2.853336	9.601136	-0.600904	-0.775078	-0.678581	0.972841	-0.098459	0.209490	0.153066	0.952542	-0.263125	-0.173641	0.288044	0.941743
16539	2.012026	-2.417880	9.008359	-0.491968	-0.695790	-0.701242	0.966792	-0.110374	0.230501	0.172602	0.947146	-0.270412	-0.188471	0.301217	0.934744
16540	2.501684	-2.193687	9.256529	-0.646479	-0.346922	-0.457748	0.963016	-0.118890	0.241795	0.187075	0.940862	-0.282457	-0.193915	0.317245	0.928307
16541	2.438993	-2.793249	9.643347	-0.806621	-0.306179	-0.738511	0.957790	-0.134141	0.254254	0.209125	0.931987	-0.296084	-0.197245	0.336757	0.920700
16542	2.695345	-3.100262	9.072689	-0.986317	-0.671484	-0.836627	0.949643	-0.148234	0.276053	0.234547	0.920478	-0.312583	-0.207765	0.361589	0.908893
16543	2.683041	-3.373441	8.931756	-0.872689	-0.507458	-0.635904	0.942968	-0.158564	0.292692	0.254621	0.909949	-0.327354	-0.214428	0.383210	0.898427
16544	3.252145	-3.361319	8.923173	-0.821895	-0.252994	-0.562238	0.937800	-0.169244	0.303131	0.272625	0.899604	-0.341157	-0.214959	0.402578	0.889789
16545	3.691829	-2.799392	8.574491	-0.685930	-0.407237	-0.580272	0.931403	-0.178451	0.317245	0.290244	0.890076	-0.351458	-0.219654	0.419427	0.880814
16546	3.486693	-3.595208	8.756742	-0.463325	-0.658517	-0.898299	0.920824	-0.191700	0.339610	0.313895	0.881098	-0.353747	-0.231417	0.432341	0.871509
16547	3.552842	-4.297563	9.365828	-0.671454	-0.715114	-0.808675	0.909889	-0.201958	0.362375	0.336707	0.869788	-0.360690	-0.242345	0.450202	0.859411
16548	3.716108	-4.043769	8.910285	-0.757711	-1.404233	-1.018366	0.891838	-0.208283	0.401551	0.364880	0.855914	-0.366434	-0.267372	0.473318	0.839335
16549	4.582590	-2.974097	8.310081	-0.751527	-1.423361	-0.981065	0.872420	-0.212409	0.440189	0.392160	0.841741	-0.371055	-0.291709	0.496341	0.817650
16550	5.025008	-3.384295	8.396690	-0.748713	-1.181141	-0.831323	0.854950	-0.215302	0.471917	0.416100	0.827883	-0.376126	-0.309712	0.517934	0.797385
16551	5.040492	-3.900453	8.328920	-0.797988	-1.287255	-0.834116	0.835533	-0.215912	0.505239	0.440465	0.812904	-0.381021	-0.328444	0.540896	0.774310
16552	5.373367	-3.963515	8.354644	-0.979142	-1.398478	-0.950787	0.812664	-0.216249	0.541122	0.468725	0.794295	-0.386513	-0.346227	0.567743	0.746857
16553	5.546789	-3.935362	7.723285	-1.169826	-1.639539	-0.973390	0.785972	-0.212090	0.580747	0.499054	0.772111	-0.393433	-0.364958	0.599051	0.712702
16554	6.214061	-3.550994	6.887701	-0.996155	-1.500347	-0.975859	0.759139	-0.208325	0.616692	0.527569	0.751862	-0.395443	-0.381287	0.625544	0.680673
16555	6.426917	-3.494708	6.771707	-0.808337	-0.888263	-0.973955	0.737200	-0.212792	0.641292	0.553782	0.734070	-0.393024	-0.387121	0.644873	0.658996
16556	6.668692	-3.784375	6.796524	-0.808729	-0.442739	-1.168298	0.716119	-0.227170	0.659975	0.582944	0.714679	-0.386536	-0.383861	0.661534	0.644223
16557	6.974013	-3.986079	7.008105	-0.899797	-0.302259	-0.942193	0.698968	-0.239137	0.673986	0.608345	0.694286	-0.384555	-0.375978	0.678808	0.630762
16558	6.889508	-3.732973	6.668707	-0.907930	-0.313158	-1.127425	0.678259	-0.253460	0.689727	0.636349	0.671971	-0.378833	-0.367458	0.695854	0.617059
16559	7.120542	-3.075389	6.067739	-0.589836	-0.048871	-1.637237	0.650963	-0.280058	0.705560	0.668867	0.651142	-0.358651	-0.358977	0.705394	0.611191
16560	7.463611	-3.802892	6.862658	-0.453202	0.086860	-1.270294	0.629990	-0.302294	0.715354	0.693186	0.634199	-0.342469	-0.350150	0.711625	0.609085
16561	6.785859	-3.962453	6.871758	-0.657848	-0.151541	-1.077966	0.609482	-0.316739	0.726779	0.715636	0.614299	-0.332418	-0.341170	0.722712	0.601074
16562	6.749729	-3.132110	5.737255	-0.608238	-0.358037	-0.901630	0.589874	-0.324181	0.739564	0.734388	0.596178	-0.324416	-0.335742	0.734492	0.589744
16563	6.986261	-2.945001	5.951483	-0.557854	-0.181968	-1.155210	0.566646	-0.338067	0.751414	0.755740	0.576582	-0.310499	-0.328283	0.743817	0.582209
16564	7.909347	-3.450472	6.390243	-0.617242	-0.308787	-1.358129	0.537843	-0.351822	0.766124	0.779513	0.553634	-0.293000	-0.321069	0.754792	0.572018
16565	8.227737	-3.025345	6.428917	-0.783673	-0.465737	-1.018075	0.513737	-0.357099	0.780099	0.799197	0.529872	-0.283760	-0.312022	0.769231	0.557607
16566	8.338733	-2.017955	5.616639	-0.731922	-0.502274	-1.120958	0.486876	-0.362219	0.794826	0.818923	0.505825	-0.271121	-0.303837	0.782904	0.542904
16567	8.208595	-2.336227	5.333467	-0.626485	-0.365809	-1.115285	0.460773	-0.369116	0.807120	0.836861	0.483540	-0.256617	-0.295553	0.793689	0.531701
16568	8.374333	-2.728213	5.537343	-0.675803	-0.370990	-1.005260	0.436531	-0.373875	0.818326	0.853099	0.460915	-0.244499	-0.285767	0.804844	0.520156
16569	8.177890	-2.800581	5.307990	-0.705338	-0.639200	-0.921813	0.411837	-0.371574	0.832060	0.867918	0.438187	-0.233903	-0.277685	0.818489	0.502957
16570	7.878280	-1.955369	4.785360	-0.842854	-0.610215	-1.029888	0.384724	-0.370250	0.845519	0.883975	0.411437	-0.222055	-0.265662	0.832847	0.485582
16571	8.442552	-1.827184	4.798112	-0.937676	-0.543555	-1.235981	0.353187	-0.371431	0.858661	0.901480	0.380556	-0.206183	-0.250186	0.846886	0.469245
16572	8.601006	-1.768108	4.584629	-1.047380	-0.502153	-1.131730	0.323936	-0.371362	0.870147	0.917435	0.347910	-0.193058	-0.231038	0.860842	0.453401
16573	8.302538	-1.411387	4.035928	-0.900505	-0.492772	-0.865836	0.300746	-0.368197	0.879763	0.929285	0.320546	-0.183520	-0.214433	0.872743	0.438563
16574	8.596969	-1.754056	4.328057	-0.749640	-0.498797	-0.737384	0.280530	-0.363179	0.888484	0.938596	0.297490	-0.174750	-0.200850	0.882950	0.424333
16575	8.556071	-1.751528	4.255012	-0.752595	-0.487186	-0.711729	0.260977	-0.357674	0.896638	0.947119	0.274506	-0.166168	-0.186698	0.892589	0.410400
16576	8.704198	-1.677465	4.405213	-0.903384	-0.369166	-0.687967	0.242511	-0.354109	0.903214	0.955523	0.248235	-0.159235	-0.167823	0.901657	0.398559
16577	8.774128	-1.953005	4.287516	-1.033511	-0.376610	-0.661679	0.224635	-0.349657	0.909549	0.963517	0.219085	-0.153741	-0.145511	0.910902	0.386115
16578	8.698536	-1.851494	3.634651	-0.805961	-0.293287	-0.680053	0.206767	-0.346655	0.914919	0.969994	0.194881	-0.145375	-0.127905	0.917525	0.376548
16579	8.455053	-1.481396	3.024040	-0.581230	-0.203387	-0.794469	0.186501	-0.345817	0.919580	0.975688	0.174860	-0.132122	-0.115108	0.921865	0.370021
16580	8.830469	-1.066211	3.888335	-0.580417	-0.279658	-0.714735	0.167924	-0.342459	0.924404	0.980460	0.155488	-0.120504	-0.102466	0.926577	0.361877
16581	9.030365	-1.875129	4.846237	-1.173335	-0.437810	-0.683278	0.149540	-0.334826	0.930338	0.985856	0.122497	-0.114378	-0.075667	0.934284	0.348409
16582	9.338532	-2.052235	3.155814	-1.663120	-0.567167	-0.780918	0.128602	-0.323652	0.937396	0.991010	0.077099	-0.109337	-0.036885	0.943030	0.330658
16583	8.016271	-0.113858	0.812862	-0.424373	-0.497210	-0.685714	0.110873	-0.313206	0.943191	0.993436	0.061815	-0.096253	-0.028157	0.947671	0.318004
16584	8.689231	-0.731680	2.654452	0.356733	-0.217015	-0.456139	0.099412	-0.308856	0.945899	0.994328	0.066952	-0.082640	-0.037806	0.948750	0.313760
16585	8.874842	-1.335873	3.666033	0.379693	0.057040	-0.854690	0.078311	-0.311774	0.946923	0.995796	0.069724	-0.059396	-0.047505	0.947594	0.315924
16586	9.548210	-0.481951	4.453494	-0.014603	0.312257	-0.966485	0.054569	-0.320885	0.945545	0.997401	0.062141	-0.036474	-0.047053	0.945077	0.323442
16587	9.351217	-1.179911	3.487063	-0.660748	-0.243746	-0.524366	0.040864	-0.315896	0.947913	0.998680	0.042451	-0.028906	-0.031108	0.947844	0.317214
16588	8.724554	-0.416479	1.403417	0.066769	-0.223980	-0.540445	0.027117	-0.311220	0.949951	0.999080	0.040021	-0.015408	-0.033223	0.949495	0.312019
16589	9.273415	-0.220001	2.738183	0.480340	-0.070868	-0.310586	0.019415	-0.309925	0.950563	0.998779	0.049201	-0.004358	-0.045418	0.949487	0.310501
16590	9.256436	-0.539393	4.010210	0.191567	0.028943	-0.427049	0.008803	-0.311204	0.950302	0.998690	0.050636	0.007331	-0.050401	0.948993	0.311243
16591	9.181178	-0.174654	2.768363	-0.350196	0.088193	-0.348577	-0.000007	-0.313751	0.949505	0.999125	0.039709	0.013129	-0.041823	0.948675	0.313476
16592	8.972492	1.088787	1.397594	-0.214498	-0.154527	-0.160474	-0.004350	-0.310265	0.950640	0.999322	0.033402	0.015475	-0.036555	0.950063	0.309909
16593	8.481528	1.389293	1.272406	0.469851	-0.257142	0.042036	-0.003481	-0.304110	0.952631	0.998828	0.044932	0.017993	-0.048275	0.951577	0.303597
16594	8.620093	0.482826	2.810082	0.632842	-0.212289	0.161779	0.000424	-0.298820	0.954309	0.997948	0.061223	0.018727	-0.064022	0.952343	0.298233
16595	8.368965	0.715211	3.512106	0.489123	0.147896	-0.119644	-0.002145	-0.302549	0.953131	0.997083	0.072078	0.025123	-0.076301	0.950404	0.301512
16596	8.913878	0.598015	4.133641	-0.185931	0.239063	-0.038165	-0.002775	-0.308313	0.951281	0.997421	0.067379	0.024747	-0.071726	0.948896	0.307330
16597	9.492574	0.758521	2.740220	-0.323262	0.029047	-0.168961	-0.007145	-0.309311	0.950934	0.997939	0.058438	0.026506	-0.063769	0.949164	0.308256
16598	9.162429	1.844287	2.031924	0.114869	-0.297580	-0.097188	-0.010118	-0.302412	0.953124	0.997726	0.060471	0.029778	-0.066641	0.951257	0.301112
16599	8.787713	1.619877	2.162846	0.199365	-0.406591	0.139109	-0.007397	-0.292502	0.956236	0.997414	0.066212	0.027969	-0.071495	0.953970	0.291256
16600	8.537186	0.718415	2.273527	0.029363	-0.226821	-0.045812	-0.009040	-0.287185	0.957832	0.997347	0.066601	0.029382	-0.072231	0.955557	0.285821
16601	8.457740	0.989533	1.341692	-0.132513	-0.089120	-0.158040	-0.013281	-0.285348	0.958332	0.997528	0.062356	0.032391	-0.069000	0.956393	0.283815
16602	8.839214	1.269408	2.187541	0.087958	0.006335	0.164074	-0.009219	-0.285228	0.958415	0.997423	0.065580	0.029111	-0.071156	0.956214	0.283888
16603	8.416251	0.457365	2.428787	0.117781	-0.034874	0.296414	-0.001928	-0.283863	0.958863	0.997257	0.070403	0.022848	-0.073992	0.956277	0.282949
16604	8.931451	-0.275436	3.089706	0.362324	-0.028214	0.196912	0.002993	-0.282796	0.959176	0.996548	0.080426	0.020602	-0.082969	0.955802	0.282060
16605	9.906816	-0.360676	3.976831	0.283888	-0.005220	-0.033192	0.002198	-0.282750	0.959191	0.995932	0.087027	0.023372	-0.090084	0.955237	0.281791
16606	9.825860	-0.199569	2.930583	0.379625	-0.078424	-0.509209	-0.010578	-0.282090	0.959330	0.994954	0.092752	0.038245	-0.099768	0.954894	0.279686
16607	8.991721	0.304232	1.964759	0.011290	0.091271	-0.491502	-0.022625	-0.285468	0.958121	0.994697	0.089746	0.050228	-0.100326	0.954177	0.281923
16608	8.749360	0.617209	1.698868	-0.313420	0.571775	-0.369151	-0.030552	-0.299932	0.953471	0.995188	0.079721	0.056966	-0.093098	0.950624	0.296053
16609	9.208924	2.142358	2.213052	0.156895	0.660101	-0.121344	-0.031918	-0.315841	0.948275	0.994714	0.082604	0.060994	-0.097596	0.945210	0.311535
16610	9.950760	1.419745	4.321029	0.678792	0.413584	-0.093884	-0.032886	-0.325798	0.944867	0.992837	0.097999	0.068347	-0.114863	0.940347	0.320241
16611	9.682605	0.674251	4.111525	0.517686	0.206024	-0.014799	-0.032460	-0.330667	0.943189	0.991255	0.110116	0.072719	-0.127906	0.937301	0.324201
16612	9.130636	0.934666	2.799597	0.032177	0.119199	0.202350	-0.027116	-0.332888	0.942576	0.991308	0.112478	0.068242	-0.128736	0.936234	0.326945
16613	8.608722	1.361496	1.991446	0.405661	0.480542	-0.076373	-0.027240	-0.344330	0.938453	0.989894	0.121410	0.073280	-0.139170	0.930965	0.337543
16614	9.629113	0.514210	3.679373	0.702141	0.485860	-0.275739	-0.031969	-0.356493	0.933751	0.987077	0.135512	0.085531	-0.157026	0.924418	0.347554
16615	9.652615	0.853051	4.229032	0.256692	0.213325	-0.100585	-0.033535	-0.361779	0.931661	0.985956	0.140620	0.090094	-0.163604	0.921598	0.351982
16616	8.791206	1.224059	2.967401	-0.258165	0.227996	0.064631	-0.031184	-0.366832	0.929764	0.987038	0.135209	0.086450	-0.157425	0.920409	0.357861
16617	8.719538	1.141068	2.831887	0.463328	0.255113	0.067450	-0.028332	-0.372436	0.927625	0.985202	0.146525	0.088920	-0.169038	0.916418	0.362773
16618	10.157435	0.324521	4.742923	0.921191	-0.075914	-0.202737	-0.033355	-0.371481	0.927841	0.980880	0.165929	0.101694	-0.191733	0.913493	0.358844
16619	9.624520	1.215116	4.013330	0.393067	-0.095755	0.038875	-0.032799	-0.369125	0.928801	0.978981	0.175300	0.104239	-0.201296	0.912697	0.355617
16620	8.936871	1.349910	3.009264	-0.094699	-0.033784	0.317794	-0.025318	-0.366957	0.929893	0.979703	0.175920	0.096096	-0.198850	0.913452	0.355055
16621	9.332952	0.740648	3.536252	-0.002412	-0.092549	0.223762	-0.020395	-0.363858	0.931231	0.979853	0.177815	0.090937	-0.198675	0.914325	0.352900
16622	9.208941	0.782934	3.671557	0.137461	-0.076247	0.147844	-0.017190	-0.361452	0.932232	0.979240	0.182256	0.088723	-0.201974	0.914404	0.350815
16623	9.144399	1.055504	2.982275	-0.032698	-0.128599	0.337988	-0.009680	-0.356956	0.934071	0.979539	0.184399	0.080620	-0.201019	0.915740	0.347868
16624	8.819376	0.655920	2.299398	-0.521548	0.076150	0.776922	0.009434	-0.355147	0.934763	0.982136	0.178984	0.058090	-0.187938	0.917516	0.350491
16625	10.024910	0.334912	4.531210	0.100645	-0.088988	0.455340	0.020129	-0.351002	0.936159	0.981523	0.185145	0.048313	-0.190283	0.917889	0.348243
16626	9.186491	0.551619	3.779103	-0.138852	-0.256780	0.330383	0.026849	-0.343581	0.938739	0.982008	0.184661	0.039499	-0.186920	0.920789	0.342357
16627	9.417325	0.472161	2.948334	0.283883	0.159128	0.092825	0.029943	-0.346796	0.937463	0.980591	0.191999	0.039705	-0.193762	0.918079	0.345814
16628	9.325818	0.170057	2.957873	0.454829	0.495807	0.026447	0.033235	-0.357982	0.933137	0.978297	0.202713	0.042924	-0.204524	0.911458	0.356950
16629	10.341100	0.814299	4.430858	-0.362853	1.057855	0.066354	0.040046	-0.381680	0.923427	0.980050	0.195060	0.038123	-0.194674	0.903478	0.381877
16630	10.214063	0.448277	4.673531	-1.708824	0.490105	0.236034	0.047240	-0.391847	0.918817	0.987243	0.158333	0.016766	-0.152049	0.906304	0.394328
16631	8.329600	-0.227585	3.163589	-0.286119	-0.035859	-0.088865	0.044711	-0.391438	0.919118	0.988407	0.150958	0.016208	-0.145092	0.907738	0.393650
16632	10.336023	0.526973	4.121355	0.193580	0.155019	0.023876	0.045896	-0.394872	0.917589	0.987663	0.155607	0.017562	-0.149718	0.905463	0.397142
16633	10.078538	0.283350	4.010950	0.862686	0.322600	0.006709	0.047679	-0.402082	0.914361	0.984181	0.175283	0.025759	-0.170629	0.898669	0.404079
16634	6.845755	-0.918669	2.029131	0.917733	0.468200	-0.457276	0.038956	-0.414649	0.909147	0.980450	0.191481	0.045320	-0.192876	0.889608	0.414001
16635	7.942428	0.218673	6.729823	-0.934052	0.343324	-0.594261	0.025506	-0.425094	0.904790	0.985127	0.164536	0.049533	-0.169927	0.890069	0.422968
16636	9.770363	0.617676	5.050244	-1.058455	0.479699	-0.453331	0.015751	-0.437610	0.899027	0.989485	0.136110	0.048917	-0.143773	0.888804	0.435152
16637	9.449747	0.633320	5.071625	-1.318696	0.490538	-0.124988	0.013649	-0.448985	0.893435	0.993728	0.105267	0.037719	-0.110984	0.887317	0.447606
16638	8.096604	-0.190272	3.639727	-1.177147	0.294903	-0.094064	0.011485	-0.455823	0.889996	0.996593	0.077918	0.027046	-0.081675	0.886653	0.455165
16639	7.938205	-0.442454	4.418715	-0.735002	0.280874	-0.316498	0.003757	-0.462664	0.886526	0.997977	0.057996	0.026037	-0.063461	0.884635	0.461946
16640	8.720178	0.360032	4.251340	-0.408730	0.011283	-0.389931	-0.006199	-0.463495	0.886078	0.998551	0.044499	0.030263	-0.053456	0.884982	0.462547
16641	8.521989	0.295138	4.068485	-0.289580	-0.276903	-0.187965	-0.011470	-0.457601	0.889084	0.998863	0.035905	0.031366	-0.046275	0.888433	0.456669
16642	8.996456	0.484904	3.967697	-0.332459	0.094408	-0.123112	-0.014647	-0.459838	0.887882	0.999167	0.027091	0.030513	-0.038085	0.887589	0.459058
16643	8.441648	0.372135	4.120703	0.270503	-0.087528	-0.150441	-0.018465	-0.458045	0.888737	0.998821	0.031464	0.036968	-0.044896	0.888372	0.456924
16644	8.333616	0.422732	4.434513	-0.193455	-0.315115	-0.267954	-0.025686	-0.451279	0.892013	0.998868	0.024150	0.040981	-0.040036	0.892056	0.450148
16645	9.662513	0.809947	3.933505	-0.232789	-0.568520	-0.284896	-0.033573	-0.438759	0.897977	0.998859	0.015795	0.045062	-0.033955	0.898466	0.437729
16646	9.509523	0.924567	3.559003	0.671418	-0.485929	-0.152273	-0.037739	-0.427939	0.903019	0.998017	0.029414	0.055648	-0.050375	0.903329	0.425981
16647	8.575609	0.681470	4.796362	0.382209	-0.135501	0.045172	-0.036730	-0.424854	0.904517	0.997535	0.038568	0.058623	-0.059792	0.904440	0.422390
16648	7.985375	0.109273	4.279538	-0.715595	0.304668	0.123615	-0.033598	-0.431656	0.901412	0.998545	0.023569	0.048505	-0.042183	0.901730	0.430236
16649	8.376548	0.158301	2.860161	-0.175850	0.078778	0.109914	-0.030915	-0.433386	0.900678	0.998806	0.020718	0.044252	-0.037838	0.900970	0.432228
16650	10.263290	0.930959	4.763267	0.091137	-0.240532	0.205637	-0.026084	-0.427844	0.903476	0.998864	0.024904	0.040631	-0.039883	0.903509	0.426708
16651	9.617141	0.890301	5.357059	-0.106201	-0.217959	0.281984	-0.019402	-0.422732	0.906047	0.999126	0.025354	0.033225	-0.037017	0.905900	0.421870
16652	9.034702	0.359432	4.570063	-0.339759	-0.387255	0.211883	-0.014699	-0.413829	0.910236	0.999491	0.019688	0.025091	-0.028305	0.910142	0.413329
16653	7.955849	0.123657	3.476572	0.092081	-0.531198	0.075138	-0.013319	-0.401688	0.915680	0.999449	0.022510	0.024412	-0.030418	0.915500	0.401166
16654	8.580250	0.402613	3.637456	0.355602	-0.472384	-0.032970	-0.014540	-0.390904	0.920317	0.999126	0.030386	0.028692	-0.039181	0.919930	0.390120
16655	9.028740	0.686967	4.189163	0.253482	-0.095896	-0.094029	-0.016970	-0.388814	0.921160	0.998818	0.035372	0.033331	-0.045543	0.920637	0.387755
16656	9.646495	0.873406	4.376615	-0.193778	-0.065357	-0.103757	-0.019799	-0.387442	0.921681	0.998973	0.029906	0.034030	-0.040749	0.921409	0.386452
16657	8.473047	0.620580	3.298641	-0.730585	0.148987	-0.169012	-0.024270	-0.391019	0.920063	0.999448	0.011394	0.031206	-0.022685	0.920312	0.390526
16658	8.401305	0.330432	3.660368	-0.731854	-0.109903	-0.286671	-0.031873	-0.388567	0.920869	0.999482	-0.008263	0.031107	-0.004478	0.921384	0.388629
16659	8.975982	0.324013	3.812191	-0.368874	-0.443448	-0.139078	-0.035638	-0.378328	0.924985	0.999352	-0.018141	0.031084	0.005020	0.925494	0.378730
16660	9.521193	0.584509	3.727158	-0.235656	-0.403319	0.011693	-0.035496	-0.369011	0.928747	0.999307	-0.023557	0.028833	0.011239	0.929127	0.369591
16661	8.999818	0.531516	3.135514	0.017153	-0.250269	0.116187	-0.032629	-0.363273	0.931111	0.999407	-0.022151	0.026380	0.011042	0.931419	0.363780
16662	8.961695	0.394488	3.634591	-0.059269	-0.139149	-0.126484	-0.035870	-0.360002	0.932262	0.999278	-0.024641	0.028934	0.012556	0.932626	0.360626
16663	9.452204	0.402966	4.254459	-0.281697	-0.084104	-0.397094	-0.045964	-0.357823	0.932657	0.998753	-0.034662	0.035923	0.019474	0.933146	0.358970
16664	9.526468	0.562324	3.612545	-0.463401	0.048078	-0.520278	-0.059249	-0.358482	0.931655	0.997770	-0.049987	0.044220	0.030718	0.932197	0.360644
16665	9.290886	0.423805	3.283478	-0.282930	0.411621	-0.227380	-0.065414	-0.367801	0.927601	0.997172	-0.058565	0.047098	0.037002	0.928059	0.370592
16666	9.489175	0.407675	4.276909	0.209413	0.230054	0.157954	-0.061633	-0.373370	0.925633	0.997603	-0.052270	0.045341	0.031453	0.926209	0.375697
16667	9.238848	0.476561	4.138023	0.325670	0.014539	0.054075	-0.060234	-0.373805	0.925549	0.997912	-0.044195	0.047094	0.023301	0.926454	0.375687
16668	8.482699	0.821842	3.860111	0.091231	0.156117	-0.121526	-0.063372	-0.377338	0.923905	0.997775	-0.043158	0.050812	0.020700	0.925069	0.379233
16669	8.493222	0.387564	3.713206	0.355492	0.087972	-0.054665	-0.064689	-0.379368	0.922982	0.997838	-0.035377	0.055394	0.011638	0.924569	0.380836
16670	9.457420	0.157191	3.995924	0.176923	-0.048085	0.055099	-0.063315	-0.378335	0.923501	0.997967	-0.030765	0.055817	0.007294	0.925158	0.379513
16671	9.172118	0.455893	3.750786	-0.198220	-0.072049	0.146047	-0.059827	-0.376804	0.924359	0.998132	-0.034068	0.050714	0.012382	0.925666	0.378138
16672	8.351880	0.960915	3.790828	0.153962	-0.010978	0.228052	-0.054148	-0.376741	0.924735	0.998496	-0.028426	0.046886	0.008623	0.925882	0.377714
16673	8.692709	0.822543	4.018424	0.093636	0.054581	0.008821	-0.053972	-0.378051	0.924210	0.998523	-0.026165	0.047608	0.006184	0.925415	0.378905
16674	9.020878	0.590031	3.596313	0.263352	-0.036910	-0.066273	-0.055597	-0.377212	0.924457	0.998453	-0.020634	0.051628	-0.000399	0.925897	0.377776
16675	9.368369	0.725487	3.741339	0.222523	0.045874	-0.127990	-0.058769	-0.378275	0.923826	0.998253	-0.016609	0.056702	-0.006105	0.925544	0.378590
16676	9.599216	0.756209	4.097730	0.069913	0.059187	-0.058909	-0.060273	-0.379672	0.923156	0.998150	-0.015517	0.058787	-0.007995	0.924991	0.379905
16677	9.350480	0.454435	3.318941	-0.009669	-0.089241	0.145528	-0.056757	-0.377689	0.924191	0.998359	-0.014430	0.055415	-0.007593	0.925820	0.377888
16678	8.737898	0.732478	3.591783	-0.121462	-0.056092	0.134103	-0.053560	-0.376468	0.924880	0.998555	-0.016057	0.051291	-0.004459	0.926290	0.376784
16679	9.138658	0.634960	3.837809	-0.068521	0.029303	-0.036450	-0.054575	-0.377180	0.924531	0.998506	-0.017985	0.051604	-0.002837	0.925965	0.377598
16680	9.060339	0.586292	3.753958	-0.017793	-0.012408	-0.072360	-0.056474	-0.376913	0.924525	0.998401	-0.019057	0.053217	-0.002439	0.926053	0.377387
16681	9.125867	0.322478	3.731766	0.065241	-0.069240	0.007339	-0.056360	-0.375358	0.925165	0.998402	-0.017477	0.053731	-0.003999	0.926715	0.375744
16682	9.139756	0.537105	4.097237	0.003590	-0.078119	0.072292	-0.054655	-0.373616	0.925972	0.998497	-0.016752	0.052177	-0.003982	0.927432	0.373970
16683	8.430237	0.542989	3.338833	0.103847	-0.024444	0.075978	-0.052804	-0.373118	0.926280	0.998583	-0.013653	0.051426	-0.006541	0.927683	0.373310
16684	9.062327	0.583990	3.601677	-0.008313	-0.177250	0.185102	-0.048321	-0.369089	0.928137	0.998813	-0.012215	0.047143	-0.006062	0.929314	0.369241
16685	9.105676	0.756036	3.650459	0.037351	-0.145277	0.112991	-0.045609	-0.365779	0.929584	0.998936	-0.010357	0.044936	-0.006809	0.930644	0.365862
16686	9.322998	0.467766	3.512033	0.063961	0.019859	0.007273	-0.045478	-0.366292	0.929388	0.998930	-0.008798	0.045413	-0.008458	0.930458	0.366300
16687	9.815073	0.164308	3.682158	-0.131579	-0.131134	0.126683	-0.042493	-0.363305	0.930701	0.999084	-0.010783	0.041406	-0.005007	0.931608	0.363431
16688	9.568071	0.304210	3.511700	-0.176028	-0.206653	0.216767	-0.037278	-0.358574	0.932757	0.999305	-0.013055	0.034919	-0.000344	0.933410	0.358812
16689	9.191277	0.325820	3.411670	-0.005075	-0.119552	0.200416	-0.032373	-0.355870	0.933975	0.999476	-0.011471	0.030273	-0.000060	0.934465	0.356055
16690	9.246949	0.490460	3.572827	0.116610	-0.042319	0.085633	-0.030274	-0.354943	0.934398	0.999537	-0.008005	0.029343	-0.002936	0.934854	0.355021
16691	9.104232	0.513674	3.606481	0.128609	0.026713	-0.057985	-0.031744	-0.355616	0.934093	0.999477	-0.005471	0.031883	-0.006227	0.934616	0.355604
16692	9.159176	0.387822	3.482434	0.080948	0.013417	-0.030976	-0.032563	-0.355983	0.933925	0.999435	-0.003832	0.033386	-0.008306	0.934485	0.355907
16693	9.195027	0.076502	3.298704	0.015002	-0.146799	0.210459	-0.027433	-0.352593	0.935375	0.999587	-0.001706	0.028673	-0.008514	0.935775	0.352494
16694	9.349799	0.524963	3.964082	0.009609	0.003076	0.095260	-0.025130	-0.352709	0.935395	0.999646	-0.000678	0.026601	-0.008748	0.935733	0.352601
16695	8.915135	0.594936	3.365105	0.141379	0.182743	-0.117793	-0.028024	-0.357051	0.933664	0.999529	0.001657	0.030635	-0.012485	0.934083	0.356837
16696	9.057678	0.462048	3.417896	0.128990	0.040645	-0.014253	-0.028390	-0.358059	0.933267	0.999472	0.004567	0.032156	-0.015776	0.933688	0.357740
16697	9.377063	0.325164	3.455924	0.203839	0.010933	0.027151	-0.027704	-0.358361	0.933172	0.999398	0.009586	0.033351	-0.020898	0.933534	0.357880
16698	9.378370	0.382571	3.525968	0.079847	-0.044271	0.057652	-0.026344	-0.357362	0.933594	0.999391	0.011952	0.032776	-0.022871	0.933890	0.356829
16699	9.123004	0.624741	3.646545	-0.039329	-0.039006	0.035703	-0.025581	-0.356493	0.933948	0.999433	0.011329	0.031699	-0.021882	0.934229	0.356001
16700	9.183437	0.505573	3.529695	-0.008309	-0.028173	0.100771	-0.023172	-0.355851	0.934255	0.999497	0.011989	0.029357	-0.021647	0.934466	0.355394
16701	9.344163	0.134555	3.596523	-0.072795	-0.006949	0.117892	-0.020349	-0.355699	0.934379	0.999597	0.011278	0.026062	-0.019808	0.934533	0.355326
16702	9.182140	0.063979	3.187407	-0.084200	-0.063132	0.160195	-0.016506	-0.354219	0.935017	0.999708	0.010652	0.021683	-0.017641	0.935102	0.353940
16703	9.006128	0.405722	3.238942	0.034414	-0.102174	0.111337	-0.013854	-0.351842	0.935957	0.999734	0.012396	0.019458	-0.018448	0.935977	0.351577
16704	9.225341	0.483736	3.602800	0.099486	-0.066608	0.053514	-0.012602	-0.350316	0.936547	0.999702	0.015185	0.019132	-0.020923	0.936508	0.350020
16705	9.380610	0.505518	3.544020	-0.119882	-0.199933	0.146025	-0.009214	-0.345621	0.938329	0.999798	0.013562	0.014813	-0.017845	0.938276	0.345426
16706	9.619422	0.018951	3.149328	-0.327724	-0.186949	0.098577	-0.007066	-0.341256	0.939944	0.999929	0.006621	0.009921	-0.009609	0.939947	0.341185
16707	9.368834	-0.029713	3.435861	-0.239447	-0.050076	0.122666	-0.004204	-0.340110	0.940376	0.999985	0.001955	0.005178	-0.003599	0.940384	0.340097
16708	9.326278	-0.059937	3.301075	-0.151247	0.010042	0.065222	-0.002723	-0.340397	0.940278	0.999996	-0.001091	0.002501	0.000174	0.940281	0.340398
16709	9.205249	-0.000945	3.301642	-0.276848	-0.029347	0.070122	-0.001176	-0.339764	0.940510	0.999974	-0.007069	-0.001304	0.007092	0.940484	0.339763
16710	9.214774	-0.093029	3.371609	-0.476568	-0.041186	-0.050974	-0.002731	-0.338841	0.940840	0.999817	-0.018754	-0.003852	0.018949	0.940657	0.338830
16711	9.253281	-0.115166	3.346552	-0.036954	0.007068	-0.141296	-0.006367	-0.339013	0.940760	0.999784	-0.020765	-0.000717	0.019778	0.940552	0.339072
16712	9.188468	-0.078069	3.359484	0.307582	0.112782	-0.043739	-0.007445	-0.341712	0.939775	0.999900	-0.013840	0.002889	0.012019	0.939703	0.341781
16713	9.363519	0.160028	3.347797	-0.032746	0.088606	-0.006445	-0.007721	-0.343851	0.938993	0.999888	-0.014660	0.002853	0.012785	0.938910	0.343926
16714	9.254203	0.250813	3.303760	-0.053290	0.043359	-0.067561	-0.009527	-0.344910	0.938587	0.999856	-0.016469	0.004097	0.014045	0.938491	0.345017
16715	9.272010	0.194963	3.382079	0.413208	0.107863	-0.029292	-0.010179	-0.347497	0.937626	0.999942	-0.006954	0.008278	0.003644	0.937655	0.347547
16716	9.340589	0.242332	3.444966	0.251372	0.075411	0.035125	-0.009271	-0.349324	0.936956	0.999953	-0.000731	0.009622	-0.002677	0.937002	0.349314
16717	9.255515	0.181633	3.513415	-0.089314	0.085392	0.086723	-0.007214	-0.351377	0.936206	0.999974	-0.002105	0.006915	-0.000459	0.936232	0.351383
16718	9.185499	0.152246	3.512760	-0.092332	0.082850	0.086771	-0.005162	-0.353372	0.935469	0.999985	-0.003544	0.004179	0.001839	0.935476	0.353385
16719	9.250777	0.167228	3.513815	0.238935	0.288349	0.058690	-0.003634	-0.360162	0.932883	0.999985	0.002585	0.004894	-0.004174	0.932886	0.360147
16720	9.196287	0.150383	3.631529	0.046064	0.265642	-0.036924	-0.004558	-0.366418	0.930439	0.999975	0.003357	0.006221	-0.005403	0.930444	0.366394
16721	8.721633	0.006777	3.519440	-0.202730	0.001687	-0.104715	-0.007349	-0.366534	0.930376	0.999973	-0.002307	0.006990	-0.000415	0.930402	0.366541
16722	9.129945	0.110934	3.826957	-0.139122	0.031805	-0.124833	-0.010613	-0.367337	0.930027	0.999939	-0.006658	0.008781	0.002967	0.930064	0.367386
16723	9.280197	0.191734	3.435674	-0.320115	0.009596	-0.058774	-0.012306	-0.367614	0.929897	0.999865	-0.014666	0.007434	0.010905	0.929863	0.367744
16724	9.173379	0.176039	3.441854	-0.163760	-0.028206	-0.049167	-0.013687	-0.367004	0.930119	0.999795	-0.018932	0.007242	0.014951	0.930027	0.367188
16725	9.319700	0.158085	3.443594	-0.063375	-0.087940	-0.000073	-0.013781	-0.365019	0.930898	0.999768	-0.020421	0.006793	0.016530	0.930776	0.365216
16726	9.306135	0.030588	3.502543	0.094323	-0.092679	0.058867	-0.012335	-0.362944	0.931729	0.999823	-0.017702	0.006340	0.014193	0.931643	0.363099
16727	9.492818	0.168203	3.510520	0.064390	-0.120759	0.082351	-0.010313	-0.360216	0.932812	0.999867	-0.015485	0.005074	0.012617	0.932740	0.360328
16728	9.592747	0.070288	3.369875	-0.140314	-0.204831	0.021643	-0.009873	-0.355501	0.934624	0.999821	-0.018605	0.003485	0.016149	0.934491	0.355621
16729	9.402173	0.063046	3.718210	0.113017	-0.081580	0.010282	-0.009637	-0.353659	0.935325	0.999865	-0.015862	0.004304	0.013314	0.935240	0.353764
16730	9.419799	0.062500	3.590152	-0.062907	0.083135	0.067187	-0.008091	-0.355682	0.934572	0.999857	-0.016768	0.002275	0.014861	0.934457	0.355767
16731	8.897755	0.142454	3.293799	0.054478	0.118512	0.105626	-0.005542	-0.358540	0.933498	0.999894	-0.014580	0.000337	0.013490	0.933401	0.358583
16732	9.108644	0.229575	3.566691	0.129852	0.037894	0.083291	-0.003500	-0.359503	0.933137	0.999941	-0.010814	-0.000416	0.010240	0.933081	0.359519
16733	9.144332	0.077471	3.694623	0.152385	0.125912	0.060039	-0.002033	-0.362507	0.931979	0.999977	-0.006714	-0.000430	0.006413	0.931957	0.362512
16734	8.857257	0.021987	3.474868	0.129039	0.129312	-0.015250	-0.002447	-0.365581	0.930776	0.999992	-0.003816	0.001130	0.003138	0.930772	0.365588
16735	9.089914	0.185011	3.309725	0.049291	-0.072140	-0.106198	-0.005175	-0.363969	0.931397	0.999985	-0.003590	0.004153	0.001832	0.931404	0.363982
16736	9.410367	0.125411	3.482546	0.014479	-0.139741	-0.133807	-0.008616	-0.360779	0.932611	0.999962	-0.004415	0.007530	0.001401	0.932641	0.360803
16737	9.420446	-0.026532	3.543315	0.076810	-0.074199	-0.060812	-0.010202	-0.359113	0.933238	0.999948	-0.003138	0.009724	-0.000563	0.933289	0.359126
16738	9.368410	-0.074775	3.541487	0.154618	-0.008658	0.014791	-0.009858	-0.358973	0.933296	0.999941	0.000620	0.010800	-0.004455	0.933348	0.358946
16739	9.311480	0.142149	3.500409	0.174124	0.053379	0.019436	-0.009370	-0.360277	0.932798	0.999917	0.004878	0.011928	-0.008847	0.932832	0.360202
16740	9.129600	0.273374	3.508058	-0.077392	-0.049752	0.005734	-0.009365	-0.359179	0.933222	0.999932	0.003108	0.011231	-0.006934	0.933263	0.359126
16741	9.087999	0.275067	3.571736	-0.166027	-0.073780	-0.036274	-0.010450	-0.357526	0.933845	0.999941	-0.001105	0.010767	-0.002817	0.933903	0.357517
16742	9.096826	0.186644	3.580465	-0.063479	0.004575	-0.039466	-0.011552	-0.357699	0.933765	0.999932	-0.002933	0.011247	-0.001285	0.933832	0.357709
16743	9.202083	0.153195	3.429506	-0.058442	-0.014016	-0.023541	-0.012257	-0.357436	0.933857	0.999925	-0.004507	0.011399	0.000134	0.933927	0.357465
16744	9.258009	0.241109	3.405985	-0.096572	-0.053716	0.001453	-0.012356	-0.356245	0.934311	0.999920	-0.006766	0.010644	0.002529	0.934368	0.356300
16745	9.241670	0.193331	3.488856	-0.164538	-0.072748	0.012394	-0.012208	-0.354609	0.934935	0.999903	-0.010532	0.009062	0.006633	0.934955	0.354703
16746	9.248868	0.114558	3.460553	-0.176114	-0.077867	-0.016754	-0.012785	-0.352847	0.935594	0.999858	-0.014819	0.008074	0.011016	0.935564	0.352986
16747	9.285450	0.120848	3.409519	-0.063995	-0.022917	-0.022626	-0.013464	-0.352367	0.935765	0.999830	-0.016516	0.008166	0.012577	0.935716	0.352530
16748	9.376002	0.077151	3.343207	0.028381	0.004876	0.037090	-0.012616	-0.352554	0.935706	0.999850	-0.015534	0.007627	0.011846	0.935663	0.352697
16749	9.336870	0.044815	3.400377	0.104430	0.006519	0.044149	-0.011558	-0.352780	0.935635	0.999891	-0.012703	0.007563	0.009217	0.935620	0.352888
16750	9.217257	0.262718	3.494946	-0.019768	-0.033935	0.012299	-0.011346	-0.352050	0.935912	0.999889	-0.013065	0.007207	0.009690	0.935890	0.352159
16751	9.176883	0.230408	3.446043	-0.119759	-0.074540	0.001195	-0.011446	-0.350367	0.936542	0.999854	-0.015877	0.006280	0.012669	0.936478	0.350498
16752	9.236369	0.063195	3.366718	-0.017756	-0.046402	0.043368	-0.010451	-0.349355	0.936932	0.999859	-0.015933	0.005212	0.013107	0.936855	0.349472
16753	9.260128	0.057929	3.425570	0.050514	-0.012401	0.102091	-0.007966	-0.349152	0.937032	0.999898	-0.013891	0.003325	0.011855	0.936963	0.349227
16754	9.285237	0.153164	3.352186	-0.016953	-0.026343	0.080590	-0.006045	-0.348615	0.937247	0.999906	-0.013619	0.001384	0.012282	0.937167	0.348665
16755	9.325123	0.056606	3.355803	-0.117874	-0.080710	0.065112	-0.004541	-0.346801	0.937928	0.999874	-0.015859	-0.001023	0.015230	0.937805	0.346829
16756	9.304363	-0.019078	3.335408	-0.109833	-0.092585	0.045571	-0.003514	-0.344704	0.938705	0.999832	-0.018077	-0.002895	0.017967	0.938538	0.344709
16757	9.176700	0.084849	3.352930	-0.065524	-0.101101	0.043820	-0.002503	-0.342406	0.939549	0.999805	-0.019267	-0.004358	0.019594	0.939354	0.342388
16758	9.247928	0.086761	3.355528	-0.086124	-0.084535	0.074312	-0.000741	-0.340509	0.940241	0.999763	-0.020698	-0.006708	0.021745	0.940013	0.340443
16759	9.290447	-0.082276	3.300493	-0.148210	-0.053898	0.097024	0.001555	-0.339343	0.940661	0.999675	-0.023415	-0.010099	0.025453	0.940371	0.339197
16760	9.343603	-0.065682	3.250378	-0.045820	-0.014993	0.065876	0.003098	-0.339082	0.940752	0.999642	-0.023964	-0.011929	0.026589	0.940451	0.338887
16761	9.258371	-0.000267	3.268869	-0.055056	-0.033423	0.029834	0.003747	-0.338371	0.941005	0.999603	-0.025022	-0.012978	0.027938	0.940680	0.338143
16762	9.284364	-0.073617	3.263631	-0.048690	-0.049769	-0.019922	0.003166	-0.337251	0.941410	0.999571	-0.026333	-0.012795	0.029105	0.941047	0.337023
16763	9.316953	-0.059066	3.256825	-0.029769	-0.019531	-0.022765	0.002505	-0.336839	0.941559	0.999553	-0.027216	-0.012396	0.029801	0.941169	0.336620
16764	9.305591	-0.028378	3.299675	-0.024942	0.000435	0.006795	0.002573	-0.336913	0.941532	0.999535	-0.027748	-0.012660	0.030391	0.941127	0.336685
16765	9.340266	-0.104817	3.209776	-0.032131	-0.002349	0.017989	0.002918	-0.336928	0.941526	0.999510	-0.028360	-0.013247	0.031164	0.941103	0.336680
16766	9.245159	-0.074799	3.290106	0.034523	0.003529	0.014376	0.003198	-0.337080	0.941471	0.999537	-0.027423	-0.013214	0.030272	0.941077	0.336836
16767	9.299335	0.037019	3.330822	-0.050423	-0.001817	0.015395	0.003471	-0.337106	0.941460	0.999498	-0.028488	-0.013886	0.031501	0.941036	0.336837
16768	9.342523	-0.074179	3.227204	-0.118372	-0.004747	-0.014695	0.002965	-0.337043	0.941485	0.999403	-0.031403	-0.014389	0.034415	0.940965	0.336749
16769	9.304861	-0.115696	3.231627	-0.104730	-0.000538	0.019965	0.003328	-0.337102	0.941462	0.999310	-0.033716	-0.015605	0.037003	0.940864	0.336757
16770	9.264448	-0.066354	3.227279	-0.081662	-0.034214	0.071512	0.005015	-0.336408	0.941703	0.999225	-0.035072	-0.017851	0.039033	0.941063	0.335971
16771	9.341397	-0.055083	3.174153	0.010417	-0.094553	-0.054616	0.003643	-0.334200	0.942495	0.999244	-0.035260	-0.016365	0.038702	0.941842	0.333819
16772	9.356761	-0.194989	3.237490	0.005771	-0.042456	-0.034601	0.002724	-0.333232	0.942841	0.999255	-0.035395	-0.015396	0.038503	0.942180	0.332887
16773	9.355078	-0.101011	3.216359	0.029793	-0.035561	-0.008821	0.002453	-0.332446	0.943119	0.999286	-0.034756	-0.014850	0.037715	0.942482	0.332123
16774	9.298959	-0.012598	3.226043	-0.046759	-0.033832	0.022768	0.002938	-0.331723	0.943372	0.999241	-0.035680	-0.015658	0.038854	0.942702	0.331367
16775	9.320480	-0.022562	3.215364	-0.092175	-0.025190	0.019603	0.003318	-0.331202	0.943554	0.999148	-0.037707	-0.016749	0.041125	0.942806	0.330795
16776	9.348463	-0.056311	3.191833	-0.147091	-0.007620	-0.009066	0.002943	-0.331069	0.943602	0.998994	-0.041260	-0.017592	0.044757	0.942704	0.330615
16777	9.316054	-0.117900	3.172747	-0.050783	0.016670	-0.025977	0.002163	-0.331495	0.943455	0.998940	-0.042662	-0.017280	0.045978	0.942492	0.331051
16778	9.329161	-0.120910	3.193986	-0.015569	0.003336	-0.008341	0.001852	-0.331622	0.943411	0.998925	-0.043092	-0.017108	0.046326	0.942428	0.331185
16779	9.337010	-0.046986	3.245360	-0.102084	-0.002419	-0.035790	0.000824	-0.331584	0.943425	0.998807	-0.045788	-0.016965	0.048823	0.942314	0.331151
16780	9.259545	-0.039497	3.258518	-0.171030	0.006244	-0.064340	-0.000955	-0.331715	0.943379	0.998593	-0.050342	-0.016690	0.053028	0.942036	0.331296
16781	9.353008	-0.123004	3.209953	-0.232253	-0.010288	-0.080971	-0.003156	-0.331425	0.943476	0.998268	-0.056476	-0.016500	0.058753	0.941790	0.331029
16782	9.356879	-0.135744	3.116063	-0.176224	-0.017967	-0.036921	-0.004221	-0.331003	0.943620	0.997998	-0.060936	-0.016911	0.063098	0.941660	0.330597
16783	9.358940	-0.108658	3.074543	-0.051813	-0.005177	0.000111	-0.004325	-0.330934	0.943644	0.997918	-0.062156	-0.017224	0.064354	0.941605	0.330514
16784	9.322758	-0.063040	3.203018	-0.017209	0.005055	-0.022286	-0.004990	-0.331075	0.943591	0.997890	-0.062734	-0.016734	0.064735	0.941517	0.330689
16785	9.296987	-0.141940	3.206992	-0.054728	-0.003553	-0.025968	-0.005749	-0.331005	0.943612	0.997800	-0.064229	-0.016451	0.066052	0.941441	0.330646
16786	9.360479	-0.110021	3.176214	-0.011963	-0.011605	-0.021188	-0.006358	-0.330753	0.943696	0.997779	-0.064674	-0.015945	0.066306	0.941499	0.330430
16787	9.356140	-0.072783	3.156484	0.044652	-0.005568	0.019838	-0.005929	-0.330706	0.943715	0.997857	-0.063455	-0.015967	0.065164	0.941598	0.330373
16788	9.305927	-0.060722	3.200141	-0.038144	-0.020193	0.016013	-0.005609	-0.330305	0.943857	0.997798	-0.064228	-0.016547	0.066088	0.941686	0.329938
16789	9.329263	-0.073982	3.152012	-0.048161	-0.022488	0.002578	-0.005624	-0.329831	0.944023	0.997720	-0.065343	-0.016886	0.067255	0.941776	0.329446
16790	9.341147	-0.085930	3.147673	0.000278	-0.015879	0.005611	-0.005553	-0.329517	0.944133	0.997723	-0.065288	-0.016918	0.067215	0.941889	0.329130
16791	9.287030	-0.108286	3.107273	0.010635	-0.029812	-0.003368	-0.005680	-0.328862	0.944361	0.997743	-0.065058	-0.016654	0.066915	0.942134	0.328489
16792	9.336265	-0.172281	2.964558	0.201561	-0.050806	-0.028839	-0.006333	-0.327680	0.944767	0.998066	-0.060503	-0.014294	0.061845	0.942849	0.327430
16793	9.349607	-0.031311	3.118726	0.338213	-0.057420	-0.072041	-0.008006	-0.326292	0.945235	0.998544	-0.053037	-0.009851	0.053347	0.943780	0.326242
16794	9.362456	0.011067	3.143956	0.359696	-0.064921	-0.057725	-0.009318	-0.324755	0.945752	0.998974	-0.044941	-0.005590	0.044319	0.944730	0.324840
16795	9.385922	0.072334	3.183333	0.295213	-0.035189	-0.036244	-0.010160	-0.323947	0.946021	0.999267	-0.038202	-0.002349	0.036901	0.945303	0.324098
16796	9.386373	0.162246	3.128560	0.249944	-0.029905	-0.044320	-0.011234	-0.323263	0.946242	0.999468	-0.032597	0.000730	0.030609	0.945748	0.323457
16797	9.331678	0.118706	3.117841	0.131736	-0.044798	-0.024251	-0.011852	-0.322242	0.946583	0.999558	-0.029646	0.002423	0.027282	0.946193	0.322451
16798	9.426782	0.111477	3.116779	0.070926	-0.028754	-0.014033	-0.012252	-0.321607	0.946794	0.999600	-0.028062	0.003403	0.025474	0.946457	0.321822
16799	9.405374	0.038906	2.942884	0.117999	-0.003030	0.034436	-0.011434	-0.321608	0.946804	0.999681	-0.024986	0.003586	0.022503	0.946543	0.321791
16800	9.307390	0.055721	3.129885	0.264835	-0.041624	0.044398	-0.010292	-0.320696	0.947126	0.999821	-0.018340	0.004655	0.015877	0.947005	0.320827
16801	9.343516	0.177401	3.152462	0.185294	-0.040475	0.038382	-0.009340	-0.319801	0.947439	0.999893	-0.013632	0.005256	0.011234	0.947387	0.319895
16802	9.409864	0.150407	3.015295	0.151742	-0.026952	0.048747	-0.008149	-0.319225	0.947644	0.999939	-0.009643	0.005350	0.007430	0.947630	0.319284
16803	9.397324	0.135467	2.986801	0.151799	-0.016423	0.022474	-0.007617	-0.318891	0.947761	0.999964	-0.005851	0.006068	0.003611	0.947773	0.318924
16804	9.385930	0.071912	3.047249	0.256838	-0.034262	0.021243	-0.007075	-0.318131	0.948020	0.999971	0.000434	0.007609	-0.002832	0.948047	0.318118
16805	9.372634	0.146149	3.118940	0.207887	-0.010464	0.028467	-0.006373	-0.317930	0.948093	0.999947	0.005608	0.008602	-0.008052	0.948098	0.317877
16806	9.407205	0.071369	2.993815	0.211527	0.025131	0.015515	-0.005979	-0.318573	0.947880	0.999893	0.010773	0.009928	-0.013374	0.947837	0.318474
16807	9.343465	0.213830	3.095340	0.238703	0.015945	-0.005642	-0.006104	-0.319005	0.947733	0.999793	0.016424	0.011968	-0.019383	0.947611	0.318839
16808	9.387090	0.228765	3.066454	0.180640	-0.009625	-0.025109	-0.006756	-0.318844	0.947783	0.999690	0.020542	0.014036	-0.023944	0.947585	0.318606
16809	9.387763	0.255351	3.057476	0.107614	-0.034528	-0.028337	-0.007539	-0.318098	0.948028	0.999616	0.022895	0.015631	-0.026677	0.947781	0.317803
16810	9.367799	0.248278	3.039400	0.042823	-0.021086	0.002291	-0.007575	-0.317649	0.948178	0.999585	0.023937	0.016005	-0.027781	0.947906	0.317336
16811	9.374831	0.109430	2.998631	0.137064	-0.015832	0.004302	-0.007518	-0.317323	0.948288	0.999484	0.027240	0.017039	-0.031238	0.947926	0.316954
16812	9.393416	0.283413	3.052778	0.143464	0.008694	0.000923	-0.007519	-0.317580	0.948202	0.999364	0.030671	0.018198	-0.034862	0.947735	0.317147
16813	9.387415	0.301346	3.029568	0.001002	0.003777	-0.002747	-0.007678	-0.317725	0.948152	0.999360	0.030680	0.018373	-0.034927	0.947686	0.317286
16814	9.397339	0.223989	3.021727	-0.059107	-0.003589	0.013320	-0.007469	-0.317682	0.948168	0.999411	0.029377	0.017715	-0.033482	0.947742	0.317276
16815	9.315428	0.688732	3.243119	-0.142952	-0.006866	0.021707	-0.007088	-0.317556	0.948213	0.999527	0.026139	0.016226	-0.029938	0.947879	0.317220
16816	9.393762	-0.128072	2.860953	-0.239148	-0.051373	0.052110	-0.006025	-0.316356	0.948621	0.999695	0.020834	0.013298	-0.023971	0.948412	0.316134
16817	9.414567	0.135650	2.957507	-0.252637	-0.050761	0.042369	-0.005202	-0.315181	0.949017	0.999830	0.015131	0.010505	-0.017670	0.948911	0.315049
16818	9.409951	0.136372	2.964390	-0.214968	-0.021127	0.011285	-0.005117	-0.314726	0.949169	0.999911	0.010092	0.008736	-0.012328	0.949129	0.314647
16819	9.390759	0.241995	3.057979	-0.333345	-0.034451	0.022452	-0.004804	-0.313953	0.949426	0.999980	0.002309	0.005823	-0.004021	0.949436	0.313936
16820	9.368767	0.057766	3.005797	-0.378852	-0.059818	0.060486	-0.003555	-0.312577	0.949886	0.999979	-0.006281	0.001675	0.005443	0.949872	0.312592
16821	9.390291	-0.023009	2.891552	-0.234967	-0.029627	0.024272	-0.003141	-0.311922	0.950102	0.999931	-0.011706	-0.000538	0.011290	0.950035	0.311938
16822	9.405367	0.082782	2.961371	-0.191764	-0.015525	-0.005580	-0.003453	-0.311598	0.950208	0.999865	-0.016321	-0.001719	0.016044	0.950074	0.311613
16823	9.422105	-0.029693	2.879458	-0.163117	-0.019986	-0.006936	-0.003784	-0.311166	0.950348	0.999791	-0.020262	-0.002653	0.020081	0.950139	0.311178
16824	9.426942	0.035848	2.949461	-0.021191	0.000514	-0.008504	-0.004100	-0.311221	0.950329	0.999780	-0.020824	-0.002506	0.020569	0.950109	0.311238
16825	9.400855	0.050456	2.973726	-0.019308	0.016220	-0.010960	-0.004483	-0.311647	0.950187	0.999769	-0.021358	-0.002288	0.021007	0.949958	0.311670
16826	9.432511	0.084188	2.949767	-0.032651	0.015036	0.014871	-0.004226	-0.312055	0.950055	0.999754	-0.022020	-0.002786	0.021790	0.949809	0.312071
16827	9.374830	0.036272	3.008076	-0.067696	0.013414	0.010773	-0.004085	-0.312422	0.949935	0.999717	-0.023549	-0.003445	0.023447	0.949652	0.312429
16828	9.418831	-0.026006	2.933920	-0.052786	0.006094	-0.001537	-0.004244	-0.312609	0.949872	0.999685	-0.024814	-0.003700	0.024727	0.949558	0.312616
16829	9.419043	-0.005319	2.938532	0.031050	-0.003192	0.000914	-0.004301	-0.312578	0.949882	0.999705	-0.024061	-0.003391	0.023915	0.949587	0.312589
16830	9.381394	0.031650	2.999890	0.103042	0.007491	0.007499	-0.004167	-0.312803	0.949809	0.999764	-0.021537	-0.002707	0.021303	0.949574	0.312819
16831	9.376647	0.062734	2.984097	0.076305	0.000959	0.003014	-0.004153	-0.312871	0.949786	0.999804	-0.019686	-0.002113	0.019359	0.949591	0.312892
16832	9.431541	0.046087	2.957917	0.084275	-0.001038	-0.001641	-0.004252	-0.312890	0.949780	0.999843	-0.017678	-0.001348	0.017212	0.949625	0.312916
16833	9.398314	0.107731	3.041076	-0.000868	0.001308	0.014728	-0.003979	-0.312969	0.949755	0.999844	-0.017582	-0.001605	0.017201	0.949601	0.312990
16834	9.405761	0.064510	2.937306	-0.062902	0.008038	0.012014	-0.003803	-0.313206	0.949677	0.999817	-0.018988	-0.002259	0.018740	0.949495	0.313221
16835	9.406827	-0.009369	2.938886	0.028207	0.011564	0.001053	-0.003863	-0.313524	0.949572	0.999831	-0.018301	-0.001975	0.017997	0.949404	0.313541
16836	9.381622	0.040997	2.975711	0.077528	0.021172	0.006824	-0.003760	-0.314071	0.949392	0.999865	-0.016394	-0.001463	0.016023	0.949258	0.314090
16837	9.398186	0.074344	3.018067	0.012601	0.009890	0.013087	-0.003525	-0.314352	0.949300	0.999871	-0.015989	-0.001582	0.015675	0.949172	0.314367
16838	9.399993	0.042603	3.027685	-0.057522	0.006814	0.002742	-0.003577	-0.314555	0.949232	0.999848	-0.017332	-0.001976	0.017074	0.949081	0.314569
16839	9.378714	0.044526	2.979873	-0.057278	0.002217	-0.010590	-0.003960	-0.314645	0.949201	0.999822	-0.018769	-0.002051	0.018461	0.949024	0.314664
16840	9.449761	0.092827	2.992784	-0.052754	0.004618	-0.010390	-0.004339	-0.314791	0.949151	0.999796	-0.020100	-0.002096	0.019738	0.948948	0.314814
16841	9.428197	0.075019	2.994697	-0.088897	0.031537	0.010061	-0.004231	-0.315583	0.948889	0.999751	-0.022137	-0.002904	0.021922	0.948640	0.315598
16842	9.409574	0.076927	3.023392	-0.151676	0.039333	0.016389	-0.003997	-0.316562	0.948563	0.999662	-0.025618	-0.004337	0.025673	0.948226	0.316557
16843	9.370633	-0.022178	2.989738	-0.159047	0.023629	0.006888	-0.004001	-0.317163	0.948363	0.999553	-0.029351	-0.005599	0.029611	0.947917	0.317139
16844	9.376687	-0.061680	2.982698	-0.080159	0.030755	-0.028183	-0.004854	-0.317912	0.948108	0.999490	-0.031468	-0.005434	0.031562	0.947598	0.317902
16845	9.406284	0.052282	3.015912	-0.042568	0.037129	-0.042518	-0.006054	-0.318800	0.947803	0.999451	-0.032796	-0.004647	0.032566	0.947255	0.318823
16846	9.412770	0.062645	3.018464	-0.069164	0.021637	0.001323	-0.006159	-0.319350	0.947617	0.999394	-0.034424	-0.005106	0.034251	0.947012	0.319368
16847	9.408215	-0.064050	2.942098	0.090346	0.008911	0.049427	-0.004986	-0.319634	0.947528	0.999476	-0.031893	-0.005499	0.031978	0.947004	0.319625
16848	9.428885	-0.055616	2.963673	0.304268	0.049552	0.050190	-0.003726	-0.320877	0.947114	0.999696	-0.024262	-0.004287	0.024355	0.946810	0.320870
16849	9.335615	0.071668	3.139913	0.241688	0.075292	0.030209	-0.002993	-0.322710	0.946493	0.999828	-0.018273	-0.003069	0.018285	0.946321	0.322710
16850	9.325642	0.026266	3.148962	0.126396	0.133423	0.012395	-0.002762	-0.325907	0.945398	0.999882	-0.015163	-0.002306	0.015087	0.945280	0.325911
16851	9.357945	0.287464	3.134195	0.222992	0.159852	-0.040431	-0.003801	-0.329714	0.944073	0.999948	-0.010172	0.000473	0.009447	0.944026	0.329736
16852	9.329318	-0.176303	2.947402	0.088056	0.026012	0.034913	-0.002986	-0.330370	0.943847	0.999970	-0.007798	0.000434	0.007217	0.943819	0.330383
16853	9.373202	0.192332	3.164826	0.016059	0.006297	-0.000817	-0.003094	-0.330556	0.943781	0.999972	-0.007420	0.000680	0.006778	0.943757	0.330570
16854	9.358220	0.100610	3.134204	-0.002063	0.007159	0.006694	-0.003023	-0.330763	0.943709	0.999972	-0.007413	0.000606	0.006795	0.943685	0.330776
16855	9.355580	0.074728	3.122645	-0.003869	0.006210	0.005634	-0.002979	-0.330947	0.943645	0.999972	-0.007456	0.000542	0.006856	0.943620	0.330960
16856	9.359243	0.047785	3.140912	-0.001854	0.003705	0.005702	-0.002933	-0.331071	0.943601	0.999972	-0.007452	0.000493	0.006868	0.943576	0.331083
16857	9.336526	0.062253	3.131205	0.000065	0.003747	0.003354	-0.002943	-0.331196	0.943558	0.999972	-0.007419	0.000515	0.006830	0.943533	0.331208
16858	9.350051	0.057250	3.151518	-0.011074	0.006642	0.004028	-0.002942	-0.331388	0.943490	0.999971	-0.007644	0.000433	0.007069	0.943464	0.331401
16859	9.350910	0.085377	3.112445	-0.001647	0.001837	0.003732	-0.002943	-0.331467	0.943462	0.999971	-0.007649	0.000432	0.007074	0.943436	0.331480
16860	9.362108	0.087254	3.120267	-0.002083	0.002934	0.004062	-0.002937	-0.331571	0.943426	0.999971	-0.007662	0.000420	0.007089	0.943399	0.331584
16861	9.354879	0.079066	3.134693	-0.001899	0.002599	0.005962	-0.002883	-0.331668	0.943392	0.999971	-0.007655	0.000364	0.007101	0.943365	0.331680
16862	9.355114	0.047030	3.133904	-0.001168	0.001848	0.003146	-0.002899	-0.331746	0.943364	0.999971	-0.007653	0.000382	0.007093	0.943338	0.331758
16863	9.342766	0.052448	3.124737	-0.000806	0.004354	0.004992	-0.002868	-0.331883	0.943316	0.999971	-0.007627	0.000357	0.007076	0.943290	0.331895
16864	9.334055	0.063539	3.133903	-0.000299	0.001243	0.001510	-0.002924	-0.331946	0.943294	0.999971	-0.007616	0.000420	0.007045	0.943268	0.331959
16865	9.354161	0.075407	3.136923	-0.000024	0.001534	0.003872	-0.002922	-0.332016	0.943269	0.999971	-0.007581	0.000429	0.007008	0.943243	0.332028
16866	9.354404	0.095847	3.141186	0.000639	0.001210	0.005185	-0.002885	-0.332078	0.943248	0.999972	-0.007519	0.000412	0.006956	0.943222	0.332090
16867	9.355028	0.085213	3.144173	-0.002609	0.001819	0.004908	-0.002858	-0.332154	0.943221	0.999972	-0.007537	0.000375	0.006984	0.943195	0.332166
16868	9.364148	0.062639	3.138629	-0.000459	0.001044	0.005179	-0.002822	-0.332211	0.943201	0.999972	-0.007501	0.000350	0.006959	0.943175	0.332223
16869	9.357025	0.054663	3.152683	-0.001122	0.001369	0.003866	-0.002820	-0.332276	0.943178	0.999972	-0.007492	0.000350	0.006950	0.943153	0.332288
16870	9.345590	0.050806	3.145609	-0.000686	0.000272	0.003536	-0.002825	-0.332314	0.943164	0.999972	-0.007475	0.000362	0.006930	0.943139	0.332326
16871	9.350408	0.084774	3.124090	-0.001076	0.000889	0.004586	-0.002804	-0.332367	0.943146	0.999972	-0.007458	0.000345	0.006919	0.943121	0.332379
16872	9.352179	0.086870	3.133416	0.000617	0.000156	0.000594	-0.002883	-0.332402	0.943133	0.999972	-0.007434	0.000437	0.006866	0.943108	0.332415
16873	9.352038	0.086218	3.133852	-0.001994	0.003564	0.004526	-0.002865	-0.332518	0.943093	0.999972	-0.007440	0.000414	0.006879	0.943068	0.332530
16874	9.351497	0.063553	3.130485	-0.001603	0.001360	0.004454	-0.002848	-0.332581	0.943070	0.999972	-0.007437	0.000397	0.006882	0.943045	0.332593
16875	9.351354	0.062418	3.130935	-0.001559	0.002467	0.004197	-0.002837	-0.332670	0.943039	0.999972	-0.007436	0.000385	0.006884	0.943014	0.332682
16876	9.353730	0.054754	3.143236	-0.000026	0.001536	0.003874	-0.002834	-0.332736	0.943016	0.999973	-0.007400	0.000394	0.006847	0.942991	0.332748
16877	9.355425	0.056697	3.152783	-0.000163	0.001390	0.002693	-0.002860	-0.332799	0.942993	0.999973	-0.007377	0.000429	0.006814	0.942969	0.332811
16878	9.343572	0.083902	3.147213	-0.001169	0.001851	0.003148	-0.002875	-0.332873	0.942967	0.999973	-0.007374	0.000446	0.006805	0.942943	0.332885
16879	9.369616	0.090178	3.130032	-0.001033	0.001997	0.004330	-0.002861	-0.332949	0.942940	0.999973	-0.007358	0.000435	0.006794	0.942916	0.332961
16880	9.349973	0.067013	3.130379	-0.000851	0.001664	0.006231	-0.002799	-0.333018	0.942916	0.999973	-0.007324	0.000382	0.006779	0.942892	0.333029
16881	9.352342	0.058950	3.142695	-0.002040	0.002459	0.004786	-0.002774	-0.333105	0.942886	0.999973	-0.007329	0.000352	0.006793	0.942861	0.333116
16882	9.342670	0.057682	3.144949	-0.000689	0.000274	0.003538	-0.002779	-0.333140	0.942873	0.999973	-0.007312	0.000364	0.006773	0.942849	0.333151
16883	9.344409	0.059416	3.154365	-0.000507	0.001527	0.004463	-0.002761	-0.333205	0.942851	0.999973	-0.007283	0.000354	0.006749	0.942826	0.333216
16884	9.351372	0.065321	3.140887	-0.000118	0.000910	0.003413	-0.002769	-0.333254	0.942833	0.999974	-0.007254	0.000373	0.006715	0.942809	0.333266
16885	9.359435	0.083365	3.133970	-0.001125	0.001372	0.003869	-0.002766	-0.333315	0.942812	0.999974	-0.007245	0.000372	0.006706	0.942788	0.333326
16886	9.340863	0.072479	3.140910	-0.002041	0.002461	0.004787	-0.002741	-0.333400	0.942781	0.999974	-0.007251	0.000343	0.006721	0.942757	0.333411
16887	9.351735	0.052820	3.144609	-0.001216	0.000746	0.003407	-0.002749	-0.333445	0.942765	0.999974	-0.007245	0.000353	0.006713	0.942742	0.333456
16888	9.350943	0.061124	3.142249	-0.000989	0.001519	0.005051	-0.002716	-0.333508	0.942743	0.999974	-0.007223	0.000325	0.006701	0.942719	0.333519
16889	9.349425	0.078890	3.137321	-0.001261	0.001226	0.002687	-0.002743	-0.333564	0.942723	0.999974	-0.007227	0.000352	0.006696	0.942700	0.333575
16890	9.350037	0.068651	3.140252	-0.001125	0.001373	0.003870	-0.002739	-0.333623	0.942703	0.999974	-0.007216	0.000351	0.006685	0.942679	0.333634
16891	9.349253	0.077176	3.137878	-0.000735	0.000755	0.002820	-0.002762	-0.333667	0.942687	0.999974	-0.007206	0.000379	0.006667	0.942663	0.333678
16892	9.343237	0.081615	3.158397	-0.001216	0.000746	0.003407	-0.002770	-0.333711	0.942671	0.999974	-0.007203	0.000389	0.006660	0.942648	0.333722
16893	9.342055	0.068537	3.152082	-0.000509	0.001529	0.004464	-0.002752	-0.333773	0.942650	0.999974	-0.007174	0.000379	0.006636	0.942626	0.333784
16894	9.338359	0.061994	3.133953	-0.001081	0.000893	0.004590	-0.002731	-0.333820	0.942633	0.999974	-0.007158	0.000362	0.006626	0.942610	0.333831
16895	9.339396	0.073104	3.140747	-0.000119	0.000911	0.003415	-0.002738	-0.333866	0.942616	0.999975	-0.007126	0.000380	0.006590	0.942593	0.333877
16896	9.329742	0.072028	3.142943	-0.001126	0.001374	0.003870	-0.002735	-0.333924	0.942596	0.999975	-0.007120	0.000380	0.006585	0.942573	0.333935
16897	9.346317	0.078068	3.127468	-0.000074	0.000431	0.004134	-0.002724	-0.333959	0.942584	0.999975	-0.007081	0.000381	0.006548	0.942561	0.333970
16898	9.345856	0.055398	3.123702	-0.003186	0.001193	0.005039	-0.002692	-0.334012	0.942565	0.999975	-0.007111	0.000336	0.006590	0.942542	0.334022
16899	9.339824	0.059397	3.144272	-0.001698	0.000739	0.003996	-0.002685	-0.334054	0.942550	0.999975	-0.007113	0.000328	0.006594	0.942527	0.334064
16900	9.350426	0.070717	3.149179	-0.000645	0.001383	0.003283	-0.002696	-0.334110	0.942530	0.999975	-0.007095	0.000345	0.006572	0.942507	0.334121
16901	9.360180	0.039043	3.146237	-0.001608	0.001366	0.004459	-0.002677	-0.334166	0.942510	0.999975	-0.007089	0.000326	0.006573	0.942487	0.334177
16902	9.354839	0.082215	3.124110	-0.000692	0.000277	0.003540	-0.002681	-0.334197	0.942500	0.999975	-0.007071	0.000337	0.006552	0.942477	0.334207
16903	9.347039	0.083866	3.135366	-0.001218	0.000748	0.003409	-0.002688	-0.334238	0.942485	0.999975	-0.007067	0.000346	0.006544	0.942462	0.334248
16904	9.345858	0.070793	3.129013	-0.002225	0.001212	0.003865	-0.002686	-0.334289	0.942467	0.999975	-0.007085	0.000337	0.006565	0.942444	0.334300
16905	9.348256	0.062949	3.141164	-0.000992	0.001523	0.005055	-0.002652	-0.334348	0.942446	0.999975	-0.007060	0.000309	0.006551	0.942423	0.334359
16906	9.341819	0.045656	3.157716	-0.002407	-0.000042	0.002939	-0.002673	-0.334370	0.942438	0.999975	-0.007093	0.000320	0.006578	0.942415	0.334380
16907	9.345619	0.067481	3.129798	-0.002044	0.002466	0.004792	-0.002646	-0.334450	0.942410	0.999975	-0.007096	0.000290	0.006591	0.942387	0.334461
16908	9.339538	0.071550	3.150518	-0.001700	0.000741	0.003997	-0.002640	-0.334490	0.942396	0.999975	-0.007099	0.000281	0.006596	0.942373	0.334500
16909	9.347235	0.068114	3.139617	-0.001263	0.001229	0.002690	-0.002665	-0.334541	0.942377	0.999975	-0.007102	0.000307	0.006590	0.942354	0.334551
16910	9.347132	0.067208	3.139941	-0.000511	0.001532	0.004468	-0.002646	-0.334599	0.942357	0.999975	-0.007074	0.000297	0.006567	0.942334	0.334609
16911	9.346363	0.075603	3.137590	-0.001219	0.000750	0.003410	-0.002655	-0.334638	0.942343	0.999975	-0.007074	0.000306	0.006563	0.942320	0.334648
16912	9.355809	0.074896	3.136064	0.000017	0.002648	0.003624	-0.002659	-0.334721	0.942313	0.999975	-0.007044	0.000319	0.006530	0.942291	0.334732
16913	9.343636	0.080330	3.126518	-0.001040	0.000417	0.005313	-0.002618	-0.334752	0.942303	0.999975	-0.007020	0.000285	0.006520	0.942280	0.334762
16914	9.357464	0.075491	3.145772	-0.000738	0.000758	0.002822	-0.002640	-0.334791	0.942289	0.999975	-0.007008	0.000311	0.006500	0.942266	0.334801
16915	9.348545	0.065106	3.150418	-0.001792	0.000115	0.003535	-0.002644	-0.334814	0.942281	0.999975	-0.007016	0.000313	0.006506	0.942258	0.334824
16916	9.347111	0.082799	3.145413	-0.002136	0.001842	0.004330	-0.002630	-0.334877	0.942258	0.999975	-0.007031	0.000293	0.006527	0.942236	0.334887
16917	9.356190	0.060421	3.139694	-0.001266	-0.000357	0.003667	-0.002631	-0.334889	0.942254	0.999975	-0.007025	0.000295	0.006521	0.942231	0.334899
16918	9.344109	0.066062	3.129875	-0.002361	0.001068	0.002684	-0.002656	-0.334934	0.942238	0.999975	-0.007052	0.000312	0.006540	0.942215	0.334944
16919	9.348283	0.061124	3.151273	-0.001038	0.002005	0.004338	-0.002641	-0.335001	0.942214	0.999975	-0.007037	0.000301	0.006529	0.942191	0.335011
16920	9.339710	0.072006	3.160185	-0.001129	0.001378	0.003875	-0.002636	-0.335053	0.942196	0.999975	-0.007027	0.000299	0.006521	0.942173	0.335063
16921	9.347463	0.068580	3.149120	-0.000260	-0.000821	0.003211	-0.002648	-0.335053	0.942196	0.999975	-0.007001	0.000320	0.006489	0.942173	0.335063
16922	9.353901	0.083844	3.132709	-0.000560	0.000426	0.004727	-0.002621	-0.335082	0.942185	0.999976	-0.006968	0.000303	0.006463	0.942163	0.335092
16923	9.346752	0.075891	3.146652	-0.002227	0.001216	0.003868	-0.002617	-0.335130	0.942168	0.999976	-0.006984	0.000293	0.006482	0.942146	0.335140
16924	9.346201	0.053300	3.142980	-0.001611	0.001371	0.004464	-0.002601	-0.335180	0.942150	0.999976	-0.006989	0.000274	0.006493	0.942128	0.335190
16925	9.344771	0.070993	3.138016	-0.000604	0.000907	0.004007	-0.002591	-0.335220	0.942136	0.999976	-0.006962	0.000273	0.006467	0.942114	0.335230
16926	9.354268	0.070200	3.136346	-0.001746	0.001224	0.003280	-0.002601	-0.335267	0.942119	0.999976	-0.006970	0.000281	0.006472	0.942097	0.335277
16927	9.336177	0.081125	3.147034	-0.000122	0.000915	0.003419	-0.002609	-0.335307	0.942105	0.999976	-0.006942	0.000298	0.006440	0.942083	0.335317
16928	9.333575	0.086946	3.135607	-0.001082	0.002487	0.003620	-0.002610	-0.335383	0.942078	0.999976	-0.006932	0.000303	0.006429	0.942056	0.335393
16929	9.345521	0.079586	3.145838	-0.000214	0.000287	0.002956	-0.002628	-0.335408	0.942069	0.999976	-0.006909	0.000330	0.006398	0.942048	0.335418
16930	9.343233	0.054455	3.132712	-0.001660	0.000265	0.004721	-0.002602	-0.335431	0.942061	0.999976	-0.006902	0.000304	0.006400	0.942039	0.335441
16931	9.353824	0.065594	3.137768	-0.001608	0.002960	0.003489	-0.002607	-0.335518	0.942030	0.999976	-0.006906	0.000307	0.006403	0.942008	0.335528
16932	9.343463	0.073922	3.137454	-0.000696	0.000280	0.003544	-0.002609	-0.335542	0.942022	0.999976	-0.006885	0.000317	0.006380	0.942000	0.335552
16933	9.354789	0.075867	3.144925	-0.001747	0.001226	0.003281	-0.002617	-0.335588	0.942005	0.999976	-0.006887	0.000324	0.006378	0.941984	0.335598
16934	9.352226	0.081434	3.133406	-0.002095	0.001366	0.005054	-0.002580	-0.335637	0.941988	0.999976	-0.006881	0.000287	0.006386	0.941966	0.335646
16935	9.346893	0.076314	3.156484	-0.000305	-0.000340	0.002492	-0.002609	-0.335645	0.941985	0.999976	-0.006862	0.000325	0.006355	0.941964	0.335655
16936	9.343248	0.069954	3.138182	-0.002095	0.001367	0.005054	-0.002574	-0.335694	0.941968	0.999976	-0.006861	0.000287	0.006366	0.941946	0.335703
16937	9.350924	0.066191	3.127358	-0.002229	0.001219	0.003870	-0.002567	-0.335738	0.941952	0.999976	-0.006871	0.000276	0.006380	0.941930	0.335748
16938	9.350180	0.074588	3.125015	0.000492	0.001070	0.004016	-0.002556	-0.335780	0.941937	0.999977	-0.006814	0.000284	0.006323	0.941916	0.335789
16939	9.342958	0.066755	3.139117	-0.001040	0.002009	0.004342	-0.002538	-0.335843	0.941915	0.999977	-0.006794	0.000272	0.006308	0.941894	0.335852
16940	9.354235	0.068676	3.146738	-0.000740	0.000761	0.002825	-0.002557	-0.335876	0.941903	0.999977	-0.006779	0.000297	0.006285	0.941882	0.335885
16941	9.361907	0.065261	3.135916	-0.001657	0.001855	0.003747	-0.002558	-0.335935	0.941882	0.999977	-0.006788	0.000294	0.006295	0.941861	0.335944
16942	9.355189	0.079027	3.153955	-0.000740	0.000761	0.002826	-0.002578	-0.335968	0.941870	0.999977	-0.006774	0.000320	0.006272	0.941849	0.335978
16943	9.342569	0.063308	3.140347	-0.002273	0.001701	0.003151	-0.002595	-0.336022	0.941850	0.999977	-0.006806	0.000326	0.006301	0.941829	0.336032
16944	9.343645	0.074573	3.147183	-0.000215	0.000289	0.002957	-0.002610	-0.336044	0.941843	0.999977	-0.006775	0.000354	0.006262	0.941822	0.336054
16945	9.341724	0.071150	3.138331	0.001113	0.002813	0.003637	-0.002608	-0.336125	0.941814	0.999977	-0.006710	0.000375	0.006194	0.941794	0.336135
16946	9.331349	0.079616	3.138090	-0.002364	0.001074	0.002687	-0.002632	-0.336164	0.941800	0.999977	-0.006735	0.000391	0.006212	0.941779	0.336174
16947	9.358828	0.066904	3.126051	-0.000999	0.001531	0.005064	-0.002597	-0.336215	0.941782	0.999977	-0.006711	0.000362	0.006198	0.941761	0.336224
16948	9.337790	0.062874	3.120935	-0.001223	0.000755	0.003415	-0.002605	-0.336246	0.941771	0.999977	-0.006713	0.000370	0.006198	0.941750	0.336256
16949	9.343171	0.069959	3.148698	-0.001181	0.000276	0.004135	-0.002594	-0.336266	0.941764	0.999977	-0.006703	0.000361	0.006191	0.941743	0.336276
16950	9.343117	0.069065	3.148877	-0.001266	0.001236	0.002695	-0.002619	-0.336308	0.941748	0.999977	-0.006708	0.000385	0.006188	0.941728	0.336318
16951	9.350814	0.065697	3.137984	-0.001224	0.000756	0.003415	-0.002628	-0.336339	0.941737	0.999977	-0.006712	0.000393	0.006188	0.941717	0.336349
16952	9.338700	0.071543	3.128345	0.000931	0.001558	0.002710	-0.002654	-0.336389	0.941719	0.999978	-0.006670	0.000435	0.006135	0.941699	0.336399
16953	9.331967	0.085306	3.146455	0.000099	0.001693	0.005072	-0.002618	-0.336442	0.941700	0.999978	-0.006621	0.000415	0.006095	0.941681	0.336452
16954	9.360094	0.063104	3.137008	-0.001707	0.000750	0.004004	-0.002611	-0.336473	0.941690	0.999978	-0.006625	0.000405	0.006102	0.941670	0.336483
16955	9.344499	0.067237	3.159440	-0.001224	0.000757	0.003416	-0.002615	-0.336503	0.941679	0.999978	-0.006615	0.000413	0.006090	0.941659	0.336513
16956	9.340185	0.070405	3.138599	-0.000126	0.000917	0.003423	-0.002623	-0.336538	0.941666	0.999978	-0.006591	0.000430	0.006062	0.941647	0.336547
16957	9.352149	0.062974	3.148707	-0.001224	0.000757	0.003416	-0.002630	-0.336568	0.941656	0.999978	-0.006589	0.000438	0.006058	0.941636	0.336578
16958	9.360376	0.080801	3.141792	-0.000476	0.001060	0.005197	-0.002594	-0.336604	0.941643	0.999978	-0.006564	0.000409	0.006043	0.941623	0.336614
16959	9.347730	0.065014	3.128209	-0.001309	0.001717	0.001975	-0.002637	-0.336657	0.941624	0.999978	-0.006575	0.000450	0.006040	0.941605	0.336667
16960	9.341044	0.078877	3.146194	-0.000084	0.000438	0.004144	-0.002623	-0.336679	0.941616	0.999979	-0.006532	0.000450	0.005999	0.941597	0.336689
16961	9.349407	0.066166	3.137838	-0.002498	0.000929	0.001504	-0.002673	-0.336713	0.941604	0.999978	-0.006562	0.000492	0.006013	0.941585	0.336723
16962	9.351095	0.067980	3.147418	-0.000427	0.002167	0.004942	-0.002641	-0.336775	0.941581	0.999979	-0.006528	0.000470	0.005988	0.941562	0.336786
16963	9.348497	0.073456	3.136085	-0.001526	0.002007	0.004935	-0.002612	-0.336834	0.941561	0.999979	-0.006526	0.000439	0.005996	0.941542	0.336844
16964	9.349650	0.053676	3.141681	-0.001267	0.001238	0.002696	-0.002639	-0.336874	0.941546	0.999979	-0.006538	0.000463	0.006000	0.941527	0.336884
16965	9.349497	0.083764	3.143237	-0.001317	0.000130	0.002952	-0.002656	-0.336888	0.941541	0.999979	-0.006537	0.000481	0.005993	0.941522	0.336898
16966	9.346457	0.068159	3.127631	-0.002275	0.001706	0.003154	-0.002671	-0.336939	0.941523	0.999978	-0.006567	0.000486	0.006019	0.941504	0.336949
16967	9.357188	0.079462	3.132398	0.000873	-0.001136	0.003943	-0.002662	-0.336923	0.941529	0.999979	-0.006507	0.000499	0.005959	0.941510	0.336933
16968	9.346444	0.066308	3.127710	-0.002234	0.001226	0.003875	-0.002656	-0.336962	0.941514	0.999979	-0.006522	0.000487	0.005977	0.941496	0.336972
16969	9.348700	0.089367	3.141221	-0.002234	0.001227	0.003875	-0.002645	-0.337002	0.941500	0.999979	-0.006521	0.000475	0.005980	0.941481	0.337012
16970	9.349892	0.069685	3.146668	-0.000743	0.000765	0.002829	-0.002665	-0.337030	0.941490	0.999979	-0.006510	0.000500	0.005960	0.941471	0.337040
16971	9.355848	0.063604	3.126377	-0.001276	-0.000348	0.003673	-0.002664	-0.337032	0.941490	0.999979	-0.006504	0.000501	0.005954	0.941471	0.337042
16972	9.341451	0.079869	3.155344	-0.001751	0.001233	0.003286	-0.002676	-0.337070	0.941476	0.999979	-0.006521	0.000507	0.005968	0.941457	0.337080
16973	9.336611	0.061552	3.130479	-0.000702	0.000285	0.003549	-0.002678	-0.337086	0.941470	0.999979	-0.006503	0.000516	0.005949	0.941451	0.337097
16974	9.361779	0.059570	3.157022	-0.001842	0.000605	0.002822	-0.002700	-0.337110	0.941461	0.999979	-0.006522	0.000532	0.005961	0.941443	0.337120
16975	9.350854	0.077422	3.154014	-0.001177	0.001867	0.003163	-0.002713	-0.337163	0.941443	0.999979	-0.006524	0.000545	0.005958	0.941424	0.337173
16976	9.342415	0.057573	3.161493	-0.002235	0.001228	0.003876	-0.002710	-0.337200	0.941429	0.999978	-0.006547	0.000533	0.005984	0.941410	0.337211
16977	9.348833	0.072617	3.145488	-0.001004	0.001536	0.005070	-0.002674	-0.337246	0.941413	0.999979	-0.006524	0.000503	0.005972	0.941394	0.337256
16978	9.348769	0.071630	3.145703	-0.000219	0.000291	0.002961	-0.002686	-0.337262	0.941407	0.999979	-0.006487	0.000529	0.005929	0.941389	0.337272
16979	9.337995	0.058397	3.141063	-0.002153	0.000270	0.005318	-0.002643	-0.337277	0.941402	0.999979	-0.006487	0.000483	0.005944	0.941383	0.337288
16980	9.354021	0.073599	3.123079	-0.001177	0.001868	0.003164	-0.002656	-0.337330	0.941383	0.999979	-0.006487	0.000497	0.005939	0.941364	0.337340
16981	9.348569	0.068405	3.146367	-0.000480	0.001063	0.005202	-0.002615	-0.337364	0.941371	0.999979	-0.006447	0.000468	0.005911	0.941352	0.337374
16982	9.358077	0.067389	3.144693	-0.000612	0.000915	0.004016	-0.002607	-0.337393	0.941360	0.999979	-0.006430	0.000465	0.005896	0.941342	0.337403
16983	9.353743	0.070526	3.123983	-0.001177	0.001868	0.003164	-0.002619	-0.337446	0.941341	0.999979	-0.006428	0.000478	0.005889	0.941323	0.337455
16984	9.347655	0.074853	3.144707	-0.001137	0.001389	0.003885	-0.002612	-0.337486	0.941327	0.999979	-0.006416	0.000474	0.005880	0.941309	0.337496
16985	9.336167	0.070774	3.137738	-0.001972	0.001528	0.006250	-0.002548	-0.337530	0.941311	0.999979	-0.006412	0.000408	0.005898	0.941293	0.337539
16986	9.336108	0.069834	3.137935	0.000132	0.000149	0.001186	-0.002605	-0.337542	0.941307	0.999980	-0.006384	0.000478	0.005848	0.941289	0.337551
16987	9.340297	0.065157	3.159097	-0.000613	0.000915	0.004017	-0.002595	-0.337571	0.941296	0.999980	-0.006358	0.000476	0.005824	0.941279	0.337581
16988	9.338438	0.092362	3.151362	-0.001279	-0.000346	0.003675	-0.002595	-0.337570	0.941297	0.999980	-0.006359	0.000476	0.005825	0.941279	0.337580
16989	9.356363	0.079472	3.141078	-0.000522	0.001544	0.004483	-0.002576	-0.337614	0.941281	0.999980	-0.006339	0.000463	0.005810	0.941263	0.337623
16990	9.346655	0.078193	3.143400	-0.001530	0.002014	0.004941	-0.002546	-0.337668	0.941262	0.999980	-0.006337	0.000431	0.005819	0.941244	0.337677
16991	9.347202	0.067724	3.146215	-0.000180	-0.000187	0.003683	-0.002545	-0.337671	0.941261	0.999980	-0.006307	0.000441	0.005788	0.941243	0.337681
16992	9.358509	0.069366	3.153783	-0.003154	0.002330	0.004803	-0.002519	-0.337733	0.941238	0.999980	-0.006344	0.000399	0.005836	0.941220	0.337743
16993	9.344006	0.081505	3.132360	-0.001189	0.000283	0.004142	-0.002508	-0.337747	0.941234	0.999980	-0.006338	0.000390	0.005834	0.941216	0.337756
16994	9.355916	0.073793	3.142546	-0.001047	0.002019	0.004353	-0.002486	-0.337802	0.941214	0.999980	-0.006312	0.000376	0.005814	0.941196	0.337811
