// General information: 
//  MT Manager version: 2019.2.0 
//  XDA version: 2019.2.0 build 3853 rev 94535 built on 2019-09-09
// Device information: 
//  DeviceId: 00B43F80
//  ProductCode: MTW2-3A7G6
//  Firmware Version: 4.3.5
//  Hardware Version: 1.1.0
// Device settings: 
//  Filter Profile: human(46.1)
//  Option Flags: Orientation Smoother Disabled, AHS Disabled, ICC Disabled
// Coordinate system: ENU
PacketCounter	Acc_X	Acc_Y	Acc_Z	Gyr_X	Gyr_Y	Gyr_Z
37491	9.758781	0.191596	-0.253253	0.004088	0.000158	0.003679
37492	9.722775	0.165792	-0.212734	0.003247	-0.001340	0.009744
37493	9.851098	0.168919	-0.302076	0.003247	-0.001340	0.009744
37494	9.835871	0.193280	-0.256316	0.005719	-0.004420	0.003968
37495	9.848528	0.216724	-0.304066	0.004528	0.000137	0.000658
37496	9.761936	0.261596	-0.279498	0.004047	0.001700	0.003655
37497	9.834604	0.216652	-0.257186	0.005197	-0.001316	0.006943
37498	9.805563	0.190506	-0.240130	0.003688	-0.001361	0.006723
37499	9.808136	0.141163	-0.238632	0.005337	0.001756	0.005385
37500	9.758863	0.186570	-0.253840	0.004047	0.001700	0.003655
37501	9.782236	0.187578	-0.246816	0.002358	0.000124	0.004970
37502	9.812581	0.188011	-0.263336	0.003467	-0.001350	0.008234
37503	9.806996	0.112006	-0.314962	0.005197	-0.001315	0.006943
37504	9.838510	0.139404	-0.255102	0.005597	0.000204	0.003898
37505	9.806909	0.162236	-0.239460	0.003908	-0.001372	0.005213
37506	9.782282	0.184728	-0.247141	0.004048	0.001700	0.003655
37507	9.753231	0.158536	-0.229922	0.004536	-0.001281	0.011474
37508	9.868876	0.137905	-0.271731	0.003688	-0.001360	0.006723
37509	9.808210	0.135369	-0.238959	0.007587	-0.001316	0.001120
37510	9.812652	0.183510	-0.263855	0.002539	0.001654	0.003436
37511	9.797534	0.156916	-0.293350	0.003868	0.000170	0.005189
37512	9.813937	0.157966	-0.263078	0.003247	-0.001337	0.009744
37513	9.815208	0.132779	-0.262458	0.003687	-0.001360	0.006723
37514	9.798751	0.181882	-0.217252	0.004528	0.000135	0.000658
37515	9.796240	0.230402	-0.218614	0.004008	0.003241	0.003631
37516	9.774151	0.204034	-0.224633	0.001918	0.000148	0.007991
37517	9.804499	0.204271	-0.241228	0.005016	-0.002844	0.008477
37518	9.827875	0.204997	-0.234429	0.005377	0.000215	0.005408
37519	9.818458	0.202382	-0.288225	0.002618	-0.001428	0.003483
37520	9.810242	0.226706	-0.265663	0.002358	0.000125	0.004970
37521	9.811505	0.201829	-0.264891	0.003868	0.000170	0.005189
37522	9.807048	0.152937	-0.239878	0.005338	0.001756	0.005384
37523	9.815277	0.127609	-0.262420	0.000629	0.000093	0.006261
37524	9.815285	0.127054	-0.262411	0.002358	0.000125	0.004970
37525	9.774280	0.147842	-0.300591	0.005897	-0.002892	0.002436
37526	9.816532	0.101774	-0.261997	0.003467	-0.001347	0.008234
37527	9.816539	0.101119	-0.261984	0.002319	0.001667	0.004945
37528	9.823516	0.100216	-0.285290	0.005377	0.000215	0.005408
37529	9.790705	0.147474	-0.270364	0.004088	0.000158	0.003678
37530	9.782502	0.171725	-0.247808	0.002177	-0.001403	0.006505
37531	9.797668	0.197336	-0.218313	0.010126	0.000336	0.004555
37532	9.836219	0.173084	-0.257377	0.005378	0.000215	0.005408
37533	9.803426	0.220231	-0.242388	0.000590	0.001635	0.006236
37534	9.795235	0.244417	-0.219763	0.005416	-0.001326	0.005433
37535	9.809186	0.243095	-0.266621	0.003868	0.000171	0.005189
37536	9.840765	0.219137	-0.282366	0.003687	-0.001358	0.006724
37537	9.836270	0.170137	-0.257400	0.002099	0.001680	0.006455
37538	9.829314	0.170005	-0.233843	0.007068	0.001788	0.004092
37539	9.782590	0.166748	-0.247707	0.002397	-0.001415	0.004994
37540	9.807189	0.143283	-0.240053	0.002358	0.000126	0.004970
37541	9.822362	0.117677	-0.285973	0.004049	0.001699	0.003654
37542	9.829338	0.116752	-0.309356	0.003686	-0.001358	0.006724
37543	9.822371	0.116646	-0.286102	0.002617	-0.001427	0.003484
37544	9.790819	0.139606	-0.270421	0.002320	0.001668	0.004945
37545	9.819943	0.164372	-0.287655	0.005196	-0.001314	0.006943
37546	9.812982	0.164159	-0.264323	0.005378	0.000215	0.005408
37547	9.828170	0.189899	-0.234773	0.001069	0.000070	0.003240
37548	9.782662	0.162313	-0.247847	0.005378	0.000215	0.005408
37549	9.832727	0.237189	-0.259807	0.003686	-0.001357	0.006724
37550	9.811802	0.186464	-0.265150	0.003830	0.001712	0.005164
37551	9.819997	0.161086	-0.287665	0.003648	0.000184	0.006699
37552	9.811827	0.185279	-0.265053	0.003868	0.000171	0.005189
37553	9.811836	0.184833	-0.265045	0.004088	0.000158	0.003678
37554	9.795489	0.233955	-0.219839	0.005378	0.000215	0.005408
37555	9.804889	0.184067	-0.241629	0.000188	0.000123	0.009282
37556	9.813077	0.158460	-0.264288	0.006705	-0.001270	0.007163
37557	9.836453	0.159296	-0.257340	0.004050	0.001699	0.003653
37558	9.804924	0.182279	-0.241597	0.002359	0.000127	0.004970
37559	9.811902	0.181260	-0.265056	0.005195	-0.001313	0.006943
37560	9.797910	0.130104	-0.293922	0.003906	-0.001370	0.005214
37561	9.814315	0.131301	-0.263654	0.005158	0.000228	0.006918
37562	9.837694	0.132161	-0.256555	0.002503	0.003197	0.003408
37563	9.782805	0.153708	-0.247676	0.003648	0.000185	0.006699
37564	9.806175	0.154561	-0.240956	0.004202	-0.004466	0.003755
37565	9.813148	0.153519	-0.264564	0.004938	0.000242	0.008428
37566	9.806193	0.153214	-0.241081	0.002101	0.001683	0.006454
37567	9.795583	0.174764	-0.295603	0.003906	-0.001370	0.005214
37568	9.813177	0.151752	-0.264530	0.004088	0.000157	0.003678
37569	9.805028	0.176117	-0.241936	0.003868	0.000171	0.005189
37570	9.810822	0.199532	-0.266056	0.003831	0.001713	0.005163
37571	9.796899	0.199735	-0.219256	0.004975	-0.001299	0.008454
37572	9.817814	0.197889	-0.289505	0.002799	0.000100	0.001949
37573	9.803883	0.198253	-0.242859	0.005012	-0.002840	0.008480
37574	9.787494	0.195791	-0.273253	0.000812	0.001627	0.004725
37575	9.834244	0.198024	-0.259300	0.003868	0.000171	0.005188
37576	9.819031	0.171397	-0.288804	0.004088	0.000157	0.003678
37577	9.812070	0.171399	-0.265401	0.003868	0.000171	0.005188
37578	9.759550	0.144151	-0.255046	0.005158	0.000229	0.006918
37579	9.836635	0.147037	-0.257698	0.001956	-0.001384	0.008016
37580	9.798045	0.118829	-0.294203	0.005378	0.000214	0.005407
37581	9.821421	0.119639	-0.287254	0.005378	0.000214	0.005407
37582	9.789917	0.142737	-0.271682	0.002836	-0.001441	0.001975
37583	9.805152	0.168634	-0.242245	0.004089	0.000157	0.003678
37584	9.805159	0.168102	-0.242309	0.005195	-0.001312	0.006944
37585	9.820266	0.142291	-0.288413	0.002616	-0.001427	0.003485
37586	9.797037	0.192054	-0.219950	0.004089	0.000157	0.003678
37587	9.801682	0.239968	-0.244992	0.004089	0.000157	0.003678
37588	9.793424	0.212715	-0.297876	0.004938	0.000244	0.008428
37589	9.802875	0.214326	-0.244144	0.002359	0.000129	0.004969
37590	9.833219	0.214613	-0.260823	0.005268	-0.004395	0.006996
37591	9.816822	0.212188	-0.291367	0.003869	0.000172	0.005188
37592	9.804059	0.188231	-0.243737	0.003869	0.000172	0.005188
37593	9.787664	0.185823	-0.274128	0.003685	-0.001354	0.006725
37594	9.835570	0.163397	-0.259570	0.003465	-0.001340	0.008235
37595	9.813361	0.137148	-0.265655	0.005782	0.001726	0.002360
37596	9.813364	0.136687	-0.265794	0.003758	-0.004437	0.006778
37597	9.795812	0.158600	-0.297096	0.000593	0.001644	0.006234
37598	9.820342	0.134974	-0.289316	0.006924	-0.001285	0.005652
37599	9.820349	0.134339	-0.289376	0.005158	0.000230	0.006917
37600	9.805283	0.159050	-0.243413	0.005378	0.000214	0.005407
37601	9.806436	0.134147	-0.242559	0.003869	0.000172	0.005188
37602	9.786609	0.204868	-0.275400	0.002139	0.000145	0.006479
37603	9.805313	0.157262	-0.243377	0.006668	0.000272	0.007136
37604	9.804180	0.181003	-0.244359	0.005451	-0.002868	0.005460
37605	9.811155	0.180060	-0.267668	0.003981	0.004781	0.003597
37606	9.810026	0.204063	-0.268431	0.004161	-0.002925	0.003731
37607	9.780832	0.178400	-0.251262	0.003869	0.000173	0.005188
37608	9.833414	0.204438	-0.261636	0.002359	0.000131	0.004969
37609	9.786685	0.201200	-0.275411	0.003613	0.001729	0.006671
37610	9.834571	0.178915	-0.260767	0.000921	-0.002994	0.004804
37611	9.810078	0.201304	-0.268612	0.004903	0.001787	0.008401
37612	9.788979	0.150418	-0.273901	0.001991	-0.002921	0.008043
37613	9.811230	0.175358	-0.268037	0.006704	-0.001270	0.007163
37614	9.811238	0.174799	-0.268100	0.005599	0.000199	0.003896
37615	9.805404	0.150464	-0.243991	0.003940	-0.002910	0.005242
37616	9.787873	0.172481	-0.275385	0.005414	-0.001327	0.005434
37617	9.812374	0.148894	-0.267740	0.003905	-0.001369	0.005215
37618	9.820465	0.123558	-0.290265	0.005563	0.001740	0.003869
37619	9.782052	0.147114	-0.251327	0.000701	-0.002977	0.006315
37620	9.789022	0.145916	-0.274782	0.009653	0.001897	0.007546
37621	9.810175	0.195438	-0.269414	0.001035	0.001615	0.003212
37622	9.827712	0.172395	-0.238221	0.003685	-0.001352	0.006725
37623	9.811307	0.169975	-0.268683	0.003904	-0.001368	0.005215
37624	9.810203	0.193841	-0.269538	0.002324	0.001673	0.004941
37625	9.803255	0.193775	-0.246058	0.003649	0.000189	0.006698
37626	9.809122	0.216895	-0.270306	0.003429	0.000205	0.008208
37627	9.803282	0.192532	-0.245961	0.002764	0.001640	0.001921
37628	9.816108	0.215415	-0.293609	0.006704	-0.001269	0.007163
37629	9.818334	0.165912	-0.291934	0.001920	0.000164	0.007989
37630	9.825586	0.216346	-0.240021	0.003904	-0.001368	0.005215
37631	9.786911	0.188322	-0.276466	0.003869	0.000173	0.005188
37632	9.811398	0.164660	-0.268657	0.003649	0.000190	0.006698
37633	9.842842	0.140545	-0.284318	0.004124	-0.001385	0.003705
37634	9.782170	0.138675	-0.251523	0.005854	-0.001360	0.002413
37635	9.782178	0.138245	-0.251438	0.000561	0.003190	0.006205
37636	9.819489	0.137942	-0.291140	0.002360	0.000132	0.004969
37637	9.819496	0.137422	-0.291128	0.005379	0.000214	0.005406
37638	9.782201	0.136645	-0.251404	0.003938	-0.002909	0.005243
37639	9.804486	0.161858	-0.245495	0.005599	0.000198	0.003896
37640	9.803401	0.185699	-0.246438	0.003684	-0.001351	0.006726
37641	9.818423	0.159666	-0.292412	0.003869	0.000173	0.005187
37642	9.802331	0.208811	-0.247523	0.003498	-0.002875	0.008264
37643	9.810393	0.183372	-0.269951	0.005716	0.004804	0.002302
37644	9.778979	0.206533	-0.254355	0.003753	-0.004433	0.006781
37645	9.802365	0.207157	-0.247570	0.003615	0.001732	0.006670
37646	9.795416	0.207091	-0.224240	0.005448	-0.002868	0.005462
37647	9.833802	0.182391	-0.263361	0.003870	0.000174	0.005187
37648	9.780100	0.179825	-0.253804	0.005379	0.000214	0.005406
37649	9.811527	0.155590	-0.269374	0.003650	0.000191	0.006698
37650	9.818497	0.154451	-0.292757	0.003870	0.000174	0.005187
37651	9.804586	0.154951	-0.245956	0.003650	0.000191	0.006698
37652	9.812626	0.129358	-0.268673	0.003752	-0.004433	0.006782
37653	9.811555	0.153122	-0.269778	0.005379	0.000214	0.005406
37654	9.804606	0.153143	-0.246296	0.003836	0.001715	0.005159
37655	9.788200	0.150706	-0.276526	0.005160	0.000232	0.006916
37656	9.811585	0.151380	-0.269664	0.003903	-0.001367	0.005215
37657	9.788218	0.149482	-0.276574	0.006636	0.001813	0.007107
37658	9.826958	0.176353	-0.240141	0.003870	0.000174	0.005187
37659	9.756835	0.171990	-0.260976	0.005413	-0.001327	0.005434
37660	9.816448	0.197425	-0.294886	0.002800	0.000098	0.001948
37661	9.802541	0.198115	-0.248013	0.003616	0.001733	0.006669
37662	9.826989	0.174347	-0.240328	0.003751	-0.004432	0.006783
37663	9.785079	0.219388	-0.279589	0.003870	0.000174	0.005187
37664	9.796668	0.172449	-0.224136	0.003683	-0.001349	0.006726
37665	9.818996	0.197600	-0.218184	0.001070	0.000076	0.003239
37666	9.827018	0.172239	-0.240667	0.003870	0.000174	0.005187
37667	9.803648	0.170463	-0.247655	0.002393	-0.001407	0.004997
37668	9.794191	0.167474	-0.301506	0.003683	-0.001349	0.006726
37669	9.818625	0.143781	-0.293893	0.002427	-0.002948	0.005026
37670	9.803666	0.168702	-0.248150	0.005160	0.000232	0.006916
37671	9.829154	0.120614	-0.239323	0.003837	0.001715	0.005158
37672	9.764937	0.140107	-0.284303	0.003870	0.000174	0.005187
37673	9.796739	0.167551	-0.224720	0.005226	-0.002850	0.006973
37674	9.771904	0.138391	-0.307898	0.004057	0.001697	0.003648
37675	9.804757	0.141489	-0.247255	0.001954	-0.001370	0.008018
37676	9.816594	0.188412	-0.295935	0.005380	0.000214	0.005405
37677	9.804772	0.140216	-0.247379	0.003683	-0.001349	0.006726
37678	9.809656	0.187762	-0.272743	0.006923	-0.001288	0.005653
37679	9.809666	0.187130	-0.272807	0.005160	0.000233	0.006916
37680	9.808642	0.210898	-0.273714	0.003870	0.000174	0.005187
37681	9.808655	0.210381	-0.273629	0.003838	0.001716	0.005158
37682	9.778338	0.209189	-0.256919	0.005315	0.003297	0.005347
37683	9.785312	0.208061	-0.280077	0.005347	0.001755	0.005376
37684	9.824689	0.159103	-0.317639	0.001347	0.007746	0.000073
37685	9.787422	0.159152	-0.276716	0.004676	0.013953	-0.002627
37686	9.817801	0.160071	-0.291672	0.003101	0.016996	-0.002904
37687	9.803510	0.109890	-0.318253	0.004953	0.021622	-0.005794
37688	9.821771	0.191665	-0.134388	0.002374	0.021506	-0.009252
37689	9.782383	0.240603	-0.095426	0.005631	-0.001345	0.003927
37690	9.796993	0.162296	-0.217409	0.007434	-0.016547	0.015230
37691	9.839328	-0.097994	-0.657216	0.001314	0.009288	0.000043
37692	9.808946	-0.148190	-0.711564	0.006394	0.081167	-0.046647
37693	9.862762	0.449997	0.038484	0.022403	0.121502	-0.057299
37694	9.736330	0.180100	0.091658	0.119227	0.036886	0.001460
37695	9.866988	0.178700	-0.681294	0.149885	0.046904	0.001162
37696	9.919852	0.270086	-0.863516	0.116259	0.135476	-0.005332
37697	9.915380	0.246348	-0.820861	0.043041	0.237057	-0.007186
37698	9.882855	0.226253	-0.675178	0.013891	0.328892	-0.013219
37699	9.845231	0.266008	-0.270006	0.010124	0.381497	-0.007051
37700	9.782216	0.224244	-0.020789	0.013121	0.383235	-0.006645
37701	9.790591	0.227590	0.069719	0.005726	0.366181	-0.005942
37702	9.785209	0.152354	0.053759	0.010992	0.343227	-0.006251
37703	9.799711	0.148594	-0.036416	0.015788	0.338614	-0.016239
37704	9.833936	0.243632	-0.122922	0.044975	0.350432	-0.007173
37705	9.828634	0.195858	-0.062200	0.070938	0.371454	0.001244
37706	9.814159	0.172732	0.022214	0.065646	0.385403	0.003181
37707	9.849852	0.245080	0.019034	0.037964	0.401980	0.009079
37708	9.896027	0.135945	-0.203886	0.025444	0.449682	0.002897
37709	9.922747	0.130181	-0.301939	0.017711	0.522257	-0.007671
37710	9.905883	0.136293	-0.122970	0.006985	0.605850	-0.011282
37711	9.808498	0.074341	0.217467	0.001062	0.646020	-0.027153
37712	9.757347	0.113421	0.548160	-0.005004	0.648968	-0.045414
37713	9.693995	0.224001	0.818836	-0.005336	0.614972	-0.055681
37714	9.722180	0.275080	0.782742	-0.004016	0.567190	-0.056040
37715	9.713879	0.252674	0.782924	-0.005153	0.528845	-0.044620
37716	9.715217	0.229317	0.757481	-0.004728	0.507202	-0.051895
37717	9.756138	0.255087	0.691778	0.002202	0.492045	-0.053379
37718	9.759925	0.208062	0.665679	0.010137	0.500242	-0.055135
37719	9.787184	0.238618	0.700649	0.031475	0.511981	-0.054280
37720	9.779905	0.241424	0.697114	0.050291	0.529837	-0.057128
37721	9.748906	0.276975	0.869724	0.059359	0.541291	-0.057116
37722	9.736891	0.286843	0.999047	0.057932	0.539996	-0.057425
37723	9.708920	0.291602	1.041380	0.038658	0.535004	-0.061407
37724	9.743100	0.243063	0.952623	0.004482	0.539015	-0.062571
37725	9.778112	0.246566	0.917721	-0.000788	0.567137	-0.070627
37726	9.741611	0.255751	1.040876	-0.005822	0.593899	-0.072374
37727	9.681710	0.263456	1.155216	-0.007225	0.606727	-0.074588
37728	9.697408	0.248014	1.226024	-0.011084	0.611641	-0.078752
37729	9.666414	0.308768	1.381285	-0.013785	0.616646	-0.081103
37730	9.646079	0.347206	1.569645	-0.014719	0.599954	-0.074736
37731	9.602522	0.380317	1.689990	-0.008971	0.566178	-0.067986
37732	9.581794	0.387183	1.764406	-0.008783	0.530536	-0.064061
37733	9.604109	0.418233	1.801294	-0.007325	0.488626	-0.058114
37734	9.639202	0.444935	1.758651	-0.000858	0.454754	-0.047972
37735	9.651418	0.517553	1.699947	-0.000773	0.439601	-0.033497
37736	9.614610	0.599244	1.889525	-0.003607	0.423300	0.005461
37737	9.657350	0.389495	1.658179	-0.008060	0.409368	0.012498
37738	9.720851	0.405674	1.514644	-0.011343	0.439346	0.009400
37739	9.694517	0.399700	1.493626	-0.019907	0.488267	0.012399
37740	9.578982	0.336785	1.847184	-0.017112	0.510858	0.017306
37741	9.538798	0.321121	2.102824	-0.014479	0.498459	0.008762
37742	9.481533	0.298045	2.234782	-0.018740	0.459227	0.011641
37743	9.489008	0.314634	2.145100	-0.014375	0.419994	0.005747
37744	9.565747	0.309325	2.036675	-0.012233	0.409208	0.004954
37745	9.588033	0.325793	1.924004	-0.013903	0.418862	0.004261
37746	9.641680	0.322029	1.860754	-0.014232	0.452284	0.001812
37747	9.635727	0.342843	1.851019	-0.016523	0.501676	0.004793
37748	9.520620	0.349960	2.122270	-0.020921	0.532044	0.006022
37749	9.473246	0.380517	2.321995	-0.020135	0.535569	0.002949
37750	9.456957	0.358005	2.427808	-0.025858	0.521624	0.007948
37751	9.430423	0.381724	2.495525	-0.027474	0.501236	0.004728
37752	9.423546	0.377709	2.487825	-0.031467	0.483970	0.003927
37753	9.463074	0.398389	2.449625	-0.036126	0.477817	0.004264
37754	9.449968	0.392152	2.407553	-0.049049	0.487200	-0.001362
37755	9.433692	0.345285	2.511358	-0.059131	0.501491	-0.006292
37756	9.366595	0.375824	2.726149	-0.056754	0.487681	-0.002129
37757	9.327413	0.351290	2.812857	-0.039719	0.464693	0.001876
37758	9.396353	0.346762	2.734164	-0.029718	0.449350	0.002025
37759	9.426876	0.334328	2.540632	-0.030341	0.459256	0.003188
37760	9.421043	0.335336	2.619109	-0.028378	0.485263	0.004804
37761	9.394969	0.310345	2.687426	-0.025926	0.509714	0.005010
37762	9.402036	0.330358	2.661196	-0.027805	0.532471	0.003895
37763	9.378818	0.331850	2.766939	-0.026063	0.569876	0.005210
37764	9.283643	0.311501	2.975262	-0.036919	0.582878	0.003009
37765	9.214140	0.314205	3.141893	-0.038585	0.572166	0.004253
37766	9.216079	0.314202	3.207883	-0.033194	0.545539	0.004926
37767	9.178297	0.335547	3.241401	-0.026487	0.525325	0.005916
37768	9.220191	0.332103	3.210979	-0.020360	0.509903	0.008242
37769	9.291404	0.369676	3.017587	-0.021063	0.523238	0.009299
37770	9.321068	0.360031	2.888776	-0.023934	0.575241	0.008804
37771	9.262750	0.362092	3.036729	-0.027711	0.625721	0.006402
37772	9.194514	0.368490	3.275556	-0.031199	0.658703	0.009293
37773	9.100916	0.346708	3.467469	-0.031329	0.669166	0.008968
37774	9.053182	0.374102	3.632983	-0.035367	0.656856	0.007740
37775	9.039977	0.318838	3.607139	-0.044229	0.644376	0.006403
37776	9.059484	0.337702	3.573679	-0.055180	0.646337	0.000739
37777	9.048746	0.333325	3.580193	-0.063525	0.664664	-0.004359
37778	8.980430	0.310237	3.732081	-0.071278	0.671761	-0.005788
37779	8.925521	0.310726	3.863833	-0.084636	0.672184	-0.009191
37780	8.874824	0.290384	4.064231	-0.097446	0.651329	-0.016905
37781	8.800103	0.289070	4.175340	-0.088243	0.616516	-0.012795
37782	8.782243	0.293883	4.365312	-0.070597	0.567081	-0.008419
37783	8.725335	0.266171	4.414765	-0.043673	0.491657	0.003348
37784	8.768770	0.285358	4.347582	-0.028197	0.431923	0.005536
37785	8.794045	0.273709	4.158178	-0.018283	0.401492	0.011596
37786	8.858768	0.292779	4.068701	-0.016848	0.401858	0.012132
37787	8.874692	0.314778	4.068468	-0.015167	0.421913	0.010761
37788	8.823518	0.313929	4.141966	-0.012549	0.437150	0.011496
37789	8.754370	0.313302	4.233972	-0.016705	0.450621	0.012843
37790	8.751964	0.337372	4.289245	-0.016984	0.452607	0.009375
37791	8.699233	0.339897	4.432553	-0.018877	0.448046	0.010313
37792	8.629959	0.320048	4.627162	-0.019269	0.420365	0.008997
37793	8.560988	0.298465	4.783328	-0.014228	0.368056	0.012026
37794	8.596517	0.294122	4.726198	-0.010806	0.312209	0.011166
37795	8.548254	0.291760	4.751138	-0.007585	0.269473	0.009986
37796	8.571346	0.289767	4.737737	-0.003216	0.220180	0.014376
37797	8.597131	0.282669	4.617839	0.007591	0.195786	0.017690
37798	8.658305	0.299331	4.461314	0.011911	0.189388	0.019617
37799	8.738531	0.266788	4.291296	0.012354	0.216004	0.020947
37800	8.764638	0.259615	4.174970	0.003179	0.268819	0.016061
37801	8.751886	0.280955	4.165857	-0.008212	0.338264	0.011552
37802	8.645726	0.288196	4.420130	-0.011505	0.389903	0.012456
37803	8.536306	0.272530	4.711820	-0.019173	0.394993	0.010723
37804	8.480828	0.297461	4.811773	-0.015377	0.382187	0.014244
37805	8.480342	0.272683	4.862142	-0.011815	0.357570	0.011253
37806	8.520053	0.289386	4.737187	-0.013755	0.339441	0.009084
37807	8.545560	0.303218	4.560180	-0.017545	0.356196	0.005427
37808	8.544930	0.303210	4.610170	-0.022810	0.393019	0.004058
37809	8.484133	0.284743	4.816811	-0.034921	0.419704	-0.000144
37810	8.366426	0.291524	5.071548	-0.036928	0.408307	-0.002505
37811	8.322844	0.295148	5.223566	-0.032186	0.365363	0.000409
37812	8.268579	0.294163	5.284342	-0.020386	0.314175	0.006649
37813	8.272523	0.267838	5.292756	-0.011241	0.251075	0.011945
37814	8.348210	0.277976	5.005516	-0.008179	0.217755	0.010602
37815	8.475066	0.243399	4.775393	-0.008398	0.236287	0.010146
37816	8.466179	0.287603	4.726291	-0.009608	0.285031	0.010340
37817	8.455095	0.235842	4.720622	-0.015017	0.337092	0.008552
37818	8.374797	0.240358	4.901911	-0.021821	0.380770	0.002916
37819	8.336713	0.239373	4.951009	-0.027725	0.412857	-0.000426
37820	8.275663	0.240240	5.051999	-0.038963	0.428044	-0.005929
37821	8.201271	0.247218	5.290856	-0.043798	0.433407	-0.006615
37822	8.159465	0.279344	5.530141	-0.042141	0.403489	-0.008675
37823	8.086060	0.252530	5.574187	-0.026102	0.345436	0.006664
37824	8.118930	0.268233	5.430853	-0.015249	0.298741	0.010945
37825	8.151478	0.261426	5.320730	-0.011007	0.283815	0.009842
37826	8.177462	0.282130	5.277553	-0.009518	0.280734	0.013979
37827	8.211199	0.275501	5.167912	-0.005022	0.302965	0.010633
37828	8.206052	0.269635	5.091406	-0.006715	0.338757	0.012535
37829	8.206211	0.292431	5.104743	-0.007902	0.384729	0.009406
37830	8.162986	0.244195	5.190060	-0.015244	0.435825	0.008280
37831	8.009873	0.256473	5.575155	-0.011918	0.450012	0.011311
37832	7.901570	0.264962	5.859793	-0.011520	0.413109	0.012171
37833	7.852009	0.218049	5.975168	-0.006704	0.342131	0.012443
37834	7.918135	0.255569	5.748081	-0.002760	0.287945	0.010284
37835	7.999100	0.222647	5.575816	-0.003286	0.274597	0.015375
37836	8.011534	0.266672	5.513081	-0.000694	0.290213	0.016363
37837	7.975482	0.265495	5.551707	0.003917	0.309436	0.023411
37838	7.973296	0.234947	5.475883	0.009209	0.328628	0.025688
37839	8.023505	0.229235	5.391747	0.000031	0.364555	0.022077
37840	7.993153	0.224810	5.369484	-0.007938	0.421090	0.015234
37841	7.957799	0.250445	5.472221	-0.016566	0.474461	0.013222
37842	7.832825	0.235863	5.793211	-0.022180	0.502251	0.006361
37843	7.639372	0.223756	6.189650	-0.024656	0.477056	0.005550
37844	7.576228	0.255336	6.426045	-0.019915	0.403771	0.005959
37845	7.541557	0.256842	6.520607	-0.010169	0.299396	0.007863
37846	7.607296	0.268887	6.273293	-0.000004	0.213830	0.014811
37847	7.690765	0.253641	5.954953	0.007045	0.177984	0.019188
37848	7.791367	0.243674	5.744088	0.011639	0.192030	0.023043
37849	7.831958	0.238860	5.665306	0.011304	0.236958	0.021981
37850	7.777731	0.189588	5.715353	-0.001871	0.279888	0.015908
37851	7.714290	0.219085	5.886368	-0.006770	0.311004	0.010965
37852	7.608552	0.224938	6.087030	-0.009518	0.319822	0.009321
37853	7.576702	0.230863	6.265845	-0.009931	0.290634	0.007943
37854	7.552675	0.226927	6.232647	-0.007748	0.261526	0.011413
37855	7.544394	0.199765	6.218773	-0.005500	0.235755	0.011396
37856	7.516728	0.201637	6.303017	-0.003231	0.206469	0.011464
37857	7.490612	0.228039	6.383428	0.000446	0.166772	0.012504
37858	7.440930	0.203467	6.422031	0.002094	0.120056	0.014332
37859	7.538067	0.217022	6.185906	0.009875	0.083784	0.014066
37860	7.636258	0.230786	5.949253	0.003784	0.100941	0.008683
37861	7.643082	0.251547	5.889909	-0.003294	0.142495	0.007471
37862	7.654212	0.225967	5.890359	-0.005628	0.185942	0.007054
37863	7.628655	0.223904	5.885898	-0.009318	0.232890	0.005822
37864	7.577925	0.250634	5.984864	-0.011663	0.279969	0.005315
37865	7.461694	0.233725	6.215581	-0.012490	0.297605	0.006235
37866	7.375968	0.221613	6.540892	-0.012943	0.273406	0.004730
37867	7.290507	0.198888	6.632780	-0.006399	0.217910	0.004234
37868	7.311617	0.223249	6.652814	-0.000083	0.151985	0.010809
37869	7.326898	0.193571	6.562266	-0.003047	0.097840	0.008527
37870	7.401497	0.209118	6.373494	0.000652	0.071696	0.005876
37871	7.412745	0.205732	6.311412	0.000681	0.066475	0.005999
37872	7.449916	0.204478	6.290695	-0.001413	0.069952	0.006510
37873	7.427113	0.224580	6.220074	-0.001459	0.078694	0.006305
37874	7.463300	0.223287	6.200733	0.001135	0.092759	0.007458
37875	7.399935	0.202079	6.302190	-0.003688	0.108397	0.006196
37876	7.345766	0.210291	6.511075	-0.003026	0.094507	0.008598
37877	7.335478	0.231584	6.461527	0.005424	0.066675	0.006897
37878	7.405357	0.200156	6.307467	0.002060	0.057884	0.006947
37879	7.458660	0.220237	6.218559	0.000492	0.073654	0.009241
37880	7.453096	0.243954	6.223815	-0.002292	0.098069	0.007175
37881	7.380853	0.224193	6.358843	-0.002359	0.112088	0.006845
37882	7.332038	0.248642	6.391125	-0.003071	0.105139	0.008340
37883	7.375225	0.221127	6.341366	0.000141	0.112304	0.011744
37884	7.363221	0.242093	6.294408	-0.003132	0.119210	0.008006
37885	7.355624	0.216783	6.304726	-0.004677	0.129787	0.010417
37886	7.351270	0.218325	6.369218	-0.004746	0.145604	0.010045
37887	6.914990	0.215942	7.463320	0.000680	0.068514	0.005960
37888	7.501656	0.153421	6.030174	0.003834	-0.005071	0.005781
37889	7.220878	0.228894	6.651875	0.003735	0.017711	0.005246
37890	7.379380	0.164711	6.303498	0.000380	0.005380	0.005362
37891	7.349004	0.190973	6.349424	0.005967	0.022926	0.001138
37892	7.385234	0.139226	6.274354	0.007418	0.035167	-0.001807
37893	7.381918	0.140460	6.278227	0.015939	0.070193	-0.011756
37894	7.233972	0.252028	6.563146	0.013852	0.071936	-0.011222
37895	7.204918	0.306621	6.664830	0.010847	0.029990	-0.001507
37896	7.221374	0.254983	6.601134	0.000994	-0.005082	0.007690
37897	7.255784	0.303567	6.605770	-0.002642	-0.034817	0.015037
37898	7.263771	0.224679	6.518085	-0.006883	-0.057584	0.020137
37899	7.338881	0.219833	6.442687	-0.008373	-0.061049	0.022875
37900	7.409557	0.157147	6.173528	-0.003939	-0.041850	0.014450
37901	7.402391	0.157874	6.205581	0.005701	0.003787	0.008405
37902	7.338319	0.214843	6.384251	0.007464	0.026402	-0.001605
37903	7.336462	0.215442	6.386365	0.007443	0.031663	-0.001730
37904	7.317438	0.219249	6.455843	0.008919	0.038647	-0.004552
37905	7.298286	0.247391	6.524016	0.008032	0.028218	0.000433
37906	7.238052	0.300390	6.614940	0.003955	0.007132	0.002087
37907	7.205330	0.299136	6.605751	-0.003999	-0.029586	0.014163
37908	7.279679	0.221605	6.535398	-0.007515	-0.047105	0.017813
37909	7.308655	0.190711	6.432124	-0.006296	-0.064514	0.022388
37910	7.508693	0.096975	6.001267	-0.002500	-0.027851	0.011465
37911	7.237150	0.219938	6.585596	0.003059	0.000204	0.006986
37912	7.379329	0.207109	6.300983	0.003066	-0.001548	0.007028
37913	7.304444	0.189363	6.460976	0.002321	-0.003284	0.008398
37914	7.341940	0.209968	6.380249	0.003228	0.001886	0.003538
37915	7.312558	0.211919	6.426420	0.004556	0.001925	0.004288
37916	7.333198	0.235627	6.412819	0.003630	0.002013	0.009023
37917	7.324799	0.212473	6.447717	0.002464	0.005407	0.004782
37918	7.312053	0.211149	6.427019	0.004388	0.000244	0.007737
37919	7.324578	0.236319	6.446629	0.003071	-0.003300	0.007070
37920	7.299765	0.233752	6.404461	0.002332	-0.006788	0.008482
37921	7.333885	0.209503	6.413452	0.001003	-0.006826	0.007732
37922	7.325781	0.234879	6.445314	0.001575	-0.005018	0.009768
37923	7.313486	0.233386	6.424109	0.002494	-0.003354	0.004991
37924	7.322210	0.207186	6.391560	0.003072	-0.003299	0.007070
37925	7.314141	0.184036	6.426080	0.003060	0.000206	0.006986
37926	7.322323	0.206682	6.391446	0.003234	0.000134	0.003579
37927	7.347490	0.208648	6.433239	0.001732	0.000168	0.006236
37928	7.301404	0.206683	6.404035	0.002483	0.000151	0.004907
37929	7.334909	0.207033	6.412360	0.003060	0.000207	0.006986
37930	7.335023	0.206714	6.412241	0.003071	-0.003298	0.007070
37931	7.335138	0.206307	6.412122	0.000981	0.000185	0.007564
37932	7.314218	0.206530	6.424706	0.004563	0.000173	0.004329
37933	7.322385	0.204858	6.391434	0.002468	0.005408	0.004781
37934	7.334604	0.229926	6.411418	0.001553	0.001995	0.009600
37935	7.313687	0.230009	6.424002	0.002488	-0.001601	0.004950
37936	7.292823	0.230311	6.436518	0.003812	0.000190	0.005658
37937	7.342893	0.227524	6.378036	0.003050	0.003713	0.006901
37938	7.325706	0.199231	6.304544	0.003200	0.012401	0.003283
37939	7.416475	0.147349	6.224964	0.008968	0.036870	-0.004529
37940	7.325183	0.203414	6.364343	0.013055	0.063210	-0.006321
37941	7.325251	0.207613	6.423372	0.016635	0.064962	-0.009596
37942	7.358657	0.205768	6.348860	0.014717	0.070139	-0.012555
37943	7.337108	0.186679	6.422453	0.019602	0.080704	-0.015291
37944	7.239124	0.265680	6.508156	0.017522	0.080702	-0.014717
37945	7.209266	0.247920	6.614625	0.013821	0.057998	-0.007522
37946	7.214698	0.271828	6.583133	0.009561	0.029960	-0.002276
37947	7.263960	0.221020	6.528828	0.006013	0.015936	0.001297
37948	7.250592	0.244289	6.507492	0.003021	0.007233	0.006820
37949	7.279983	0.241734	6.461744	0.001543	-0.003261	0.009733
37950	7.339553	0.188288	6.372083	0.003058	-0.005051	0.007124
37951	7.360607	0.156487	6.219427	0.008821	0.026471	-0.000864
37952	7.344593	0.187925	6.342646	0.014575	0.061511	-0.008941
37953	7.284981	0.221097	6.492384	0.016811	0.072003	-0.013182
37954	7.238340	0.248246	6.520968	0.015135	0.065107	-0.006949
37955	7.280997	0.244434	6.412903	0.017228	0.061630	-0.007432
37956	7.348191	0.218990	6.348756	0.024925	0.082755	-0.012323
37957	7.210162	0.308798	6.655296	0.017733	0.082802	-0.005886
37958	7.155197	0.336976	6.716506	0.019188	0.039219	0.008285
37959	7.256501	0.275970	6.462572	0.019442	0.016593	0.017761
37960	7.323235	0.270056	6.339332	0.037194	0.029499	0.029368
37961	7.315845	0.274864	6.429800	0.060039	0.047936	0.047273
37962	7.173319	0.260228	6.629068	0.066879	0.034331	0.060319
37963	7.079370	0.215449	6.715640	0.062210	0.006122	0.060113
37964	7.044530	0.253978	6.988359	0.011806	-0.048438	0.023839
37965	7.420534	0.210467	6.172418	0.017883	-0.065537	0.038313
37966	7.469522	0.130615	6.061918	0.034043	0.013572	0.026160
37967	7.211190	0.258797	6.632991	0.042528	0.034987	0.032212
37968	7.193862	0.254887	6.558989	0.046155	0.007180	0.042061
37969	7.308437	0.217800	6.324037	0.048982	0.021249	0.039783
37970	7.318544	0.243589	6.346241	0.048955	0.051145	0.038953
37971	7.178656	0.257946	6.599396	0.051231	0.054609	0.034883
37972	7.095034	0.264294	6.706189	0.030617	0.036416	0.025333
37973	7.254697	0.252721	6.500851	0.022679	0.018578	0.021282
37974	7.330270	0.243790	6.344675	0.022871	0.032556	0.017476
37975	7.318632	0.246119	6.381307	0.031006	0.059112	0.017867
37976	7.254680	0.227693	6.478698	0.035541	0.073401	0.021820
37977	7.207555	0.278694	6.505878	0.037627	0.080478	0.021052
37978	6.902591	0.363048	7.104724	0.033051	0.031382	0.030423
37979	7.053479	0.276116	6.879952	0.020709	-0.063837	0.033177
37980	7.287172	0.194933	6.349882	0.018619	-0.077911	0.034154
37981	7.380201	0.185602	6.209199	0.014316	-0.027189	0.024883
37982	7.401229	0.160227	6.198402	0.027061	0.029102	0.016429
37983	7.320548	0.194758	6.358707	0.029189	0.078384	0.014400
37984	7.255020	0.225617	6.454886	0.035829	0.101507	0.017515
37985	7.218452	0.278243	6.504948	0.043013	0.107121	0.023239
37986	7.229060	0.250916	6.447708	0.054726	0.114715	0.033278
37987	7.272467	0.248380	6.398808	0.067770	0.131179	0.043815
37988	7.263290	0.225343	6.410586	0.075189	0.156122	0.045543
37989	7.261345	0.225119	6.389705	0.077764	0.189519	0.037129
37990	7.236196	0.250543	6.381838	0.074655	0.224761	0.032396
37991	7.263076	0.227122	6.376789	0.072549	0.261691	0.022865
37992	7.260509	0.222511	6.276883	0.064143	0.317791	0.005444
37993	7.222338	0.210205	6.424075	0.064222	0.372638	-0.005248
37994	7.145548	0.316242	6.502252	0.067519	0.406895	-0.002737
37995	7.058577	0.355439	6.673900	0.089163	0.422462	0.011266
37996	6.991795	0.393994	6.833235	0.111793	0.408410	0.039396
37997	6.954707	0.352196	6.896622	0.129594	0.380010	0.067036
37998	6.937902	0.325961	6.836096	0.140537	0.357877	0.076184
37999	6.921245	0.202166	6.782042	0.129078	0.363080	0.065515
38000	6.855541	0.265244	6.935221	0.098891	0.376004	0.032489
38001	6.757657	0.356388	7.129506	0.084900	0.343825	0.027060
38002	6.746629	0.386228	7.170380	0.098116	0.289816	0.048012
38003	6.781388	0.405055	7.076923	0.108459	0.248233	0.070352
38004	6.828733	0.367311	6.897994	0.132107	0.225282	0.105495
38005	6.844261	0.243898	6.878800	0.135834	0.227246	0.102318
38006	6.837205	0.166492	6.813908	0.101498	0.260842	0.058168
38007	6.809025	0.269727	6.857490	0.067411	0.292907	0.019521
38008	6.744550	0.275658	6.899461	0.054730	0.311950	0.001812
38009	6.644785	0.299231	7.148619	0.038112	0.321875	-0.017971
38010	6.568934	0.410012	7.269033	0.027481	0.287556	-0.023040
38011	6.582541	0.384790	7.245107	0.026444	0.239517	-0.014280
38012	6.710681	0.368454	7.055583	0.028880	0.220006	-0.011856
38013	6.739811	0.335529	6.943113	0.023405	0.239642	-0.018018
38014	6.734066	0.306910	6.875511	0.023566	0.273845	-0.024926
38015	6.713553	0.363616	6.945377	0.028088	0.308427	-0.027295
38016	6.736312	0.360567	6.892188	0.034864	0.345195	-0.024716
38017	6.666177	0.343058	6.939192	0.043343	0.389239	-0.025008
38018	6.555445	0.339373	7.139301	0.044808	0.418533	-0.030903
38019	6.430792	0.363106	7.369396	0.038791	0.408011	-0.032475
38020	6.399573	0.396960	7.446991	0.038630	0.384934	-0.031500
38021	6.387311	0.418349	7.381784	0.040159	0.349472	-0.021549
38022	6.384378	0.421381	7.393546	0.046497	0.332251	-0.011141
38023	6.305182	0.377365	7.415120	0.042106	0.310703	-0.009335
38024	6.303291	0.433186	7.474210	0.035915	0.284996	-0.015813
38025	6.380865	0.393324	7.292591	0.032901	0.276162	-0.013718
38026	6.411652	0.409272	7.181103	0.036927	0.300113	-0.017728
38027	6.363632	0.443177	7.262554	0.037612	0.324590	-0.011156
38028	6.367972	0.476707	7.348856	0.054782	0.345812	-0.004473
38029	6.207822	0.426778	7.563520	0.061121	0.341330	0.005472
38030	6.120225	0.416768	7.690044	0.044370	0.311465	-0.004258
38031	6.106265	0.434997	7.597299	0.033534	0.277774	-0.017209
38032	6.233736	0.416665	7.396956	0.029775	0.277555	-0.025263
38033	6.198961	0.423562	7.446174	0.028256	0.292367	-0.028892
38034	6.140354	0.431792	7.504956	0.026691	0.301694	-0.032280
38035	6.081217	0.440009	7.563638	0.027085	0.298435	-0.030009
38036	6.067548	0.421221	7.605985	0.022707	0.282072	-0.028472
38037	6.119418	0.440381	7.540691	0.023213	0.291710	-0.026776
38038	6.152809	0.431677	7.433266	0.025966	0.306676	-0.031221
38039	6.091995	0.439925	7.492698	0.027080	0.331047	-0.033568
38040	5.986794	0.457617	7.646803	0.029727	0.342707	-0.032351
38041	5.918615	0.519881	7.756225	0.035565	0.334080	-0.029729
38042	5.910575	0.528016	7.820558	0.043881	0.305802	-0.011321
38043	5.870642	0.503752	7.793924	0.047613	0.273259	0.000420
38044	5.953674	0.492512	7.668706	0.050513	0.273797	0.004279
38045	5.982435	0.481664	7.538136	0.050358	0.294460	0.001206
38046	5.900707	0.522257	7.677982	0.051692	0.315672	0.006618
38047	5.841080	0.586081	7.807501	0.063629	0.311354	0.019020
38048	5.824448	0.584604	7.770900	0.087065	0.297334	0.055120
38049	5.711081	0.303589	7.869898	0.076932	0.296646	0.040435
38050	5.674394	0.383769	7.910363	0.037804	0.290704	-0.022846
38051	5.708481	0.525698	7.843147	0.020324	0.280540	-0.034810
38052	5.846849	0.481767	7.653982	0.027899	0.290690	-0.029942
38053	5.853911	0.496365	7.531696	0.026739	0.341145	-0.043008
38054	5.747914	0.493099	7.708383	0.028504	0.386853	-0.044292
38055	5.546153	0.582371	8.062365	0.025577	0.393080	-0.043008
38056	5.405680	0.641172	8.370503	0.028216	0.334059	-0.026459
38057	5.318231	0.625881	8.433456	0.029962	0.248534	-0.005257
38058	5.372259	0.617181	8.345431	0.036535	0.157428	0.019841
38059	5.472722	0.571330	8.141695	0.039176	0.107294	0.035989
38060	5.568427	0.498545	7.915665	0.035913	0.093676	0.030569
38061	5.727269	0.524408	7.712938	0.031340	0.123681	0.025483
38062	5.702216	0.569534	7.670379	0.029986	0.184772	0.030458
38063	5.621448	0.503016	7.734035	0.018377	0.240963	0.018627
38064	5.551378	0.545420	7.913747	0.011141	0.276618	0.009287
38065	5.440123	0.536102	8.059446	0.005707	0.280554	0.008819
38066	5.432792	0.484072	8.049189	-0.009355	0.277375	-0.011749
38067	5.409856	0.459708	8.066601	-0.025011	0.273926	-0.036602
38068	5.436991	0.449479	7.991392	-0.054591	0.278846	-0.076239
38069	5.454956	0.492980	7.965766	-0.090718	0.293145	-0.117599
38070	5.426594	0.635837	7.945547	-0.095554	0.319848	-0.124694
38071	5.397811	0.586197	7.969087	-0.100305	0.356656	-0.124624
38072	5.298822	0.548799	8.113614	-0.109772	0.377673	-0.132993
38073	5.283594	0.519478	8.106850	-0.116283	0.387284	-0.142342
38074	5.267633	0.715900	8.157257	-0.104178	0.395348	-0.118144
38075	5.225834	0.815982	8.222817	-0.058547	0.387149	-0.051850
38076	5.116546	0.701937	8.348660	-0.012842	0.364442	0.034737
38077	5.078773	0.551560	8.355986	0.017499	0.332833	0.071463
38078	5.059825	0.413510	8.230455	0.016777	0.337714	0.082236
38079	5.089491	0.346222	8.087291	0.007407	0.357907	0.056406
38080	5.094245	0.338129	8.047991	-0.018761	0.409365	0.004051
38081	5.056324	0.489294	8.133522	-0.038039	0.452655	-0.027049
38082	5.004540	0.501381	8.310337	-0.043435	0.478494	-0.030775
38083	4.838098	0.487355	8.440209	-0.046378	0.472648	-0.046474
38084	4.817268	0.588417	8.525370	-0.058033	0.451529	-0.050762
38085	4.836176	0.625896	8.455568	-0.032742	0.429328	-0.015654
38086	4.756417	0.554924	8.516332	-0.011783	0.410837	0.019807
38087	4.646093	0.492032	8.656754	0.001401	0.379254	0.036040
38088	4.693225	0.445744	8.460510	0.003761	0.352082	0.031517
38089	4.755700	0.356957	8.340249	-0.011218	0.370213	-0.001355
38090	4.710474	0.409685	8.406857	-0.028129	0.400226	-0.034547
38091	4.656355	0.412031	8.454906	-0.038921	0.424992	-0.060547
38092	4.654831	0.452199	8.390102	-0.055864	0.436189	-0.081062
38093	4.616976	0.475273	8.409332	-0.069319	0.469911	-0.092014
38094	4.542488	0.529787	8.508187	-0.076266	0.490177	-0.100860
38095	4.464408	0.511000	8.613137	-0.076200	0.491250	-0.100890
38096	4.380806	0.465614	8.695475	-0.082032	0.487963	-0.105652
38097	4.404816	0.578564	8.647159	-0.077364	0.483350	-0.101509
38098	4.389768	0.721347	8.653142	-0.057379	0.483069	-0.056528
38099	4.340341	0.546888	8.663989	-0.029927	0.478919	-0.010869
38100	4.326550	0.461048	8.563156	-0.024827	0.486463	-0.002875
38101	4.221530	0.442831	8.669507	-0.027788	0.510876	-0.018740
38102	4.093437	0.402924	8.804839	-0.035038	0.505282	-0.028810
38103	4.006337	0.357694	8.884002	-0.044650	0.496698	-0.057021
38104	4.013817	0.476018	8.887853	-0.053430	0.478587	-0.071961
38105	4.049143	0.460424	8.750065	-0.053536	0.477490	-0.074061
38106	4.133211	0.443464	8.607477	-0.061211	0.504517	-0.082152
38107	3.990984	0.348773	8.672308	-0.073826	0.555452	-0.105987
38108	3.886349	0.432151	8.842856	-0.088435	0.577552	-0.140555
38109	3.716035	0.475136	9.120774	-0.085811	0.559178	-0.129196
38110	3.651744	0.575605	9.208817	-0.072891	0.503709	-0.119202
38111	3.688295	0.583560	9.045963	-0.049501	0.455853	-0.073226
38112	3.664149	0.407458	9.024148	-0.046193	0.442579	-0.069658
38113	3.596176	0.307448	9.025003	-0.053940	0.433852	-0.097099
38114	3.561833	0.357862	9.085696	-0.071562	0.424676	-0.129531
38115	3.629484	0.364854	8.895736	-0.076770	0.426596	-0.153152
38116	3.589380	0.339056	8.913581	-0.090463	0.453316	-0.179465
38117	3.545782	0.360329	8.904582	-0.100114	0.477961	-0.214510
38118	3.507036	0.460778	8.988697	-0.112064	0.499662	-0.222386
38119	3.416437	0.512438	9.079451	-0.107248	0.512210	-0.209971
38120	3.347249	0.513263	9.147232	-0.099270	0.508091	-0.196015
38121	3.230497	0.611926	9.210258	-0.082146	0.485946	-0.157948
38122	3.187926	0.490832	9.282053	-0.066378	0.454805	-0.127100
38123	3.164963	0.335054	9.182842	-0.065441	0.440852	-0.134245
38124	3.197131	0.477823	9.161005	-0.065539	0.428956	-0.140357
38125	3.204924	0.547718	9.144856	-0.060875	0.437062	-0.121243
38126	3.186577	0.663290	9.078227	-0.051671	0.443751	-0.082706
38127	3.239039	0.506201	8.953499	-0.040402	0.476135	-0.044933
38128	3.168564	0.451934	8.924424	-0.048938	0.530840	-0.037827
38129	3.094319	0.352672	8.972522	-0.055502	0.587442	-0.056706
38130	2.894420	0.385949	9.209773	-0.064106	0.616906	-0.059686
38131	2.715243	0.241568	9.333248	-0.055426	0.616285	-0.081262
38132	2.658150	0.366153	9.440074	-0.057441	0.579050	-0.103962
38133	2.752145	0.478047	9.304207	-0.046637	0.560252	-0.092584
38134	2.674971	0.524749	9.316534	-0.042473	0.561392	-0.068837
38135	2.620212	0.625570	9.423526	-0.030907	0.547755	-0.034873
38136	2.599031	0.419137	9.278683	-0.024887	0.540845	0.002099
38137	2.650140	0.457960	9.147767	-0.026025	0.571300	0.004484
38138	2.568712	0.507863	9.232734	-0.026319	0.606044	0.018645
38139	2.383400	0.439060	9.392646	-0.024463	0.619396	0.033437
38140	2.217134	0.422838	9.622188	-0.026607	0.594604	0.036207
38141	2.137666	0.419434	9.633404	-0.024510	0.553239	0.041693
38142	2.135460	0.465301	9.645266	-0.016377	0.508218	0.060426
38143	2.093645	0.483010	9.581418	-0.009572	0.472007	0.084299
38144	2.072933	0.408696	9.620868	-0.002611	0.435836	0.101714
38145	2.043401	0.252339	9.491549	-0.004280	0.413883	0.089273
38146	2.030693	0.248695	9.477658	-0.014685	0.412460	0.053244
38147	1.961870	0.347511	9.551522	-0.023242	0.405036	0.026072
38148	1.922143	0.394723	9.581026	-0.025424	0.387828	0.026431
38149	1.965980	0.412480	9.521146	-0.019193	0.368537	0.031551
38150	1.958187	0.505887	9.501513	-0.024099	0.372453	0.044180
38151	1.868796	0.407392	9.557457	-0.030389	0.372390	0.062239
38152	1.840478	0.301892	9.496732	-0.033447	0.369702	0.058910
38153	1.863099	0.219043	9.415890	-0.043865	0.389272	0.032985
38154	1.736241	0.222097	9.560402	-0.049437	0.408448	-0.001325
38155	1.600615	0.277853	9.774179	-0.044622	0.378796	-0.011103
38156	1.574271	0.246015	9.708533	-0.037704	0.334990	-0.020399
38157	1.599888	0.214816	9.648354	-0.034304	0.315654	-0.041333
38158	1.636381	0.205409	9.514497	-0.024458	0.314559	-0.060150
38159	1.622384	0.402978	9.585923	-0.018827	0.319987	-0.063164
38160	1.613712	0.500908	9.613757	-0.014827	0.309727	-0.042095
38161	1.591214	0.546029	9.568070	-0.019480	0.302083	-0.005443
38162	1.616601	0.468257	9.535018	-0.022683	0.308461	0.025555
38163	1.603870	0.483567	9.418421	-0.031713	0.330898	0.047096
38164	1.504453	0.339196	9.544425	-0.035156	0.353027	0.065794
38165	1.390297	0.288364	9.589437	-0.042905	0.362499	0.054172
38166	1.341013	0.263982	9.691989	-0.039146	0.351647	0.047141
38167	1.279448	0.211716	9.719144	-0.048489	0.332927	0.027371
38168	1.266621	0.152526	9.605204	-0.044519	0.319912	0.004173
38169	1.272193	0.193808	9.538895	-0.041221	0.324916	-0.022743
38170	1.310206	0.313234	9.573908	-0.035320	0.336209	-0.027925
38171	1.210238	0.388916	9.687033	-0.037587	0.332032	-0.013939
38172	1.239652	0.406707	9.626338	-0.026780	0.319777	0.011099
38173	1.200786	0.302693	9.534257	-0.013217	0.321317	0.029591
38174	1.123668	0.306490	9.653816	-0.017218	0.336824	0.026724
38175	1.055028	0.356367	9.722948	-0.023915	0.326620	0.028510
38176	1.006507	0.358248	9.822168	-0.019008	0.302533	0.044673
38177	0.958356	0.306079	9.798621	-0.020418	0.272703	0.058206
38178	0.888438	0.230036	9.770996	-0.011551	0.252346	0.055164
38179	0.925585	0.127095	9.714884	-0.017825	0.228140	0.029065
38180	0.943664	0.243426	9.644872	-0.024326	0.225784	0.006794
38181	0.998311	0.263286	9.636652	-0.036264	0.237552	-0.003319
38182	0.985816	0.330286	9.588344	-0.048851	0.247421	-0.006961
38183	0.957643	0.399486	9.611911	-0.056268	0.261252	0.002841
38184	0.884635	0.448334	9.727002	-0.049516	0.259374	0.042634
38185	0.865698	0.442243	9.705522	-0.042670	0.239904	0.090410
38186	0.783152	0.293942	9.750847	-0.030733	0.222048	0.120252
38187	0.736707	0.168558	9.752122	-0.025680	0.200124	0.122326
38188	0.692134	0.068469	9.752111	-0.015139	0.187684	0.104176
38189	0.719592	0.062506	9.663305	-0.003721	0.169310	0.077566
38190	0.738588	0.108521	9.620320	0.005082	0.172541	0.046980
38191	0.722575	0.157217	9.619748	-0.001240	0.184104	0.026505
38192	0.724182	0.206358	9.648397	-0.002842	0.189724	0.012098
38193	0.666330	0.233645	9.714759	-0.006867	0.191613	0.009438
38194	0.683857	0.278974	9.672095	-0.013365	0.185783	0.008824
38195	0.582817	0.336675	9.927461	-0.041501	0.184435	0.007820
38196	0.200115	0.162226	10.325898	-0.008847	0.049267	0.033842
38197	0.749115	0.218012	9.574228	-0.001731	0.023670	0.026484
38198	0.759301	0.116519	9.506949	-0.014047	0.062756	0.004726
38199	0.488189	0.058102	9.774303	-0.016530	0.081976	-0.028537
38200	0.392048	-0.012068	9.831773	-0.010966	0.048234	-0.079370
38201	0.522145	0.130009	9.807048	-0.009687	0.016619	-0.120967
38202	0.638238	0.194199	9.631319	-0.006611	0.010557	-0.129181
38203	0.714841	0.289684	9.620996	-0.017326	0.030120	-0.138416
38204	0.784550	0.434137	9.632891	-0.025399	0.052010	-0.105013
38205	0.730856	0.408364	9.623046	-0.025151	0.060339	-0.050818
38206	0.663197	0.286243	9.664196	-0.031864	0.076363	-0.020399
38207	0.566888	0.238126	9.720683	-0.028366	0.072444	-0.013394
38208	0.624288	0.207882	9.662191	-0.026355	0.064709	-0.003232
38209	0.600671	0.208148	9.733835	-0.026304	0.070517	-0.003334
38210	0.552043	0.205114	9.699149	-0.026304	0.070495	-0.003333
38211	0.628783	0.248627	9.667691	-0.031370	0.068705	0.002618
38212	0.632178	0.219214	9.621677	-0.034092	0.090158	0.008424
38213	0.598669	0.215502	9.616625	-0.046742	0.113666	0.006487
38214	0.545853	0.189580	9.683518	-0.044103	0.121361	0.012103
38215	0.528247	0.162033	9.708721	-0.037744	0.113412	0.013012
38216	0.552192	0.156381	9.667889	-0.036455	0.123006	0.011915
38217	0.057287	0.006243	10.106609	-0.005867	0.027379	0.014033
38218	0.567944	0.202504	9.672747	0.000887	0.005890	0.010879
38219	0.537477	0.179515	9.691346	0.006355	0.003829	0.010496
38220	0.519952	0.203794	9.660992	0.005534	0.000028	0.016984
38221	0.507684	0.181539	9.709135	0.004767	0.002037	0.023379
38222	0.508094	0.206249	9.708344	0.004641	0.000185	0.033180
38223	0.513167	0.156923	9.686227	0.006241	-0.001754	0.037758
38224	0.513582	0.157247	9.686200	0.004323	-0.005611	0.035416
38225	0.483842	0.134319	9.704766	0.005166	0.000124	0.028896
38226	0.513926	0.157802	9.686173	0.002869	0.000108	0.021005
38227	0.521234	0.230167	9.660114	0.000747	0.002090	0.020711
38228	0.556635	0.231446	9.719259	0.004004	0.004024	0.029773
38229	0.562386	0.230743	9.695582	0.004273	0.000260	0.045093
38230	0.593184	0.302691	9.675424	0.002594	0.010226	0.077328
38231	0.538197	0.255380	9.688957	0.006273	0.008409	0.109340
38232	0.457321	0.111145	9.699772	0.008285	0.006443	0.119407
38233	0.401415	0.015578	9.714872	0.007182	0.000373	0.083502
38234	0.480212	0.086923	9.706469	0.004793	0.000140	0.040812
38235	0.456988	0.112082	9.699777	0.005320	0.003858	0.019065
38236	0.476090	0.161769	9.727735	0.004125	-0.003916	0.010361
38237	0.517788	0.158637	9.662572	-0.001514	-0.003816	0.003145
38238	0.511920	0.159662	9.686249	0.003810	0.003806	0.004746
38239	0.605020	0.130660	9.610066	0.005139	0.013451	0.003647
38240	0.747027	0.073032	9.422494	0.020794	0.078746	-0.020627
38241	0.612395	0.106778	9.517124	0.036690	0.153576	-0.054830
38242	0.492205	0.218749	9.739415	0.042329	0.176473	-0.063251
38243	0.317649	0.280170	9.873913	0.035596	0.139961	-0.038399
38244	0.236105	0.284084	9.856060	0.019239	0.072823	-0.017440
38245	0.354812	0.230570	9.763812	0.011688	0.024721	-0.013135
38246	0.476134	0.176378	9.671589	0.005218	0.021013	-0.013879
38247	0.473921	0.201629	9.670865	0.010764	0.036259	-0.022170
38248	0.445972	0.203323	9.664977	0.014042	0.051489	-0.038360
38249	0.369174	0.185014	9.748365	0.013826	0.043690	-0.045854
38250	0.348104	0.185615	9.718756	0.008138	0.026444	-0.045159
38251	0.452356	0.183499	9.695955	0.011170	0.022509	-0.043612
38252	0.526803	0.207310	9.689901	0.012933	0.040027	-0.021965
38253	0.452246	0.233947	9.670898	0.012965	0.045966	-0.004668
38254	0.424166	0.235559	9.664949	0.014017	0.046012	0.004169
38255	0.418181	0.188194	9.666865	0.015603	0.055581	0.000924
38256	0.376825	0.191981	9.708142	0.015898	0.057470	-0.001251
38257	0.329642	0.196533	9.772974	0.010465	0.047862	-0.010465
38258	0.277562	0.149194	9.762494	0.005752	0.028540	-0.025928
38259	0.276478	0.174118	9.761654	0.003011	0.003314	-0.048640
38260	0.455623	0.191088	9.656200	-0.003492	-0.004256	-0.049329
38261	0.602728	0.185470	9.569154	0.011404	0.039778	-0.043914
38262	0.290559	0.424090	9.883403	0.008016	0.068963	-0.024240
38263	0.248216	0.127042	9.733852	0.007301	-0.015495	0.009947
38264	0.441512	0.268010	9.677534	-0.000073	0.009738	0.009595
38265	0.410468	0.220532	9.696709	0.003072	-0.003659	0.026582
38266	0.405036	0.246147	9.719407	0.004911	0.000346	0.046328
38267	0.388081	0.245936	9.689580	0.009976	-0.007310	0.065629
38268	0.317214	0.198562	9.672716	0.005930	-0.011107	0.063005
38269	0.382514	0.174580	9.715735	0.004404	-0.011290	0.041050
38270	0.377594	0.200192	9.738413	0.002819	-0.001731	0.028688
38271	0.481346	0.291922	9.635433	0.003418	0.008009	0.041631
38272	0.318753	0.199624	9.672643	0.006398	-0.003403	0.068355
38273	0.305574	0.153171	9.721610	0.003793	-0.001541	0.054926
38274	0.359195	0.151821	9.710380	0.006227	-0.002000	0.010635
38275	0.397269	0.222861	9.666671	0.000059	-0.003790	0.007700
38276	0.384613	0.200731	9.714748	0.004913	-0.002025	0.003937
38277	0.367370	0.200293	9.684947	0.000083	-0.001863	0.007665
38278	0.385011	0.200991	9.714727	0.001290	-0.001904	0.006733
38279	0.391382	0.200170	9.691115	0.003430	-0.001959	0.007009
38280	0.398367	0.223797	9.666604	0.002498	-0.001945	0.005801
38281	0.379354	0.202704	9.738293	0.002522	-0.000018	0.005766
38282	0.344570	0.201597	9.678709	0.002223	-0.001919	0.007941
38283	0.385831	0.202103	9.714672	0.002773	-0.001971	0.003661
38284	0.415719	0.200922	9.697250	0.002247	0.000008	0.007906
38285	0.362956	0.227224	9.707572	0.000933	-0.000015	0.001208
38286	0.361815	0.178625	9.709367	0.003155	-0.001935	0.009150
38287	0.392331	0.201898	9.691041	0.003455	-0.000034	0.006974
38288	0.386370	0.203236	9.714627	0.003405	-0.003888	0.007045
38289	0.380407	0.204533	9.738213	0.002523	-0.000019	0.005765
38290	0.346155	0.227881	9.677731	0.003455	-0.000034	0.006974
38291	0.381070	0.229455	9.737295	0.002523	-0.000019	0.005766
38292	0.393066	0.203298	9.690982	0.004313	-0.005832	0.008290
38293	0.387200	0.204657	9.714564	0.002798	-0.000046	0.003625
38294	0.387302	0.204732	9.714558	-0.000850	-0.001850	0.006457
38295	0.363791	0.205177	9.708369	0.002523	-0.000020	0.005765
38296	0.394412	0.228444	9.690029	0.004338	-0.003906	0.008254
38297	0.393978	0.204343	9.690923	0.002248	0.000005	0.007906
38298	0.387833	0.205633	9.714518	0.003456	-0.000036	0.006974
38299	0.370583	0.205245	9.684721	0.002472	-0.003876	0.005837
38300	0.388235	0.206013	9.714494	0.000383	0.000036	0.005489
38301	0.394045	0.180900	9.691786	0.006727	-0.005917	0.006426
38302	0.365217	0.207097	9.708275	0.001316	0.000020	0.006697
38303	0.365880	0.231589	9.707359	0.001316	0.000020	0.006697
38304	0.372051	0.230660	9.683754	0.001591	-0.000006	0.004557
38305	0.395121	0.206032	9.690841	0.002223	-0.001924	0.007942
38306	0.389258	0.207205	9.714427	0.000989	-0.003810	0.008910
38307	0.372659	0.231088	9.683721	0.002523	-0.000022	0.005765
38308	0.372113	0.207008	9.684625	0.004363	-0.001982	0.008218
38309	0.395932	0.206786	9.690792	0.000083	-0.001867	0.007666
38310	0.383816	0.208950	9.737986	0.001565	-0.001934	0.004593
38311	0.365044	0.159813	9.710034	0.004690	0.001846	0.006005
38312	0.372452	0.207861	9.684594	0.002523	-0.000023	0.005765
38313	0.372559	0.208005	9.684586	0.001015	-0.001884	0.008874
38314	0.389646	0.184402	9.715270	0.002471	-0.003879	0.005838
38315	0.360745	0.210485	9.731763	0.002524	-0.000024	0.005765
38316	0.366920	0.209719	9.708154	0.004115	-0.000032	0.010322
38317	0.396614	0.208411	9.690729	0.000136	0.001987	0.007593
38318	0.366763	0.210057	9.708153	0.003731	-0.000067	0.004833
38319	0.343257	0.210762	9.701965	0.002497	-0.001952	0.005802
38320	0.373814	0.233885	9.683609	0.002524	-0.000025	0.005765
38321	0.374604	0.258554	9.682674	0.003704	-0.001995	0.004870
38322	0.391501	0.235175	9.713363	0.004389	-0.000059	0.008182
38323	0.368183	0.235803	9.707170	0.000303	-0.005749	0.005599
38324	0.373257	0.185974	9.685408	0.000384	0.000034	0.005489
38325	0.385169	0.212069	9.737865	0.000136	0.001986	0.007593
38326	0.367812	0.211593	9.708080	0.003677	-0.003923	0.004906
38327	0.373571	0.186415	9.685387	0.002497	-0.001954	0.005802
38328	0.397386	0.186141	9.691550	0.001289	-0.001911	0.006734
38329	0.374569	0.211166	9.684440	0.003457	-0.000044	0.006973
38330	0.391450	0.187655	9.715136	0.001838	-0.001962	0.002453
38331	0.351351	0.212035	9.678242	0.002469	-0.003882	0.005838
38332	0.392544	0.212456	9.714182	0.002552	0.001901	0.005728
38333	0.368152	0.188716	9.708938	0.002250	-0.000002	0.007906
38334	0.369565	0.237755	9.707070	0.003731	-0.000070	0.004833
38335	0.375034	0.212618	9.684391	0.003457	-0.000045	0.006973
38336	0.375049	0.212841	9.684385	0.001591	-0.000010	0.004557
38337	0.398774	0.212617	9.690549	0.003429	-0.001973	0.007010
38338	0.392831	0.213943	9.714138	0.002222	-0.001930	0.007942
38339	0.369414	0.214489	9.707955	0.000356	-0.001895	0.005526
38340	0.369426	0.214610	9.707952	0.002552	0.001899	0.005728
38341	0.370155	0.239306	9.707009	0.004362	-0.001992	0.008218
38342	0.393885	0.239102	9.713171	0.001317	0.000014	0.006697
38343	0.352102	0.214699	9.678156	0.002524	-0.000029	0.005765
38344	0.399349	0.213953	9.690496	0.001317	0.000014	0.006697
38345	0.392688	0.190814	9.715024	0.002468	-0.003884	0.005839
38346	0.370084	0.215857	9.707900	0.002222	-0.001932	0.007943
38347	0.393089	0.191097	9.715002	0.000110	0.000057	0.007630
38348	0.369575	0.191537	9.708828	0.000082	-0.001871	0.007667
38349	0.393391	0.191175	9.714988	0.002496	-0.001958	0.005802
38350	0.346358	0.192322	9.702637	0.002496	-0.001958	0.005802
38351	0.377043	0.215269	9.684254	0.000356	-0.001897	0.005526
38352	0.370278	0.192078	9.708791	0.002251	-0.000006	0.007906
38353	0.377162	0.215472	9.684245	0.000385	0.000031	0.005489
38354	0.401615	0.239506	9.689466	0.002496	-0.001959	0.005802
38355	0.377568	0.215894	9.684220	0.004333	-0.003924	0.008256
38356	0.371539	0.217298	9.707812	0.002554	0.001896	0.005728
38357	0.372295	0.241993	9.706861	0.004362	-0.001997	0.008218
38358	0.372409	0.242241	9.706850	0.001318	0.000012	0.006697
38359	0.371782	0.218061	9.707785	0.003429	-0.001979	0.007010
38360	0.371990	0.218368	9.707771	0.003429	-0.001979	0.007010
38361	0.372098	0.218530	9.707763	0.000385	0.000030	0.005489
38362	0.395913	0.218123	9.713920	0.001533	-0.003869	0.004632
38363	0.378548	0.217748	9.684140	0.004147	0.001882	0.010284
38364	0.378569	0.218039	9.684133	0.002496	-0.001961	0.005802
38365	0.388615	0.171218	9.739389	0.002496	-0.001961	0.005802
38366	0.377567	0.169726	9.686000	0.002740	-0.003913	0.003699
38367	0.372474	0.195437	9.708640	0.002222	-0.001937	0.007943
38368	0.373429	0.220024	9.707678	0.002496	-0.001961	0.005802
38369	0.402634	0.194243	9.691175	0.002222	-0.001937	0.007943
38370	0.380067	0.219318	9.684045	0.002466	-0.003890	0.005840
38371	0.356078	0.195524	9.678818	0.000052	-0.003802	0.007705
38372	0.374524	0.220729	9.707620	0.004666	-0.000098	0.006040
38373	0.381343	0.244207	9.683061	0.000142	0.001982	0.007592
38374	0.380690	0.219984	9.684005	0.003672	-0.003935	0.004907
38375	0.374857	0.221421	9.707591	0.003429	-0.001982	0.007010
38376	0.351347	0.222083	9.701423	0.000386	0.000029	0.005489
38377	0.356729	0.196807	9.678768	0.004666	-0.000099	0.006040
38378	0.381226	0.221030	9.683961	0.002769	-0.001988	0.003662
38379	0.367531	0.174776	9.733073	0.003073	-0.000084	0.001483
38380	0.350909	0.198816	9.702343	0.002271	-0.002070	-0.009457
38381	0.379120	0.148636	9.686809	0.001013	0.001776	-0.016230
38382	0.349164	0.150398	9.704260	0.000129	0.001660	-0.034839
38383	0.368118	0.200032	9.732106	0.001712	-0.002352	-0.047607
38384	0.374837	0.223468	9.707545	-0.001821	0.003556	-0.044922
38385	0.381459	0.246859	9.682989	0.001419	-0.000270	-0.028103
38386	0.392149	0.224479	9.737308	0.001888	-0.002108	-0.014946
38387	0.405225	0.246826	9.689132	0.001207	-0.000044	-0.000933
38388	0.397661	0.199441	9.714648	0.004666	-0.000090	0.006040
38389	0.386326	0.198019	9.661272	0.002800	-0.000054	0.003624
38390	0.374419	0.224813	9.707530	0.001433	0.007727	0.006545
38391	0.379913	0.223753	9.683950	0.000198	0.005843	0.007516
38392	0.372497	0.200430	9.708537	-0.000736	0.005861	0.006308
38393	0.349053	0.225302	9.701432	0.001679	0.005773	0.004443
38394	0.486095	0.268217	9.659577	-0.005175	0.013722	0.007745
38395	0.572722	0.310571	9.605650	-0.029056	0.072272	0.004507
38396	0.484961	0.260142	9.613218	-0.057742	0.121226	-0.004584
38397	0.314083	0.165339	9.728098	-0.070744	0.142616	-0.019774
38398	0.163287	0.115995	9.769857	-0.056614	0.116994	-0.030464
38399	0.208364	0.134102	9.758145	-0.032304	0.068109	-0.029555
38400	0.209674	0.130835	9.734708	-0.013936	0.033075	-0.006848
38401	0.292699	0.175472	9.704724	0.000398	0.001952	0.005455
38402	0.466514	0.240248	9.622054	-0.007849	0.023349	0.003942
38403	0.133866	0.034600	9.796519	-0.027154	0.058544	0.005054
38404	0.316370	0.219419	9.685994	0.002112	-0.007703	0.008052
38405	0.291112	0.147013	9.682309	0.004336	-0.001993	0.008230
38406	0.333440	0.196123	9.716734	0.001044	0.001954	0.008806
38407	0.291044	0.147322	9.682307	0.001016	0.000030	0.008841
38408	0.302776	0.173395	9.734868	0.001016	0.000030	0.008841
38409	0.316108	0.195928	9.686845	0.004365	-0.000072	0.008195
38410	0.302813	0.173971	9.734857	0.003155	-0.000031	0.009124
38411	0.270471	0.246151	9.672426	0.000821	0.000099	0.018611
38412	0.333477	0.196997	9.716715	0.001275	0.000169	0.031732
38413	0.314831	0.147821	9.688601	0.003947	-0.001862	0.027770
38414	0.309235	0.173646	9.711274	0.005440	0.003796	0.016966
38415	0.344960	0.171593	9.670464	0.006874	0.005609	0.006232
38416	0.685875	-0.059869	9.595868	0.034135	0.052874	0.002324
38417	0.569512	-0.000242	9.616565	0.104113	0.175548	-0.029072
38418	0.305076	0.168108	9.695688	0.122360	0.212996	-0.064452
38419	0.255999	0.230169	9.711251	0.115248	0.209094	-0.068581
38420	0.241220	0.216194	9.688970	0.119678	0.210783	-0.052771
38421	0.354619	0.149753	9.654534	0.131686	0.233269	-0.042930
38422	0.293379	0.166492	9.695525	0.154352	0.274534	-0.029882
38423	0.189946	0.233213	9.697282	0.165705	0.296815	-0.023390
38424	0.018214	0.280983	9.756256	0.173198	0.284772	-0.015497
38425	-0.094297	0.448755	9.798569	0.165381	0.248535	-0.001497
38426	-0.370034	0.542292	9.819368	0.069940	0.086264	0.058951
38427	0.279774	0.158487	9.727880	0.071125	0.063758	0.094619
38428	0.236118	0.530450	9.695808	0.050098	0.106328	0.092623
38429	0.140137	0.341782	9.708423	0.030269	0.163780	0.068554
38430	0.070324	0.370900	9.716765	0.023363	0.188518	0.058143
38431	0.004899	0.373579	9.702797	0.015303	0.200125	0.062101
38432	-0.020302	0.400390	9.724842	0.005479	0.196507	0.061853
38433	0.013951	0.397700	9.715673	-0.013257	0.210449	0.071789
38434	0.017150	0.419747	9.721672	-0.024850	0.227757	0.070671
38435	-0.054038	0.343624	9.711123	-0.057224	0.228783	0.075612
38436	-0.070760	0.288182	9.690302	-0.052562	0.232159	0.074044
38437	-0.099182	0.309376	9.712317	-0.043449	0.227779	0.071191
38438	-0.097974	0.304987	9.719554	-0.037303	0.231151	0.074231
38439	-0.098377	0.276695	9.727997	-0.033422	0.240209	0.071313
38440	-0.141281	0.200862	9.700586	-0.007037	0.259517	0.044320
38441	-0.149529	0.250857	9.728568	0.014981	0.277124	0.024364
38442	-0.176588	0.277233	9.726878	0.025699	0.300849	0.014498
38443	-0.199083	0.278157	9.703072	0.022174	0.319448	0.011248
38444	-0.260589	0.306992	9.716493	0.027784	0.333851	0.005210
38445	-0.285837	0.308264	9.692372	0.027717	0.346612	0.007046
38446	-0.327130	0.336879	9.713092	0.029543	0.364902	0.011230
38447	-0.371061	0.312605	9.658847	0.018708	0.372452	0.024544
38448	-0.517211	0.271485	9.673353	0.026699	0.371631	0.022646
38449	-0.482455	0.297466	9.694633	0.041919	0.359278	0.015750
38450	-0.456446	0.273680	9.664484	0.054412	0.369509	0.014347
38451	-0.522855	0.305925	9.675904	0.063711	0.381737	0.018926
38452	-0.515224	0.287291	9.691687	0.077338	0.386235	0.016835
38453	-0.545448	0.293897	9.666464	0.089876	0.412889	-0.001425
38454	-0.639624	0.330273	9.668088	0.103342	0.435733	-0.012811
38455	-0.710124	0.415274	9.675084	0.101223	0.438770	-0.018761
38456	-0.762060	0.401414	9.695537	0.085392	0.429490	-0.017005
38457	-0.812443	0.410650	9.714555	0.074718	0.425556	-0.018871
38458	-0.842701	0.463751	9.685462	0.052328	0.425866	-0.016524
38459	-0.856957	0.368792	9.673331	0.045337	0.431153	-0.008122
38460	-0.942304	0.398322	9.649682	0.040145	0.421714	0.006580
38461	-0.975548	0.352098	9.625631	0.044222	0.413611	0.007655
38462	-0.978729	0.382058	9.661254	0.059978	0.417600	-0.015744
38463	-0.942145	0.408778	9.661422	0.059228	0.438950	-0.020972
38464	-1.098475	0.392584	9.610284	0.063323	0.448996	-0.029263
38465	-1.180531	0.450751	9.637379	0.059222	0.435744	-0.026348
38466	-1.199810	0.455199	9.641745	0.048384	0.426563	-0.017254
38467	-1.261654	0.484063	9.625136	0.039205	0.415501	-0.011077
38468	-1.334809	0.440826	9.634865	0.030914	0.388080	-0.005285
38469	-1.340624	0.462456	9.561560	0.022727	0.378800	-0.008924
38470	-1.352125	0.466950	9.621002	0.021370	0.367373	-0.018764
38471	-1.432209	0.445157	9.596942	0.017974	0.350827	-0.014516
38472	-1.506941	0.450492	9.625916	0.011669	0.318470	0.011730
38473	-1.450914	0.443917	9.553689	0.008102	0.295113	0.036066
38474	-1.412786	0.444089	9.580601	0.011772	0.296600	0.044587
38475	-1.376019	0.444194	9.607654	0.007444	0.319855	0.036193
38476	-1.430234	0.445628	9.592369	0.003397	0.353848	0.027488
38477	-1.519339	0.448776	9.587749	-0.002507	0.369889	0.025606
38478	-1.609463	0.451208	9.582471	-0.011100	0.375151	0.020136
38479	-1.624907	0.422526	9.534119	-0.012918	0.373029	0.023125
38480	-1.673732	0.374891	9.552560	-0.008307	0.374071	0.013093
38481	-1.750063	0.424472	9.521656	0.001665	0.364243	0.012466
38482	-1.773111	0.426241	9.548137	0.002165	0.347824	0.023142
38483	-1.752501	0.399708	9.543912	0.000434	0.338658	0.029711
38484	-1.750411	0.449822	9.579191	0.001803	0.349023	0.034146
38485	-1.740518	0.446539	9.540907	0.002835	0.368213	0.031535
38486	-1.822186	0.427071	9.567309	0.003977	0.392583	0.019884
38487	-1.802655	0.470469	9.504035	0.000828	0.420768	0.021499
38488	-1.865476	0.471055	9.484557	-0.005938	0.450648	0.011020
38489	-1.976191	0.450702	9.496833	-0.012871	0.464575	0.013274
38490	-2.095895	0.453085	9.473789	-0.016394	0.460638	0.022560
38491	-2.041643	0.448190	9.490289	-0.011713	0.447344	0.016431
38492	-2.075674	0.396667	9.462267	-0.015311	0.464494	0.006015
38493	-2.132725	0.397217	9.473520	-0.005873	0.487843	-0.027992
38494	-2.238543	0.470575	9.422772	-0.007562	0.488925	-0.034035
38495	-2.319815	0.422489	9.423357	-0.012256	0.469050	-0.034601
38496	-2.396521	0.422851	9.421349	-0.013706	0.449206	-0.026481
38497	-2.425291	0.419134	9.389900	-0.014993	0.422354	-0.023682
38498	-2.357295	0.387179	9.389196	-0.015749	0.414879	-0.021385
38499	-2.320407	0.406424	9.394935	-0.014593	0.430245	-0.008109
38500	-2.340425	0.428506	9.395969	-0.019407	0.468477	-0.003960
38501	-2.406923	0.426732	9.371767	-0.028430	0.504977	-0.000938
38502	-2.509859	0.426772	9.354129	-0.029662	0.533979	-0.002202
38503	-2.581060	0.424291	9.327533	-0.031025	0.547103	-0.011974
38504	-2.667675	0.398907	9.321823	-0.028537	0.558226	-0.027316
38505	-2.807229	0.400359	9.308232	-0.028540	0.548584	-0.039352
38506	-2.932221	0.375585	9.274926	-0.028341	0.502673	-0.035558
38507	-2.922739	0.369716	9.267386	-0.021574	0.458516	-0.019727
38508	-2.845221	0.435767	9.298394	-0.032249	0.439546	0.006989
38509	-2.773308	0.400127	9.246773	-0.039543	0.460147	0.017695
38510	-2.852800	0.374820	9.241022	-0.041648	0.499421	0.023766
38511	-2.947490	0.375773	9.252830	-0.033695	0.520792	0.014295
38512	-3.078813	0.326996	9.183702	-0.024676	0.526585	0.011306
38513	-3.120915	0.326582	9.201486	-0.013949	0.521960	0.005798
38514	-3.080154	0.344915	9.186621	-0.003706	0.532722	-0.018430
38515	-3.056980	0.340271	9.192588	-0.005043	0.564495	-0.040192
38516	-3.148863	0.363853	9.144825	-0.004625	0.604678	-0.052575
38517	-3.279551	0.340779	9.102583	-0.000878	0.615542	-0.056177
38518	-3.383016	0.366877	9.105676	-0.002866	0.616362	-0.056816
38519	-3.445013	0.339291	9.051625	-0.005148	0.607033	-0.047016
38520	-3.528984	0.340415	9.069525	-0.007591	0.592635	-0.040540
38521	-3.551182	0.359480	9.009155	-0.006454	0.583227	-0.040979
38522	-3.619713	0.334675	9.008639	-0.008134	0.572301	-0.036635
38523	-3.705076	0.334787	8.991912	-0.006374	0.561278	-0.035669
38524	-3.734485	0.356851	8.985656	-0.005471	0.545272	-0.032568
38525	-3.718174	0.349901	8.923959	-0.003547	0.536005	-0.038459
38526	-3.811095	0.377024	8.959526	-0.009726	0.537262	-0.033789
38527	-3.843588	0.372950	8.920284	-0.019468	0.533590	-0.029124
38528	-3.839823	0.343327	8.913203	-0.022298	0.539820	-0.017665
38529	-3.979375	0.319765	8.848756	-0.025296	0.537611	-0.009472
38530	-4.041903	0.318868	8.846211	-0.026123	0.518550	0.001143
38531	-4.050109	0.315966	8.857513	-0.028615	0.503023	0.022559
38532	-4.096172	0.313456	8.803008	-0.032305	0.487561	0.037772
38533	-4.190866	0.314324	8.769343	-0.043893	0.470718	0.043126
38534	-4.191406	0.337114	8.816134	-0.037926	0.454984	0.053931
38535	-4.252340	0.311016	8.747281	-0.042966	0.446343	0.054577
38536	-4.238372	0.306887	8.743268	-0.044553	0.439274	0.055339
38537	-4.260182	0.303917	8.706688	-0.042490	0.440431	0.056130
38538	-4.279185	0.326494	8.703671	-0.039494	0.446546	0.054840
38539	-4.353362	0.326439	8.651391	-0.045185	0.442986	0.057367
38540	-4.340138	0.298860	8.682813	-0.047993	0.454300	0.065267
38541	-4.379464	0.320768	8.627615	-0.048295	0.470457	0.055452
38542	-4.368749	0.316149	8.622751	-0.048962	0.493226	0.055778
38543	-4.496362	0.344663	8.618686	-0.049362	0.517576	0.052685
38544	-4.594049	0.320978	8.579475	-0.058273	0.514024	0.051526
38545	-4.582920	0.363200	8.537335	-0.069188	0.508884	0.069394
38546	-4.627502	0.335903	8.514828	-0.085727	0.505607	0.089558
38547	-4.738999	0.337304	8.491357	-0.090840	0.503581	0.093371
38548	-4.785922	0.260489	8.469505	-0.094206	0.491664	0.078260
38549	-4.761772	0.203249	8.448061	-0.078417	0.490575	0.068569
38550	-4.783431	0.248001	8.441013	-0.061166	0.507597	0.048534
38551	-4.859991	0.247042	8.381280	-0.054157	0.513412	0.040861
38552	-4.889860	0.194803	8.374776	-0.041445	0.519101	0.014502
38553	-4.898615	0.188961	8.315494	-0.019546	0.540907	-0.023548
38554	-5.028792	0.217115	8.302175	0.001515	0.546230	-0.049778
38555	-5.092027	0.216854	8.291092	0.018185	0.543388	-0.052957
38556	-5.253627	0.248540	8.240337	0.024329	0.511446	-0.042371
38557	-5.313392	0.225712	8.231383	0.028352	0.456854	-0.039280
38558	-5.194258	0.240421	8.234014	0.039156	0.423409	-0.041915
38559	-5.141416	0.284733	8.233589	0.040085	0.434441	-0.040539
38560	-5.211289	0.263004	8.174426	0.033223	0.442471	-0.037880
38561	-5.281856	0.265853	8.148689	0.028399	0.442279	-0.037672
38562	-5.266468	0.287371	8.145776	0.024967	0.451788	-0.034685
38563	-5.323894	0.265022	8.137737	0.027927	0.461020	-0.027557
38564	-5.306180	0.260999	8.065508	0.032736	0.476788	-0.047084
38565	-5.400514	0.240633	8.052071	0.044924	0.505200	-0.061081
38566	-5.440214	0.265439	8.023815	0.049709	0.519157	-0.062696
38567	-5.552167	0.295411	8.022409	0.036824	0.514210	-0.048335
38568	-5.521023	0.290602	7.966914	0.023521	0.507650	-0.025781
38569	-5.495150	0.262095	7.946449	0.010189	0.522178	-0.014519
38570	-5.555259	0.287948	7.931576	0.008757	0.550821	-0.012242
38571	-5.718257	0.270609	7.869082	0.005975	0.555251	-0.016056
38572	-5.765583	0.270837	7.871958	0.002504	0.537106	-0.014885
38573	-5.788447	0.268445	7.826089	-0.006167	0.536909	-0.011892
38574	-5.797871	0.240568	7.800060	-0.007631	0.536492	-0.016183
38575	-5.788314	0.211039	7.759076	-0.001756	0.553529	-0.024458
38576	-5.830752	0.233642	7.725777	0.004040	0.581797	-0.039061
38577	-5.873015	0.206598	7.657085	0.017593	0.609725	-0.054560
38578	-6.011955	0.235629	7.657554	0.031139	0.621537	-0.068460
38579	-6.001929	0.205369	7.577605	0.041712	0.631794	-0.076548
38580	-6.110119	0.208196	7.581088	0.048938	0.642138	-0.085135
38581	-6.187697	0.282317	7.534850	0.050181	0.628598	-0.069505
38582	-6.323442	0.262662	7.497681	0.038033	0.601198	-0.059373
38583	-6.388561	0.238853	7.474797	0.028128	0.556247	-0.045240
38584	-6.421564	0.237155	7.406787	0.024199	0.508070	-0.042546
38585	-6.422505	0.258680	7.381991	0.022413	0.467902	-0.038894
38586	-6.409214	0.255201	7.380138	0.014870	0.445515	-0.035079
38587	-6.442851	0.229829	7.352398	0.013103	0.426167	-0.028209
38588	-6.397776	0.248657	7.305917	0.006882	0.419719	-0.021599
38589	-6.423099	0.247966	7.333152	0.000126	0.424431	-0.018002
38590	-6.505805	0.248852	7.223301	-0.004037	0.417941	-0.015200
38591	-6.465274	0.219786	7.266365	-0.006085	0.419332	-0.011406
38592	-6.385351	0.260831	7.228124	-0.010234	0.449334	-0.006940
38593	-6.466880	0.237526	7.169319	-0.012787	0.490345	-0.009240
38594	-7.266763	0.770493	7.326735	-0.039138	0.481377	-0.028816
38595	-6.792730	-0.029588	7.033947	-0.107365	0.328238	-0.103857
38596	-6.638748	0.192337	7.141016	-0.097440	0.308699	-0.082892
38597	-6.596002	0.224282	7.082424	-0.103995	0.332502	-0.092063
38598	-6.697474	0.190116	7.075759	-0.115948	0.359572	-0.098165
38599	-6.748242	0.103282	7.064272	-0.116659	0.362561	-0.101099
38600	-6.795236	0.138371	6.997723	-0.116815	0.352847	-0.094769
38601	-6.840463	0.125181	6.986649	-0.117963	0.332102	-0.085094
38602	-6.909385	0.089324	6.934368	-0.123235	0.308316	-0.072791
38603	-6.857313	0.145433	6.987140	-0.137604	0.287887	-0.053371
38604	-6.902924	0.085313	6.925546	-0.150818	0.265772	-0.023266
38605	-7.451949	-0.187553	6.726397	-0.125671	0.112835	0.076146
38606	-6.788806	0.069565	6.892952	-0.095939	-0.022247	0.106621
38607	-6.910232	0.052085	6.876798	-0.093058	0.006134	0.096696
38608	-6.971281	-0.017128	6.823778	-0.061860	0.004000	0.071251
38609	-6.911770	0.028825	6.876386	-0.037165	-0.005837	0.045828
38610	-6.920722	0.029903	6.910115	-0.022153	-0.009293	0.037171
38611	-6.877389	0.028565	6.887100	-0.016011	-0.010892	0.024524
38612	-6.884917	0.053924	6.921101	-0.009973	-0.006305	0.023012
38613	-6.863268	0.053581	6.909569	-0.003319	-0.003201	0.011862
38614	-6.874982	0.055087	6.888347	-0.000278	-0.000120	0.011109
38615	-6.896225	0.056801	6.900272	0.001485	-0.001685	0.005903
38616	-6.882907	0.080907	6.921933	0.001867	-0.001712	0.007381
38617	-6.851002	0.055145	6.931314	0.002579	-0.001693	0.004043
38618	-6.861408	0.080885	6.910245	0.003006	-0.000144	0.005527
38619	-6.894375	0.083430	6.900944	0.001779	-0.004863	0.007368
38620	-6.871885	0.058207	6.943584	0.005629	-0.000262	0.009576
38621	-6.862395	0.058745	6.910394	0.004100	-0.000153	0.003666
38622	-6.849285	0.082803	6.931833	0.001618	0.003042	0.005923
38623	-6.883899	0.060887	6.922056	0.001529	-0.000109	0.005910
38624	-6.874523	0.061183	6.888754	0.003094	0.003007	0.005540
38625	-6.862948	0.060833	6.909827	0.001280	0.004645	0.004452
38626	-6.863209	0.061327	6.909563	0.003094	0.003007	0.005540
38627	-6.884724	0.063028	6.921217	0.003094	0.003006	0.005540
38628	-6.873909	0.087729	6.888171	0.002961	-0.001720	0.005521
38629	-6.863387	0.063069	6.909371	0.004100	-0.000153	0.003667
38630	-6.884686	0.064665	6.921239	0.000052	-0.000073	0.006293
38631	-6.873870	0.089313	6.888190	0.001955	0.001439	0.007394
38632	-6.864788	0.040397	6.909141	0.003343	-0.001748	0.006998
38633	-6.863281	0.065380	6.909455	0.001484	-0.001685	0.005904
38634	-6.863051	0.065922	6.909679	0.002871	-0.004872	0.005508
38635	-6.874762	0.067378	6.888458	0.001956	0.001439	0.007394
38636	-6.862968	0.067173	6.909749	0.001911	-0.000137	0.007388
38637	-6.884208	0.068906	6.921674	0.002960	-0.001721	0.005521
38638	-6.864170	0.043994	6.909733	0.002960	-0.001721	0.005521
38639	-6.874433	0.069833	6.888761	0.004392	-0.003333	0.005132
38640	-6.885068	0.046396	6.921996	0.004392	-0.003333	0.005132
38641	-6.862186	0.070288	6.910495	0.001866	-0.001712	0.007382
38642	-6.850223	0.070179	6.931948	0.003725	-0.001776	0.008476
38643	-6.873825	0.072585	6.889340	0.003006	-0.000146	0.005527
38644	-6.862028	0.072327	6.910630	0.003051	0.001430	0.005533
38645	-6.863473	0.048517	6.910395	0.004100	-0.000155	0.003666
38646	-6.883364	0.074538	6.922455	-0.001042	-0.000063	0.008154
38647	-6.875178	0.050473	6.889182	0.003297	-0.003325	0.006993
38648	-6.872522	0.050599	6.944000	0.004346	-0.004910	0.005126
38649	-6.861412	0.075322	6.911210	0.001866	-0.001713	0.007382
38650	-6.862809	0.051563	6.911033	0.003052	0.001429	0.005533
38651	-6.861325	0.076648	6.911281	0.003679	-0.003353	0.008470
38652	-6.862619	0.052758	6.911212	0.000382	-0.000027	0.001478
38653	-6.861196	0.077513	6.911400	0.001912	-0.000137	0.007388
38654	-6.872067	0.053953	6.944426	0.001147	-0.000082	0.004433
38655	-6.861281	0.078513	6.911305	0.003098	0.003005	0.005539
38656	-6.894463	0.081130	6.901790	0.001866	-0.001713	0.007382
38657	-6.882499	0.080956	6.923242	0.003342	-0.001750	0.006999
38658	-6.871960	0.056346	6.944513	0.001483	-0.001685	0.005904
38659	-6.874209	0.057588	6.890093	0.002631	-0.001768	0.010337
38660	-6.848979	0.080997	6.933060	0.002960	-0.001723	0.005521
38661	-6.840819	0.056949	6.899794	0.000772	-0.001703	0.009243
38662	-6.873895	0.059536	6.890390	0.002624	-0.000120	0.004049
38663	-6.860554	0.083705	6.911965	0.003725	-0.001778	0.008476
38664	-6.863239	0.035736	6.911783	0.003296	-0.003327	0.006993
38665	-6.894823	0.062813	6.902615	0.004483	-0.000186	0.005143
38666	-6.840419	0.060211	6.900163	0.001576	0.001466	0.005916
38667	-6.848485	0.085452	6.933494	0.003006	-0.000148	0.005527
38668	-6.883163	0.063594	6.923754	0.001240	0.003069	0.004444
38669	-6.864335	0.063465	6.857246	0.001912	-0.000138	0.007388
38670	-6.875228	0.039993	6.890283	0.001530	-0.000110	0.005910
38671	-6.860434	0.088467	6.912025	0.004436	-0.001762	0.005138
38672	-6.863144	0.040345	6.911852	0.002913	-0.003300	0.005516
38673	-6.873364	0.066112	6.890860	0.001483	-0.001686	0.005905
38674	-6.882756	0.067080	6.924126	0.002295	-0.000165	0.008865
38675	-6.849489	0.065717	6.933706	0.002913	-0.003300	0.005516
38676	-6.882507	0.068366	6.924360	0.001912	-0.000138	0.007388
38677	-6.859739	0.092189	6.912666	0.001912	-0.000138	0.007388
38678	-6.874527	0.044982	6.890951	0.003436	0.001399	0.007010
38679	-6.861271	0.069138	6.912406	0.000436	-0.000100	0.007771
38680	-6.861312	0.069715	6.912360	0.003053	0.001427	0.005532
38681	-6.884166	0.047195	6.923964	0.003436	0.001399	0.007010
38682	-6.840036	0.069784	6.900452	0.001435	-0.003262	0.005900
38683	-6.882566	0.072829	6.924256	0.004912	0.001360	0.006626
38684	-6.849354	0.071488	6.933783	0.001818	-0.003289	0.007377
38685	-6.894157	0.075009	6.903158	0.002959	-0.001725	0.005522
38686	-6.841063	0.047924	6.900700	0.001482	-0.001686	0.005905
38687	-6.882071	0.075247	6.924722	0.002959	-0.001725	0.005522
38688	-6.862118	0.050320	6.912806	0.003341	-0.001753	0.006999
38689	-6.881819	0.076609	6.924958	0.003341	-0.001753	0.006999
38690	-6.852410	0.051516	6.879840	0.004106	-0.001808	0.009954
38691	-6.872164	0.077745	6.891935	0.002242	-0.000095	0.002572
38692	-6.861732	0.052977	6.913169	0.002959	-0.001726	0.005522
38693	-6.881537	0.079200	6.925209	0.000866	0.001449	0.009254
38694	-6.861706	0.054165	6.913185	0.003670	-0.001710	0.002183
38695	-6.873429	0.055542	6.891970	0.001865	-0.001714	0.007383
38696	-6.902574	0.082129	6.937322	0.001865	-0.001714	0.007383
38697	-6.861397	0.055830	6.913479	0.001148	-0.000083	0.004433
38698	-6.871797	0.081608	6.892256	0.003437	0.001398	0.007009
38699	-6.870935	0.057324	6.946591	0.000054	-0.000071	0.006294
38700	-6.861473	0.057368	6.913391	0.001148	-0.000083	0.004433
38701	-6.873140	0.058835	6.892230	0.003627	-0.004933	0.008467
38702	-6.851663	0.058379	6.880529	0.003389	-0.000179	0.007004
38703	-6.862538	0.035094	6.913647	0.003341	-0.001754	0.006999
38704	-6.860920	0.060135	6.913917	0.001865	-0.001715	0.007383
38705	-6.883590	0.037612	6.925757	0.002958	-0.001727	0.005522
38706	-6.871184	0.086561	6.892807	0.003104	0.003000	0.005536
38707	-6.870328	0.062326	6.947148	0.001864	-0.001715	0.007383
38708	-6.839514	0.061345	6.902129	0.001913	-0.000139	0.007388
38709	-6.868796	0.087948	6.947314	0.003055	0.001424	0.005532
38710	-6.839705	0.062512	6.901930	0.001628	0.003040	0.005920
38711	-6.881161	0.089827	6.925453	0.001391	0.007795	0.004457
38712	-6.747919	0.081384	7.016180	0.001319	0.040894	0.006418
38713	-6.868363	0.040816	6.907829	0.001814	0.069278	0.005027
38714	-6.937451	0.069824	6.884639	-0.000053	0.056710	0.005372
38715	-6.906174	0.092477	6.890924	0.003508	0.040860	0.002699
38716	-6.890421	0.042762	6.876242	-0.002644	0.033144	0.004203
38717	-6.900720	0.067774	6.907295	0.003264	0.032981	0.002677
38718	-6.870101	0.066192	6.914356	0.001647	0.039277	0.007894
38719	-6.830467	0.064262	6.887730	0.002657	0.048739	0.004585
38720	-6.809606	0.087322	6.926499	0.001534	0.072426	0.003562
38721	-6.883086	0.067406	6.901420	-0.000017	0.094560	0.001054
38722	-6.869003	0.066209	6.882401	-0.000810	0.116629	0.001505
38723	-6.888824	0.042405	6.906773	0.001584	0.133858	0.002662
38724	-6.920248	0.068603	6.854455	-0.001784	0.144989	0.000498
38725	-6.941694	0.044676	6.877148	-0.000838	0.151200	0.003480
38726	-6.953895	0.045309	6.812030	0.000313	0.152731	0.001634
38727	-6.984164	0.071141	6.813218	0.003221	0.151048	0.000883
38728	-7.005603	0.072265	6.781541	0.000291	0.140065	0.003076
38729	-6.973648	0.020649	6.802888	-0.000453	0.140096	0.000118
38730	-6.947538	0.067338	6.803104	-0.000850	0.151060	0.003492
38731	-6.958447	0.067390	6.791945	0.000108	0.169935	-0.001251
38732	-6.982221	0.043487	6.812337	0.001380	0.187127	0.001779
38733	-6.994960	0.068583	6.744476	0.000606	0.198093	0.003673
38734	-7.031619	0.045563	6.741547	0.000821	0.204398	-0.002591
38735	-7.021702	0.068176	6.770244	0.000406	0.215322	0.000786
38736	-7.060746	0.045605	6.711036	-0.000590	0.231002	0.001216
38737	-7.076488	0.045698	6.694433	0.001133	0.238743	0.000894
38738	-7.102046	0.071097	6.655996	0.000006	0.238687	0.002745
38739	-7.130180	0.047653	6.617417	-0.001003	0.229264	-0.000252
38740	-7.211827	0.027671	6.579974	0.001054	0.213398	0.003788
38741	-7.168782	0.048458	6.620110	0.001353	0.186683	0.001844
38742	-7.235147	0.052048	6.607341	-0.001704	0.172590	0.003980
38743	-7.201013	0.074091	6.573654	0.002006	0.159925	0.001390
38744	-7.180153	0.047847	6.573094	0.000675	0.153641	0.003203
38745	-7.201135	0.048617	6.594896	0.002409	0.150412	0.004329
38746	-7.189457	0.047766	6.572945	0.002304	0.158244	0.002881
38747	-7.220449	0.073666	6.572287	0.000715	0.166112	0.001780
38748	-7.211097	0.048183	6.549195	0.001952	0.169198	-0.000034
38749	-7.233841	0.048698	6.569129	0.003532	0.183238	-0.001797
38750	-7.224308	0.047501	6.544787	-0.000246	0.194248	0.000775
38751	-7.236419	0.048039	6.475989	-0.001248	0.198911	0.002632
38752	-7.260995	0.048497	6.493829	-0.001298	0.208278	0.001195
38753	-7.254492	0.022912	6.467406	-0.002012	0.222314	0.003096
38754	-7.277669	0.071984	6.483933	-0.003883	0.231734	0.000509
38755	-7.316679	0.048778	6.476738	-0.006909	0.245778	0.006061
38756	-7.299102	0.047219	6.415538	-0.004800	0.255016	0.007274
38757	-7.329112	0.023030	6.428687	-0.021172	0.266353	0.009499
38758	-7.343555	0.071368	6.409225	-0.022123	0.278706	0.017689
38759	-7.373474	0.047680	6.365835	-0.028860	0.291282	0.020900
38760	-7.370250	0.045901	6.333686	-0.030889	0.305359	0.016846
38761	-7.380051	0.044323	6.332778	-0.022377	0.322258	0.010549
38762	-7.426361	-0.003865	6.317602	-0.019722	0.342423	0.005573
38763	-7.433022	0.043670	6.259918	-0.015349	0.359380	0.001761
38764	-7.456047	0.042905	6.232482	-0.010607	0.377848	-0.000534
38765	-7.480174	0.041931	6.203512	-0.015395	0.398155	-0.003918
38766	-7.517960	0.041049	6.205305	-0.012336	0.410394	-0.005920
38767	-7.543651	0.039782	6.174057	-0.015044	0.419639	-0.005214
38768	-7.580974	0.014945	6.118841	-0.019006	0.436691	-0.004149
38769	-7.574877	0.035465	6.098463	-0.024671	0.456901	-0.004259
38770	-7.621484	0.035762	6.018167	-0.027309	0.469097	0.004248
38771	-7.664764	0.010199	6.013562	-0.033460	0.473731	0.003996
38772	-7.715702	0.009719	5.986372	-0.026950	0.470299	-0.001944
38773	-7.761661	0.010083	5.904495	-0.017880	0.472953	-0.003603
38774	-7.790961	-0.015847	5.867342	-0.017572	0.471273	-0.009867
38775	-7.830673	0.007146	5.863099	-0.015964	0.457011	-0.007243
38776	-7.875519	-0.016639	5.781862	-0.014503	0.438119	-0.004663
38777	-7.898649	0.006463	5.748637	-0.019416	0.416341	-0.002527
38778	-7.884021	-0.022314	5.753018	-0.017992	0.405274	-0.001377
38779	-7.842118	0.020691	5.750826	-0.019753	0.414519	-0.003998
38780	-7.842244	0.016172	5.785856	-0.018009	0.448471	-0.008393
38781	-7.846287	0.013166	5.740909	-0.022811	0.488676	-0.006895
38782	-7.852592	0.009994	5.692589	-0.031645	0.536648	-0.003038
38783	-7.976625	0.014537	5.603622	-0.039555	0.565974	0.000353
38784	-8.070092	0.016867	5.527348	-0.043370	0.573485	0.004246
38785	-8.148630	-0.005272	5.419118	-0.046634	0.557822	0.006102
38786	-8.209737	-0.029194	5.358977	-0.044190	0.515724	0.009672
38787	-8.220228	-0.030733	5.287685	-0.048866	0.472264	0.017406
38788	-8.206560	-0.012918	5.367232	-0.047310	0.439690	0.013530
38789	-8.198985	-0.038756	5.269800	-0.035540	0.429984	0.011600
38790	-8.209195	-0.066406	5.280143	-0.021983	0.438981	-0.002580
38791	-8.169197	-0.023722	5.277520	-0.017625	0.455777	-0.007512
38792	-8.132349	-0.005561	5.272307	-0.016831	0.497285	-0.009909
38793	-8.154711	-0.032779	5.252217	-0.019896	0.554229	-0.009911
38794	-8.237114	-0.007024	5.195260	-0.027852	0.606642	-0.010850
38795	-8.387317	-0.046789	4.997674	-0.027341	0.624852	-0.010520
38796	-8.509767	-0.090832	4.893574	-0.016814	0.585914	-0.015701
38797	-8.557167	-0.042835	4.854589	-0.010902	0.510070	-0.013284
38798	-8.462250	-0.053639	4.882775	-0.011901	0.469910	-0.012370
38799	-8.395279	-0.037749	4.896276	-0.011566	0.482064	-0.012142
38800	-8.384318	-0.042748	4.895848	-0.010798	0.515748	-0.013075
38801	-8.439688	-0.042244	4.833065	-0.010352	0.551009	-0.017002
38802	-8.466807	-0.044336	4.785381	-0.013022	0.577069	-0.019201
38803	-8.547536	-0.043138	4.722993	-0.009804	0.590651	-0.020787
38804	-8.562429	-0.044291	4.618694	-0.013703	0.608938	-0.018400
38805	-8.663420	-0.067409	4.580794	-0.017913	0.616478	-0.016206
38806	-8.670783	-0.045223	4.500128	-0.016830	0.596279	-0.015151
38807	-8.722242	-0.070399	4.453224	-0.017108	0.576103	-0.012425
38808	-8.638002	-0.080153	4.455638	-0.015582	0.577435	-0.012506
38809	-8.658335	-0.058861	4.429273	-0.015260	0.606483	-0.016486
38810	-8.668792	-0.109703	4.345017	-0.014570	0.638502	-0.017359
38811	-8.747717	-0.084312	4.274212	-0.013103	0.658326	-0.023149
38812	-8.799772	-0.085492	4.220476	-0.012504	0.662586	-0.016926
38813	-8.803688	-0.088701	4.157617	-0.013915	0.673184	-0.018057
38814	-8.860621	-0.113145	4.076943	-0.020128	0.674707	-0.019003
38815	-8.962369	-0.086741	4.005362	-0.018818	0.663758	-0.017755
38816	-8.939983	-0.091249	3.939867	-0.023840	0.639167	-0.014814
38817	-8.993335	-0.115539	3.861582	-0.018226	0.622073	-0.015538
38818	-8.985247	-0.096655	3.852207	-0.015495	0.611178	-0.015918
38819	-8.984318	-0.099721	3.794366	-0.012606	0.606407	-0.016165
38820	-8.954932	-0.080552	3.758559	-0.013699	0.621568	-0.014182
38821	-8.995838	-0.109519	3.776268	-0.013737	0.643059	-0.022821
38822	-9.077710	-0.080537	3.626813	-0.014487	0.659594	-0.014708
38823	-9.079428	-0.132287	3.562489	-0.016249	0.654972	-0.016202
38824	-9.154208	-0.105569	3.460479	-0.016627	0.644220	-0.017913
38825	-9.226542	-0.104301	3.382504	-0.012548	0.619532	-0.015567
38826	-9.219751	-0.133830	3.372297	-0.011698	0.587295	-0.013259
38827	-9.263243	-0.134266	3.321192	-0.010739	0.559652	-0.010854
38828	-9.255606	-0.112556	3.270391	-0.010261	0.523053	-0.016285
38829	-9.247542	-0.140928	3.244337	-0.009104	0.506154	-0.015168
38830	-9.262593	-0.118197	3.198960	-0.013792	0.498509	-0.012123
38831	-9.252743	-0.122233	3.175805	-0.015508	0.497093	-0.016663
38832	-9.244104	-0.125269	3.128327	-0.013910	0.501605	-0.016569
38833	-9.259930	-0.152971	3.104396	-0.012180	0.516911	-0.020791
38834	-9.328429	-0.173880	2.984015	-0.001497	0.519747	-0.022441
38835	-9.316281	-0.129367	2.962024	0.010378	0.505740	-0.022968
38836	-9.401993	-0.079762	2.919937	-0.006722	0.493905	-0.024492
38837	-9.419547	-0.153877	2.846821	-0.016377	0.466399	-0.015853
38838	-9.407868	-0.156421	2.803841	-0.030672	0.434302	-0.002727
38839	-9.418273	-0.133979	2.789591	-0.025010	0.411101	0.004302
38840	-9.403955	-0.112339	2.776321	-0.034292	0.406747	0.002744
38841	-9.369568	-0.187133	2.709554	-0.031285	0.406835	-0.003357
38842	-9.402882	-0.141069	2.722410	-0.028131	0.412909	-0.004720
38843	-9.462607	-0.136951	2.610480	-0.038897	0.410234	-0.010873
38844	-9.521730	-0.137772	2.572358	-0.046954	0.389395	-0.025148
38845	-9.458109	-0.124287	2.610629	-0.050172	0.380547	-0.034535
38846	-9.518691	-0.197062	2.496483	-0.051416	0.390253	-0.054119
38847	-9.527202	-0.179600	2.460903	-0.036216	0.382692	-0.067932
38848	-9.586180	-0.232137	2.397780	-0.035338	0.353488	-0.061061
38849	-9.617305	-0.189952	2.391689	-0.036039	0.324189	-0.049636
38850	-9.577429	-0.222427	2.385907	-0.036703	0.299381	-0.035044
38851	-9.535530	-0.204748	2.384432	-0.043122	0.295995	-0.018424
38852	-9.521491	-0.259593	2.403000	-0.050943	0.292886	-0.010990
38853	-9.433095	-0.267073	2.425768	-0.075422	0.319962	0.019897
38854	-9.533081	-0.185480	2.321869	-0.102935	0.339763	0.039806
38855	-9.468385	-0.233811	2.265796	-0.147923	0.323276	0.058273
38856	-9.524449	-0.251021	2.206296	-0.143868	0.334465	0.090779
38857	-9.575212	-0.190662	2.101850	-0.090038	0.333967	0.073726
38858	-9.585358	-0.236331	2.091350	-0.008429	0.327261	0.042001
38859	-9.566395	-0.162057	2.090767	0.012925	0.316391	0.034614
38860	-9.577663	-0.210427	2.106652	0.008236	0.304435	0.029536
38861	-9.560400	-0.185875	2.104617	0.013119	0.309162	0.022202
38862	-9.569704	-0.209023	2.096683	0.008793	0.333500	0.028939
38863	-9.550873	-0.205342	2.041176	0.018201	0.353069	0.032926
38864	-9.581731	-0.176255	2.006145	0.030848	0.377246	0.034131
38865	-9.589575	-0.172520	1.968643	0.033076	0.406371	0.030541
38866	-9.625227	-0.146927	1.976262	0.031065	0.440363	0.020826
38867	-9.604456	-0.166022	1.860226	0.030609	0.468317	0.007927
38868	-9.609639	-0.186178	1.764863	0.043053	0.475823	0.005665
38869	-9.646881	-0.186567	1.765467	0.052166	0.475677	0.006104
38870	-9.630926	-0.185742	1.721979	0.053311	0.477005	0.013866
38871	-9.666714	-0.136985	1.724530	0.037022	0.488293	0.007283
38872	-9.672423	-0.134925	1.652645	0.022490	0.498157	-0.003878
38873	-9.675886	-0.157273	1.554065	0.012727	0.508014	-0.017868
38874	-9.709963	-0.135469	1.527255	0.002906	0.517834	-0.030359
38875	-9.693557	-0.140306	1.479455	-0.012792	0.527878	-0.046288
38876	-9.705238	-0.171180	1.450508	-0.015162	0.535935	-0.055350
38877	-9.709539	-0.175652	1.373754	-0.022334	0.547022	-0.060055
38878	-9.723895	-0.184675	1.367348	-0.020142	0.577760	-0.062008
38879	-9.704720	-0.215203	1.287779	-0.023929	0.602619	-0.067617
38880	-9.748458	-0.191554	1.151081	-0.020803	0.604270	-0.068831
38881	-9.721372	-0.267719	1.020727	-0.016109	0.570322	-0.058757
38882	-9.782204	-0.249768	1.008397	-0.011235	0.540992	-0.050052
38883	-9.775686	-0.259599	1.032193	-0.004485	0.528498	-0.042191
38884	-9.780227	-0.239389	0.982156	-0.001508	0.527030	-0.041957
38885	-9.781407	-0.266249	0.905254	-0.006581	0.522511	-0.037928
38886	-9.766444	-0.271657	0.882534	-0.011060	0.522240	-0.022992
38887	-9.794240	-0.247965	0.828351	-0.017203	0.525018	-0.006592
38888	-9.789499	-0.270257	0.727751	-0.023400	0.519136	-0.007355
38889	-9.792491	-0.246490	0.679151	-0.021179	0.505234	-0.001418
38890	-9.782472	-0.274406	0.681182	-0.025629	0.494321	0.010078
38891	-9.780071	-0.247170	0.610408	-0.026904	0.497147	0.022336
38892	-9.806865	-0.244306	0.556724	-0.036105	0.492851	0.021233
38893	-9.805351	-0.288603	0.481644	-0.027779	0.484505	0.041860
38894	-9.783897	-0.285038	0.439936	-0.026085	0.475043	0.052514
38895	-9.831775	-0.204511	0.387714	-0.022881	0.467081	0.063395
38896	-9.811083	-0.247826	0.343741	-0.017133	0.473138	0.067357
38897	-9.812753	-0.241217	0.297666	-0.008170	0.465409	0.068188
38898	-9.837245	-0.208847	0.248575	0.001471	0.449772	0.075013
38899	-9.845048	-0.227706	0.226629	0.008528	0.442368	0.066428
38900	-9.838687	-0.171530	0.163461	0.008162	0.430554	0.055237
38901	-9.798410	-0.170086	0.157457	0.012208	0.421661	0.046242
38902	-9.823920	-0.213230	0.106570	0.004590	0.420406	0.045224
38903	-9.817304	-0.182912	0.043757	0.004278	0.414324	0.046539
38904	-9.824011	-0.179458	0.027482	0.002984	0.395743	0.053472
38905	-9.848282	-0.197780	-0.019278	0.002172	0.388372	0.046969
38906	-9.801291	-0.195520	-0.043914	0.013278	0.382214	0.043695
38907	-9.841908	-0.211317	-0.119291	0.017428	0.369493	0.056210
38908	-9.833987	-0.180171	-0.175653	0.015645	0.335780	0.053322
38909	-9.832103	-0.126625	-0.203462	0.015987	0.299061	0.046012
38910	-9.838549	-0.124253	-0.208158	0.020592	0.271718	0.031913
38911	-9.829494	-0.150043	-0.182072	0.018881	0.255202	0.020328
38912	-9.842615	-0.127058	-0.158719	0.011117	0.252652	0.009837
38913	-9.797965	-0.147648	-0.247837	0.007214	0.249858	0.004537
38914	-9.843934	-0.145182	-0.286185	0.004720	0.239315	-0.000808
38915	-9.820629	-0.170694	-0.303704	0.007370	0.229985	0.000844
38916	-9.827288	-0.171532	-0.302730	0.004142	0.223580	0.010960
38917	-9.811124	-0.143276	-0.368823	0.016032	0.210982	0.012394
38918	-9.796149	-0.163636	-0.436293	0.018444	0.184662	0.013469
38919	-9.850048	-0.185955	-0.445978	0.018185	0.149230	0.010745
38920	-9.840607	-0.135182	-0.478358	0.021313	0.106081	0.005216
38921	-9.832074	-0.139113	-0.433111	0.021993	0.069256	-0.003585
38922	-9.840049	-0.165420	-0.417251	0.017390	0.046255	-0.006593
38923	-9.824764	-0.163367	-0.466743	0.018275	0.018387	-0.005794
38924	-9.816678	-0.168014	-0.413148	0.019600	-0.012484	-0.008110
38925	-9.824304	-0.170204	-0.388188	0.017704	-0.023298	-0.007207
38926	-9.817477	-0.194236	-0.410784	0.010906	-0.021443	-0.012863
38927	-9.831886	-0.144298	-0.435671	0.009054	-0.029169	-0.011854
38928	-9.808819	-0.146726	-0.424541	0.010591	-0.044599	-0.013643
38929	-9.833562	-0.195493	-0.429834	0.009583	-0.066338	-0.009848
38930	-9.817511	-0.174665	-0.389948	0.009292	-0.087944	-0.010571
38931	-9.824680	-0.152738	-0.356242	0.010736	-0.092604	-0.010490
38932	-9.802383	-0.179506	-0.341958	0.007087	-0.080016	-0.015303
38933	-9.832635	-0.157503	-0.317447	0.006166	-0.064165	-0.027314
38934	-9.832753	-0.160279	-0.312355	0.000695	-0.039286	-0.028934
38935	-9.834066	-0.212184	-0.312586	0.000586	-0.022059	-0.036139
38936	-9.795936	-0.213953	-0.349920	0.000236	-0.012884	-0.032816
38937	-9.842420	-0.214541	-0.363314	0.001821	-0.014753	-0.023357
38938	-9.803972	-0.244494	-0.325439	0.001097	-0.016425	-0.018886
38939	-9.818190	-0.224610	-0.276517	0.002564	-0.001070	-0.016632
38940	-9.706584	-0.370134	-0.327519	0.001410	0.023652	0.033408
38941	-9.864802	-0.134348	-0.442416	0.000431	-0.006089	0.046232
38942	-9.818343	-0.216607	-0.277453	0.007324	-0.014688	0.020767
38943	-9.834217	-0.211746	-0.308101	0.002025	0.016067	0.028629
38944	-9.841961	-0.180987	-0.362018	0.005787	0.019213	0.024676
38945	-9.824529	-0.162192	-0.254744	0.006984	0.020970	0.017191
38946	-9.832161	-0.133348	-0.310243	0.002831	0.046391	-0.002753
38947	-9.825825	-0.181577	-0.341790	0.003352	0.057572	-0.014687
38948	-9.788745	-0.229880	-0.388981	0.002224	0.043513	-0.009118
38949	-9.803080	-0.179050	-0.419701	0.003104	0.024583	0.002795
38950	-9.809679	-0.185331	-0.321646	0.004788	0.019961	0.001369
38951	-9.825985	-0.207188	-0.356299	0.003638	0.029299	-0.000066
38952	-9.803437	-0.202998	-0.428079	0.001237	0.015316	0.003760
38953	-9.804102	-0.226256	-0.429722	0.004511	-0.014575	0.018802
38954	-9.841145	-0.177229	-0.385332	0.005577	-0.030087	0.020034
38955	-9.869876	-0.132737	-0.286897	0.003803	-0.018712	0.003108
38956	-9.833668	-0.204923	-0.329496	0.002521	-0.005710	-0.016782
38957	-9.819365	-0.227876	-0.376697	0.005800	-0.010656	-0.008694
38958	-9.803000	-0.206259	-0.343170	0.002338	-0.015589	0.002975
38959	-9.817985	-0.208386	-0.295823	0.003301	-0.003403	0.008138
38960	-9.818810	-0.202693	-0.373121	0.005683	0.009036	0.004258
38961	-9.803017	-0.204593	-0.343679	0.002276	0.015196	0.007006
38962	-9.834500	-0.198886	-0.406182	0.003249	0.010447	0.010103
38963	-9.826881	-0.226023	-0.354438	0.006120	-0.000428	0.010217
38964	-9.825592	-0.176423	-0.351034	0.004807	-0.003438	0.008374
38965	-9.826279	-0.199988	-0.352294	0.001791	-0.003367	0.007904
38966	-9.842058	-0.197213	-0.382438	0.006185	-0.006274	-0.000770
38967	-9.804613	-0.219806	-0.421326	0.004709	-0.028091	0.006057
38968	-9.819045	-0.197079	-0.369931	0.004631	-0.040723	0.014931
38969	-9.849257	-0.171714	-0.348147	0.003725	-0.048278	0.009923
38970	-9.826179	-0.172385	-0.336313	0.005459	-0.041812	-0.000426
38971	-9.826301	-0.172930	-0.332449	-0.000605	-0.036753	-0.010487
38972	-9.827743	-0.222477	-0.332082	0.004978	-0.035434	-0.006488
38973	-9.820416	-0.221825	-0.352121	0.002046	-0.029190	-0.006753
38974	-9.834665	-0.200689	-0.301130	0.003298	-0.030809	-0.005063
38975	-9.804742	-0.225340	-0.315937	0.003404	-0.023093	-0.004811
38976	-9.781556	-0.226480	-0.306381	0.003528	-0.021834	0.004516
38977	-9.805554	-0.248901	-0.313610	0.002484	-0.012782	0.012355
38978	-9.795794	-0.202461	-0.256196	0.005032	0.003996	0.017895
38979	-9.835577	-0.221595	-0.297230	-0.000448	0.027326	0.016211
38980	-9.804865	-0.219709	-0.316085	0.003929	0.033352	0.018617
38981	-9.804806	-0.217428	-0.319481	0.005581	0.036120	0.028227
38982	-9.826610	-0.164601	-0.327509	0.004963	0.042171	0.032950
38983	-9.842059	-0.188676	-0.287714	0.004894	0.060934	0.025782
38984	-9.795605	-0.159517	-0.354987	0.003468	0.073603	0.016671
38985	-9.827477	-0.206650	-0.349708	0.004784	0.076617	0.018514
38986	-9.819759	-0.203401	-0.380422	0.005817	0.076504	0.021763
38987	-9.826326	-0.178325	-0.362470	0.004343	0.062693	0.019571
38988	-9.811822	-0.198164	-0.416291	-0.000509	0.056592	0.020170
38989	-9.811670	-0.195795	-0.420987	0.005588	0.039225	0.028337
38990	-9.834070	-0.167840	-0.429904	0.004782	0.022444	0.021523
38991	-9.833301	-0.141561	-0.429922	0.005074	0.010175	0.018110
38992	-9.812299	-0.214535	-0.427573	0.001798	-0.001820	0.007958
38993	-9.834080	-0.164106	-0.431118	0.003835	-0.014087	0.003275
38994	-9.812492	-0.213498	-0.423639	0.007105	-0.049827	0.007359
38995	-9.819541	-0.189302	-0.393127	0.005417	-0.067046	0.015853
38996	-9.849786	-0.163855	-0.369680	0.005239	-0.057543	0.008381
38997	-9.803567	-0.165572	-0.348980	0.008682	-0.060623	0.005739
38998	-9.827766	-0.187895	-0.352154	0.007781	-0.057693	0.011867
38999	-9.812215	-0.189373	-0.316013	0.005285	-0.054448	0.008483
39000	-9.827408	-0.162045	-0.340097	0.004841	-0.046532	0.002467
39001	-9.820872	-0.184828	-0.360672	0.004725	-0.038853	0.004222
39002	-9.821007	-0.184344	-0.357224	0.004610	-0.031176	0.005976
39003	-9.805308	-0.186145	-0.323786	0.004447	-0.026585	0.007632
39004	-9.796986	-0.188784	-0.268483	0.003869	-0.003595	0.014401
39005	-9.860065	-0.207122	-0.315919	0.008117	0.015006	0.009429
39006	-9.797912	-0.181806	-0.347686	0.003641	0.018207	0.008828
39007	-9.828390	-0.209632	-0.258354	-0.001419	0.022559	0.022076
39008	-9.821073	-0.176236	-0.359490	-0.003465	0.026835	0.035790
39009	-9.806057	-0.199609	-0.332549	-0.001895	0.016034	0.034172
39010	-9.804467	-0.147709	-0.331248	-0.004365	0.020821	0.030837
39011	-9.828443	-0.168060	-0.343173	-0.004625	0.039539	0.025166
39012	-9.851513	-0.165651	-0.355654	-0.003006	0.063477	-0.001694
39013	-9.828048	-0.167343	-0.354644	-0.002009	0.066724	-0.007624
39014	-9.806120	-0.188743	-0.431612	-0.003771	0.051331	-0.008353
39015	-9.859884	-0.188405	-0.426984	0.000535	0.023469	-0.010043
39016	-9.820089	-0.168904	-0.388710	0.006739	0.004868	-0.012708
39017	-9.797652	-0.195491	-0.382675	0.004079	-0.007600	-0.007311
39018	-9.805191	-0.197098	-0.358566	0.002840	-0.010883	0.000126
39019	-9.827662	-0.171376	-0.363306	0.000832	-0.012466	0.002855
39020	-9.820206	-0.169621	-0.385422	0.001677	-0.009536	0.007711
39021	-9.813565	-0.192030	-0.408799	-0.004505	-0.018641	0.006472
39022	-9.797964	-0.193606	-0.375587	-0.010229	-0.034116	0.011301
39023	-9.798956	-0.216179	-0.373090	-0.027932	-0.049550	0.023526
39024	-9.821636	-0.187913	-0.373560	-0.045907	-0.061657	0.028083
39025	-9.812785	-0.164252	-0.312352	-0.057121	-0.058406	0.031065
39026	-9.843674	-0.161388	-0.291525	-0.069543	-0.045532	0.023334
39027	-9.799111	-0.180882	-0.351211	-0.070293	-0.042278	0.018681
39028	-9.823390	-0.201307	-0.355958	-0.039852	-0.046421	0.031013
39029	-9.830199	-0.174848	-0.326426	-0.025294	-0.049996	0.036253
39030	-9.798717	-0.176678	-0.261172	-0.018054	-0.034564	0.031673
39031	-9.813807	-0.146574	-0.288093	-0.015822	-0.006790	0.031334
39032	-9.807324	-0.166347	-0.312914	-0.008295	0.005303	0.034420
39033	-9.816529	-0.212385	-0.293931	0.005547	0.013892	0.046101
39034	-9.829745	-0.131711	-0.321032	0.010229	0.016562	0.056180
39035	-9.837166	-0.127566	-0.299877	0.012142	0.025821	0.055218
39036	-9.829715	-0.121336	-0.326020	0.010679	0.033870	0.045968
39037	-9.830578	-0.141165	-0.331275	0.013812	0.039958	0.046642
39038	-9.830496	-0.136679	-0.335562	0.015702	0.047673	0.045628
39039	-9.812683	-0.086566	-0.307582	0.017359	0.072568	0.038919
39040	-9.821853	-0.132637	-0.295726	0.017513	0.092597	0.041100
39041	-9.845557	-0.121759	-0.389246	0.016563	0.092446	0.047130
39042	-9.808017	-0.140166	-0.438039	0.019795	0.075183	0.053301
39043	-9.814372	-0.111478	-0.419215	0.011535	0.047312	0.061983
39044	-9.837500	-0.104138	-0.429812	0.006619	0.016621	0.058742
39045	-9.835507	-0.050218	-0.426857	0.004461	-0.010835	0.048305
39046	-9.827493	-0.050380	-0.371074	-0.002107	-0.028612	0.028187
39047	-9.818429	-0.028612	-0.313304	-0.001899	-0.018475	-0.000851
39048	-9.873384	-0.053492	-0.306564	0.004467	0.016690	-0.045175
39049	-9.800800	-0.152792	-0.393008	0.006037	0.027132	-0.033794
39050	-9.852597	-0.105479	-0.383493	0.006301	0.013040	-0.027989
39051	-9.834435	-0.034369	-0.425888	0.011126	0.004595	-0.059944
39052	-9.868083	-0.114395	-0.415119	0.005747	-0.002224	-0.085731
39053	-9.807885	-0.176729	-0.371735	0.007499	-0.017900	-0.079738
39054	-9.799349	-0.158106	-0.391452	0.004604	-0.019909	-0.061704
39055	-9.799641	-0.192376	-0.314860	0.005635	-0.003688	-0.036322
39056	-9.777270	-0.220461	-0.310399	0.008792	0.032596	-0.011552
39057	-9.806918	-0.195761	-0.298783	0.011756	0.084242	0.016740
39058	-9.799075	-0.191593	-0.332492	0.019385	0.131177	0.044084
39059	-9.805711	-0.158305	-0.398752	0.029509	0.155159	0.061869
39060	-9.790851	-0.173684	-0.461776	0.041377	0.154516	0.074573
39061	-9.850161	-0.112121	-0.518409	0.051968	0.129321	0.081725
39062	-9.826558	-0.106237	-0.520883	0.050622	0.077058	0.072262
39063	-9.818639	-0.099013	-0.549007	0.033424	0.025392	0.055627
39064	-9.832066	-0.048569	-0.500043	0.014862	-0.016700	0.029771
39065	-9.841969	-0.096702	-0.477108	0.005684	-0.042079	0.005912
39066	-9.811276	-0.101808	-0.411587	0.004201	-0.038678	-0.003512
39067	-9.827784	-0.129082	-0.364352	0.002711	-0.012184	-0.009188
39068	-9.811265	-0.107984	-0.333326	0.009313	0.038528	-0.003595
39069	-9.781194	-0.132479	-0.357147	0.009135	0.100095	0.007398
39070	-9.819229	-0.122428	-0.483709	0.014481	0.126000	0.016731
39071	-9.826238	-0.116939	-0.549593	0.024370	0.117895	0.021207
39072	-9.809351	-0.093260	-0.527260	0.026733	0.086913	0.020725
39073	-9.811043	-0.139835	-0.537381	0.019102	0.057605	0.024848
39074	-9.803030	-0.136257	-0.564606	0.008671	0.026876	0.026926
39075	-9.831830	-0.084826	-0.547641	0.004124	0.002365	0.022405
39076	-9.824401	-0.086898	-0.493481	0.001144	-0.006520	0.010839
39077	-9.815879	-0.065528	-0.438665	0.001440	0.019970	0.003884
39078	-9.810335	-0.117851	-0.392380	-0.000678	0.074370	-0.002694
39079	-9.785776	-0.094961	-0.393606	0.006267	0.140571	0.003379
39080	-9.794475	-0.138987	-0.466988	0.017716	0.194066	0.017589
39081	-9.807903	-0.129168	-0.594369	0.028944	0.202604	0.035177
39082	-9.819758	-0.074481	-0.640837	0.035394	0.176049	0.038627
39083	-9.818761	-0.071225	-0.656294	0.029330	0.139255	0.031962
39084	-9.864067	-0.066033	-0.683452	0.015212	0.088983	0.015826
39085	-9.795610	-0.093983	-0.667767	0.003833	0.049361	0.003534
39086	-9.803437	-0.094925	-0.648458	0.000830	0.026326	-0.000696
39087	-9.813627	-0.125102	-0.552936	-0.001977	0.035702	-0.000919
39088	-9.790308	-0.126163	-0.550524	-0.001069	0.078761	0.009695
39089	-9.789778	-0.124445	-0.560254	0.003543	0.120039	0.025540
39090	-9.804951	-0.142905	-0.606209	0.009225	0.153513	0.042912
39091	-9.764690	-0.137251	-0.659664	0.007886	0.165464	0.061600
39092	-9.815076	-0.099088	-0.743747	0.017092	0.145986	0.085913
39093	-9.828828	-0.087992	-0.788204	0.017350	0.125743	0.090069
39094	-9.812294	-0.057879	-0.765646	0.005036	0.079824	0.082054
39095	-9.803639	-0.049114	-0.793699	-0.003264	0.024429	0.076035
39096	-9.817870	0.004557	-0.745504	-0.011816	-0.010700	0.065859
39097	-9.797473	-0.039657	-0.738124	-0.023086	-0.033341	0.055541
39098	-9.795386	0.013903	-0.731196	-0.028574	-0.046718	0.040277
39099	-9.837635	-0.031513	-0.691830	-0.039099	-0.049199	0.029078
39100	-9.769124	-0.033511	-0.662979	-0.041312	-0.038192	0.025889
39101	-9.800563	-0.029632	-0.644840	-0.031907	-0.030985	0.035469
39102	-9.787234	-0.053013	-0.613480	-0.012681	-0.005248	0.036405
39103	-9.785936	-0.024691	-0.613143	0.000966	0.029765	0.044376
39104	-9.809856	-0.042692	-0.627361	0.005521	0.062006	0.050693
39105	-9.801132	-0.036627	-0.657445	0.005817	0.083646	0.052882
39106	-9.792254	-0.030519	-0.689106	0.007864	0.094467	0.051983
39107	-9.835405	-0.016895	-0.791414	0.006298	0.085029	0.059208
39108	-9.786405	0.033754	-0.779126	-0.000999	0.063739	0.052706
39109	-9.817257	0.038714	-0.769386	-0.004574	0.036484	0.032739
39110	-9.790561	-0.012489	-0.713291	-0.009997	0.029065	0.026933
39111	-9.831288	-0.033820	-0.680624	0.013008	0.038846	0.039002
39112	-9.777627	-0.013037	-0.614828	0.019259	0.092897	0.040003
39113	-9.774540	-0.004367	-0.703250	0.035597	0.140339	0.044161
39114	-9.778094	0.027957	-0.770446	0.056869	0.158116	0.049965
39115	-9.830824	0.078023	-0.701354	0.067769	0.189348	0.029463
39116	-9.805055	0.100940	-0.713181	0.057274	0.252900	-0.012659
39117	-9.799827	0.002544	-0.769502	0.052625	0.307631	-0.019842
39118	-9.815597	0.031084	-0.883926	0.045596	0.310931	-0.014813
39119	-9.819628	0.008447	-0.967834	0.019707	0.263798	-0.017647
39120	-9.785863	0.005819	-1.004294	0.006141	0.192801	-0.015733
39121	-9.771578	-0.022105	-0.990824	0.018850	0.145427	-0.000578
39122	-9.763823	-0.001200	-0.949348	0.034259	0.146267	0.008543
39123	-9.817939	0.045841	-0.880159	0.048785	0.177041	0.002724
39124	-9.787198	-0.004111	-0.916208	0.053962	0.215869	-0.001544
39125	-9.774730	0.019924	-0.960234	0.066152	0.249952	-0.010816
39126	-9.764337	-0.005287	-1.010830	0.102634	0.292297	-0.007463
39127	-9.792848	-0.005984	-1.027945	0.130787	0.336441	-0.000966
39128	-9.783768	0.013276	-1.006269	0.119040	0.358915	-0.008927
39129	-9.793335	0.012847	-1.073278	0.073479	0.360993	-0.030250
39130	-9.770789	0.010358	-1.152575	0.020438	0.338140	-0.041256
39131	-9.760073	-0.041720	-1.209443	-0.020434	0.310002	-0.043816
39132	-9.738737	-0.067813	-1.284061	-0.038263	0.269860	-0.031173
39133	-9.764899	-0.020437	-1.293521	-0.041879	0.246521	-0.024642
39134	-9.748960	-0.024618	-1.285086	-0.039783	0.235531	-0.021343
39135	-9.734338	-0.052372	-1.277965	-0.036004	0.246070	-0.007838
39136	-9.740790	-0.052566	-1.280338	-0.018076	0.262232	0.013413
39137	-9.755538	-0.028062	-1.261560	-0.002843	0.299105	0.020595
39138	-9.719287	-0.026910	-1.305356	0.018269	0.342189	0.022947
39139	-9.737967	0.004546	-1.403154	0.026254	0.376318	0.027031
39140	-9.740300	0.002051	-1.364349	0.019288	0.402034	0.012128
39141	-9.759894	-0.016843	-1.470630	-0.003893	0.426662	-0.000067
39142	-9.690063	-0.042665	-1.537434	-0.017296	0.420947	0.003158
39143	-9.674537	-0.064830	-1.600938	-0.021355	0.403680	0.019076
39144	-9.709742	-0.037369	-1.604251	-0.019296	0.393987	0.036530
39145	-9.724155	-0.007377	-1.651538	-0.019611	0.395700	0.038090
39146	-9.686194	-0.028396	-1.703057	-0.026557	0.397587	0.041287
39147	-9.688798	-0.000726	-1.718162	-0.034139	0.398207	0.033332
39148	-9.672283	-0.020376	-1.780478	-0.013151	0.405436	0.038373
39149	-10.008172	0.125179	-1.874878	0.009486	0.394538	0.013603
39150	-9.652423	0.102609	-1.901070	0.016140	0.328400	-0.104101
39151	-9.719073	-0.058612	-1.811447	0.004085	0.336796	-0.105152
39152	-9.651958	0.052512	-1.892453	0.014576	0.368539	-0.125380
39153	-9.644805	0.038105	-1.928920	0.009754	0.387247	-0.168439
39154	-9.638254	-0.004258	-1.968280	0.002664	0.397989	-0.202846
39155	-9.641558	-0.047104	-2.041191	0.003302	0.402091	-0.230847
39156	-9.612396	-0.095736	-2.070531	-0.000306	0.410587	-0.240918
39157	-9.615144	-0.120199	-2.087943	0.002788	0.399967	-0.248268
39158	-9.606465	-0.144136	-2.126028	-0.003295	0.392567	-0.249964
39159	-9.607529	-0.165266	-2.196451	-0.004187	0.386309	-0.240887
39160	-9.566958	-0.236872	-2.245407	0.002130	0.367223	-0.230332
39161	-9.579212	-0.231997	-2.289330	0.011170	0.338046	-0.200443
39162	-9.573569	-0.254224	-2.266324	0.010825	0.318981	-0.188441
39163	-9.588252	-0.319460	-2.311140	0.010551	0.306190	-0.176245
39164	-9.558447	-0.288484	-2.325280	0.018134	0.302686	-0.163306
39165	-9.617774	-0.328513	-2.337664	0.017719	0.310512	-0.155286
39166	-9.407602	-0.525729	-2.541650	0.010933	0.283430	-0.029941
39167	-9.489580	-0.359612	-2.493905	0.013317	0.210159	-0.007730
39168	-9.544786	-0.317073	-2.404631	0.004555	0.197470	0.000624
39169	-9.560865	-0.315943	-2.436743	-0.000103	0.219704	0.001603
39170	-9.579695	-0.318068	-2.417229	-0.002412	0.253056	0.000372
39171	-9.564435	-0.320278	-2.409794	0.000108	0.287955	-0.001089
39172	-9.544607	-0.318988	-2.459985	-0.005274	0.322854	0.003215
39173	-9.569276	-0.294560	-2.482551	-0.004479	0.359604	-0.003402
39174	-9.522655	-0.315650	-2.582084	-0.004771	0.378742	-0.001328
39175	-9.466169	-0.290171	-2.646092	-0.005798	0.386932	-0.002947
39176	-9.455957	-0.290231	-2.682347	-0.004816	0.379147	-0.001304
39177	-9.420805	-0.312288	-2.759884	-0.003974	0.350739	-0.000306
39178	-9.445030	-0.312445	-2.783866	-0.001856	0.325572	-0.003612
39179	-9.441037	-0.291591	-2.758015	-0.002824	0.308193	-0.001219
39180	-9.479341	-0.317242	-2.760812	-0.000888	0.317858	-0.001957
39181	-9.462384	-0.295299	-2.756755	0.001116	0.338655	-0.002341
39182	-9.426282	-0.293240	-2.831223	-0.001657	0.367499	-0.002282
39183	-9.436646	-0.341335	-2.882941	0.004541	0.385232	-0.006290
39184	-9.377828	-0.291914	-2.943719	0.003212	0.383749	-0.001940
39185	-9.367144	-0.341081	-2.982317	0.004006	0.374490	-0.005155
39186	-9.369304	-0.318172	-2.994825	0.000691	0.360251	-0.000188
39187	-9.318506	-0.339281	-3.089783	0.000973	0.334985	-0.002443
39188	-9.321821	-0.316417	-3.098017	-0.000197	0.309716	-0.005142
39189	-9.373479	-0.318930	-3.079592	-0.004947	0.303404	-0.000388
39190	-9.343844	-0.319958	-3.094507	-0.003037	0.306739	-0.001293
39191	-9.333932	-0.295607	-3.122001	-0.004470	0.314902	-0.001482
39192	-9.324107	-0.320105	-3.153465	-0.002068	0.326278	-0.003583
39193	-9.341300	-0.322624	-3.144654	-0.004915	0.344096	-0.003924
39194	-9.336129	-0.320668	-3.211624	-0.004386	0.363510	-0.004761
39195	-9.304007	-0.321854	-3.232740	-0.006666	0.389282	-0.001486
39196	-9.276962	-0.320755	-3.289517	-0.008611	0.404080	-0.004846
39197	-9.269035	-0.318833	-3.361456	-0.007665	0.414031	-0.007433
39198	-9.254905	-0.294686	-3.398047	-0.006210	0.409313	-0.002284
39199	-9.207037	-0.319039	-3.442711	-0.010133	0.406520	-0.005236
39200	-9.207377	-0.320322	-3.460594	-0.010152	0.408396	-0.005173
39201	-9.207604	-0.321594	-3.478857	-0.010161	0.413491	-0.005006
39202	-9.212558	-0.320617	-3.531822	-0.008716	0.420170	-0.004307
39203	-9.144053	-0.346266	-3.562326	-0.011633	0.422295	-0.010030
39204	-9.167687	-0.320116	-3.628650	-0.009754	0.417617	-0.006312
39205	-9.167372	-0.345849	-3.649365	-0.015556	0.421277	-0.008148
39206	-9.151568	-0.321718	-3.686881	-0.016510	0.431329	-0.009756
39207	-9.146011	-0.325554	-3.673878	-0.015500	0.451089	-0.011998
39208	-9.117908	-0.346944	-3.771153	-0.021251	0.474193	-0.013235
39209	-9.111016	-0.350773	-3.761603	-0.025592	0.484390	-0.014404
39210	-9.065486	-0.321820	-3.876789	-0.034334	0.492953	-0.012326
39211	-9.012181	-0.346113	-3.926172	-0.042433	0.480845	-0.022046
39212	-9.000374	-0.341536	-4.037103	-0.047432	0.456867	-0.018117
39213	-8.994347	-0.320708	-4.022984	-0.038751	0.442592	-0.020326
39214	-8.992220	-0.346362	-4.045549	-0.037476	0.436262	-0.015194
39215	-8.974332	-0.321851	-4.083362	-0.034637	0.439787	-0.014029
39216	-8.956228	-0.321924	-4.122913	-0.030227	0.440197	-0.017264
39217	-8.940508	-0.344145	-4.198565	-0.026491	0.443658	-0.014127
39218	-8.901012	-0.323352	-4.185875	-0.025625	0.434178	-0.012491
39219	-8.898871	-0.324683	-4.206011	-0.022797	0.429570	-0.011581
39220	-8.880891	-0.324708	-4.243841	-0.019076	0.419981	-0.008871
39221	-8.846837	-0.323629	-4.299169	-0.016053	0.415512	-0.012769
39222	-8.812777	-0.347006	-4.355285	-0.014309	0.404249	-0.009221
39223	-8.827991	-0.349797	-4.354359	-0.015753	0.394793	-0.010099
39224	-8.828774	-0.324460	-4.404002	-0.016332	0.396687	-0.008609
39225	-8.778277	-0.346253	-4.476367	-0.014928	0.390408	-0.008278
39226	-8.792474	-0.327119	-4.438934	-0.018118	0.394182	-0.012656
39227	-8.807261	-0.354367	-4.441301	-0.015366	0.430484	-0.010264
39228	-8.821412	-0.354743	-4.480391	-0.024877	0.480390	-0.013851
39229	-8.781593	-0.353593	-4.543038	-0.033285	0.538746	-0.019995
39230	-8.721730	-0.353747	-4.592350	-0.037374	0.567578	-0.025498
39231	-8.678163	-0.328403	-4.658382	-0.043716	0.584807	-0.025760
39232	-8.650879	-0.326138	-4.743822	-0.048870	0.589005	-0.029334
39233	-8.605253	-0.349267	-4.813962	-0.043873	0.591177	-0.025527
39234	-8.593866	-0.350778	-4.847757	-0.035476	0.591678	-0.022008
39235	-8.582239	-0.352343	-4.881831	-0.032746	0.597302	-0.020632
39236	-8.517804	-0.349641	-4.967028	-0.029186	0.597895	-0.017432
39237	-8.523155	-0.352580	-4.984250	-0.027245	0.597009	-0.018281
39238	-8.476302	-0.329476	-5.016241	-0.025178	0.610939	-0.015170
39239	-8.478401	-0.327427	-5.104263	-0.022115	0.626826	-0.018192
39240	-8.430322	-0.331438	-5.106162	-0.020147	0.652544	-0.014631
39241	-8.376166	-0.352063	-5.214815	-0.019156	0.678604	-0.016473
39242	-8.323959	-0.353470	-5.253879	-0.021318	0.687972	-0.015364
39243	-8.340069	-0.355587	-5.297383	-0.020981	0.695917	-0.019889
39244	-8.265422	-0.353192	-5.388554	-0.024817	0.724001	-0.022138
39245	-8.189391	-0.350474	-5.479711	-0.024604	0.714848	-0.015674
39246	-8.131968	-0.349146	-5.553018	-0.019085	0.692470	-0.017388
39247	-8.091450	-0.346695	-5.641807	-0.015859	0.649437	-0.010904
39248	-8.093149	-0.349742	-5.661964	-0.011510	0.616577	-0.010208
39249	-8.040058	-0.348206	-5.725912	-0.011155	0.585102	-0.004576
39250	-8.014359	-0.353210	-5.703501	-0.007532	0.562071	-0.002106
39251	-7.997254	-0.376456	-5.768913	-0.004849	0.551184	-0.008035
39252	-7.974169	-0.333173	-5.741058	-0.008311	0.555194	-0.004439
39253	-7.970996	-0.379355	-5.827702	-0.007753	0.564343	-0.002070
39254	-7.915224	-0.326536	-5.917930	-0.005118	0.563633	-0.007597
39255	-7.862146	-0.349589	-5.978595	-0.008478	0.552528	-0.008010
39256	-7.824936	-0.347055	-6.055083	-0.006220	0.527580	-0.006232
39257	-7.774529	-0.345655	-6.109266	-0.006526	0.487255	-0.006386
39258	-7.731427	-0.347078	-6.125859	-0.002698	0.445101	-0.007963
39259	-7.764548	-0.327647	-6.114214	-0.001071	0.416333	-0.004942
39260	-7.787777	-0.327823	-6.171206	0.007284	0.405131	-0.014872
39261	-7.723604	-0.326972	-6.230368	0.013687	0.387027	-0.024377
39262	-7.685740	-0.331449	-6.239590	0.012018	0.367546	-0.041519
39263	-7.653902	-0.388006	-6.216529	0.004916	0.340862	-0.051486
39264	-7.666417	-0.416794	-6.249636	-0.010496	0.322646	-0.058538
39265	-7.592051	-0.441560	-6.283309	-0.050608	0.300617	-0.054542
39266	-7.554971	-0.391525	-6.315631	-0.033840	0.276868	-0.020989
39267	-7.627214	-0.344591	-6.331034	-0.017599	0.260642	-0.002852
39268	-7.602781	-0.347591	-6.297421	-0.015692	0.271179	-0.003105
39269	-7.578588	-0.368648	-6.353765	-0.005561	0.272875	0.000588
39270	-7.501084	-0.363369	-6.414930	-0.003501	0.260702	0.006321
39271	-7.498835	-0.343569	-6.364232	-0.005351	0.238261	0.009525
39272	-7.557373	-0.370365	-6.363493	-0.006080	0.238356	0.010873
39273	-7.522229	-0.343314	-6.393654	-0.004195	0.250630	0.010699
39274	-7.498749	-0.363884	-6.448066	-0.002862	0.250758	0.011420
39275	-7.441933	-0.359529	-6.493637	0.003658	0.250421	0.021842
39276	-7.233506	-0.493176	-6.587344	0.004977	0.199238	0.044548
39277	-7.343900	-0.347752	-6.540454	-0.033411	0.082769	0.094986
39278	-7.481084	-0.374471	-6.455216	-0.014767	0.081199	0.089371
39279	-7.429725	-0.312005	-6.517736	-0.028334	0.074423	0.088676
39280	-7.431887	-0.331272	-6.491175	-0.018387	0.066089	0.079801
39281	-7.442033	-0.298956	-6.514410	-0.015992	0.057754	0.072047
39282	-7.418019	-0.291388	-6.532008	-0.011741	0.057945	0.067412
39283	-7.400944	-0.311608	-6.517303	-0.006621	0.046037	0.060980
39284	-7.432197	-0.307315	-6.527569	-0.008121	0.036226	0.047572
39285	-7.417164	-0.304854	-6.509284	-0.008335	0.021009	0.038100
39286	-7.442729	-0.299531	-6.551453	-0.009737	0.013068	0.021349
39287	-7.409527	-0.249097	-6.541154	-0.001112	0.002977	0.011692
39288	-7.401410	-0.294493	-6.578421	0.001282	-0.005399	0.003937
39289	-7.430256	-0.274698	-6.528904	0.007222	-0.015401	-0.007175
39290	-7.418087	-0.277368	-6.507126	0.007622	-0.020163	-0.017593
39291	-7.419728	-0.279181	-6.505177	0.001769	-0.032031	-0.023029
39292	-7.454094	-0.354735	-6.515297	-0.003684	-0.038098	-0.041895
39293	-7.457294	-0.309332	-6.509006	-0.008044	-0.032208	-0.056167
39294	-7.445916	-0.314442	-6.486171	-0.013171	-0.033454	-0.065953
39295	-7.427145	-0.316961	-6.497313	-0.015958	-0.024678	-0.067076
39296	-7.448716	-0.322242	-6.482572	-0.012872	-0.016330	-0.059820
39297	-7.442739	-0.323025	-6.514788	-0.005568	-0.023725	-0.050980
39298	-7.437116	-0.323589	-6.546630	0.000331	-0.025876	-0.042669
39299	-7.431833	-0.355217	-6.492404	0.005109	-0.027679	-0.041898
39300	-7.447440	-0.332887	-6.508916	0.007553	-0.026331	-0.033566
39301	-7.461703	-0.358847	-6.529264	0.000086	-0.024432	-0.035787
39302	-7.423634	-0.340991	-6.464478	0.000898	-0.022484	-0.040469
39303	-7.485558	-0.341833	-6.510604	0.000086	-0.024422	-0.035786
39304	-7.432101	-0.366771	-6.516931	-0.004695	-0.022612	-0.036554
39305	-7.440975	-0.347369	-6.479912	-0.008287	-0.017533	-0.033057
39306	-7.461610	-0.375117	-6.467319	-0.010405	-0.014077	-0.032308
39307	-7.442381	-0.350319	-6.478138	-0.016354	-0.004129	-0.021181
39308	-7.462890	-0.352293	-6.464682	-0.011859	-0.001042	-0.013401
39309	-7.455766	-0.349442	-6.498508	-0.008839	0.003662	-0.002873
39310	-7.419989	-0.396858	-6.495918	-0.008713	0.015226	0.009880
39311	-7.461847	-0.325134	-6.464957	-0.012603	0.018097	0.023533
39312	-7.438935	-0.369495	-6.483466	-0.012735	0.019677	0.027007
39313	-7.431350	-0.339469	-6.516842	-0.012141	0.021314	0.029140
39314	-7.417520	-0.313671	-6.495992	-0.005861	0.016158	0.027091
39315	-7.436459	-0.337485	-6.485616	-0.004230	0.011229	0.020802
39316	-7.456172	-0.337096	-6.473238	-0.005705	0.012852	0.023550
39317	-7.448312	-0.332110	-6.507957	-0.005112	0.014488	0.025684
39318	-7.454511	-0.332918	-6.475368	-0.000246	0.014571	0.023112
39319	-7.447163	-0.304062	-6.508308	0.001075	0.016263	0.023905
39320	-7.452668	-0.329558	-6.477661	0.001824	0.014587	0.022497
39321	-7.431255	-0.326344	-6.492148	-0.000291	0.018046	0.023246
39322	-7.457419	-0.297875	-6.532477	0.001756	0.019793	0.022699
39323	-7.428983	-0.323396	-6.494895	0.003365	0.016592	0.016476
39324	-7.448282	-0.323807	-6.482993	-0.001436	0.020139	0.015773
39325	-7.426637	-0.320876	-6.497702	-0.006170	0.018485	0.014868
39326	-7.438875	-0.318159	-6.519438	-0.003463	0.016663	0.016253
39327	-7.418121	-0.290712	-6.531922	-0.004874	0.013086	0.018799
39328	-7.424055	-0.316445	-6.500870	-0.000535	0.006323	0.013896
39329	-7.423849	-0.315535	-6.501149	0.000984	0.001229	0.011015
39330	-7.424396	-0.290611	-6.499348	0.003782	0.001293	0.009061
39331	-7.424585	-0.290754	-6.499126	0.007024	-0.006855	-0.003449
39332	-7.458297	-0.316500	-6.507512	0.014733	-0.010185	-0.008105
39333	-7.439318	-0.292247	-6.517814	0.017504	-0.017211	-0.006920
39334	-7.439148	-0.342879	-6.520297	0.021735	-0.015302	-0.011488
39335	-7.427925	-0.297535	-6.495001	0.017573	-0.013586	-0.010193
39336	-7.462062	-0.324175	-6.502816	0.021029	-0.017086	-0.010214
39337	-7.422313	-0.323297	-6.527954	0.019091	-0.018676	-0.013073
39338	-7.444812	-0.303081	-6.511043	0.027480	-0.027300	-0.015862
39339	-7.439113	-0.327942	-6.544143	0.029152	-0.035704	-0.022279
39340	-7.435282	-0.335623	-6.487062	0.027389	-0.042340	-0.028741
39341	-7.458394	-0.341306	-6.470457	0.030932	-0.043943	-0.032103
39342	-7.453320	-0.367439	-6.502751	0.025002	-0.040049	-0.040346
39343	-7.449785	-0.351112	-6.444101	0.016502	-0.031576	-0.034148
39344	-7.464123	-0.377579	-6.464275	0.013462	-0.021392	-0.028394
39345	-7.452370	-0.356670	-6.440806	0.008759	-0.011623	-0.013143
39346	-7.479568	-0.355488	-6.481032	0.008300	-0.001678	-0.002533
39347	-7.445837	-0.355366	-6.473891	0.002582	-0.000233	0.004856
39348	-7.465454	-0.381109	-6.462530	0.007888	0.004801	0.007947
39349	-7.458766	-0.353864	-6.494824	0.003108	0.006603	0.007179
39350	-7.464680	-0.380087	-6.463485	-0.003955	0.008091	0.013844
39351	-7.458449	-0.327365	-6.494239	-0.003359	0.009729	0.015974
39352	-7.456738	-0.374879	-6.498406	0.000230	0.004652	0.012481
39353	-7.490922	-0.350007	-6.503998	0.001574	0.004612	0.013206
39354	-7.443580	-0.350225	-6.476766	0.004521	0.001363	0.007711
39355	-7.449942	-0.377017	-6.444907	0.002581	-0.000233	0.004856
39356	-7.443546	-0.349823	-6.476826	0.005246	0.001418	0.006370
39357	-7.477367	-0.350347	-6.483851	0.008193	-0.001832	0.000876
39358	-7.443533	-0.350191	-6.476821	0.003261	0.003288	0.003644
39359	-7.444030	-0.325739	-6.475179	0.003902	0.001460	0.005645
39360	-7.484079	-0.352960	-6.450507	0.005224	0.003152	0.006434
39361	-7.436120	-0.346982	-6.511003	0.000489	0.001489	0.005537
39362	-7.464040	-0.326546	-6.462354	0.002536	0.003235	0.004985
39363	-7.462710	-0.374875	-6.466063	0.001130	-0.000339	0.007539
39364	-7.469477	-0.346221	-6.518629	0.003706	0.008244	0.009309
39365	-7.442880	-0.323639	-6.476606	-0.001029	0.006582	0.008412
39366	-7.461697	-0.373407	-6.467317	0.005201	0.004885	0.006499
39367	-7.462085	-0.348742	-6.465803	0.001085	0.003128	0.007668
39368	-7.454212	-0.369847	-6.501592	0.001681	0.004767	0.009798
39369	-7.433530	-0.367651	-6.515250	0.000955	0.004714	0.011139
39370	-7.460591	-0.371105	-6.468725	0.000293	0.008276	0.009201
39371	-7.439736	-0.368869	-6.482583	-0.000411	0.006489	0.010478
39372	-7.480683	-0.346619	-6.454788	-0.002524	0.009945	0.011222
39373	-7.451926	-0.365346	-6.504466	-0.006923	0.013095	0.019397
39374	-7.458626	-0.341861	-6.470161	-0.004918	0.018308	0.018974
39375	-7.444041	-0.341085	-6.451274	-0.007139	0.021619	0.023125
39376	-7.434963	-0.360419	-6.488531	-0.008634	0.024984	0.025935
39377	-7.454502	-0.335146	-6.475262	-0.007887	0.023307	0.024530
39378	-7.446053	-0.330169	-6.510640	-0.005180	0.021491	0.025917
39379	-7.432134	-0.304955	-6.489840	-0.000979	0.016310	0.024495
39380	-7.430847	-0.327720	-6.492546	0.002030	0.007850	0.018810
39381	-7.464105	-0.327089	-6.500325	0.006988	0.009802	0.012897
39382	-7.429734	-0.326150	-6.493898	0.002848	0.009785	0.014126
39383	-7.421580	-0.347082	-6.529986	0.001656	0.006507	0.009864
39384	-7.435966	-0.327386	-6.461287	0.002272	0.006412	0.011931
39385	-7.448864	-0.325398	-6.482244	-0.000434	0.008233	0.010543
39386	-7.460447	-0.371693	-6.507075	-0.002787	0.013137	0.018164
39387	-7.467381	-0.348479	-6.472514	-0.002767	0.011404	0.018100
39388	-7.425982	-0.319084	-6.498539	-0.011408	0.023225	0.027820
39389	-7.437404	-0.339304	-6.522473	-0.013460	0.021486	0.028370
39390	-7.409834	-0.314573	-6.481628	-0.007419	0.026571	0.030130
39391	-7.442706	-0.287906	-6.488743	-0.007845	0.019875	0.024398
39392	-7.412880	-0.330324	-6.540727	-0.006371	0.018244	0.021653
39393	-7.433351	-0.281267	-6.525101	-0.004149	0.014927	0.017504
39394	-7.439076	-0.306833	-6.494378	-0.004035	0.015074	0.014097
39395	-7.404492	-0.305399	-6.488168	-0.001314	0.011516	0.015422
39396	-7.430541	-0.301819	-6.529711	0.000197	0.006411	0.012548
39397	-7.417036	-0.302254	-6.509551	0.002321	0.001211	0.011741
39398	-7.389821	-0.273400	-6.554715	0.003893	0.001456	0.005654
39399	-7.431342	-0.276904	-6.527575	0.018103	-0.019090	-0.004883
39400	-7.418163	-0.328251	-6.509434	0.013312	-0.015534	-0.005596
39401	-7.454143	-0.281183	-6.511556	0.016182	-0.022418	-0.007806
39402	-7.420751	-0.331231	-6.506332	0.012752	-0.020642	-0.007856
39403	-7.442706	-0.309573	-6.490088	0.013873	-0.010419	-0.003337
39404	-7.434941	-0.356393	-6.526880	0.005501	-0.001767	-0.000563
39405	-7.435568	-0.332519	-6.524915	0.010871	-0.001943	0.002344
39406	-7.415688	-0.307309	-6.536250	0.010853	-0.000207	0.002408
39407	-7.456843	-0.310867	-6.509450	0.013109	-0.006998	-0.001868
39408	-7.423677	-0.312010	-6.501515	0.017417	-0.012046	-0.006693
39409	-7.418072	-0.286987	-6.532142	0.020417	-0.020520	-0.012371
39410	-7.453139	-0.289820	-6.537722	0.026741	-0.020355	-0.017619
39411	-7.440971	-0.318527	-6.517028	0.027595	-0.032444	-0.019402
